"trial_type","trial_index","time_elapsed","internal_node_id","prolificPid","studyId","sessionId","userAgent","version","rt","stimulus","key_press","chosenKeyset","failureCount","testIndex","globalVolume","choices","filename","modelName","slowdown","compensation","compensationDescriptor","receiverOrientationType","azimuth","responseAzimuth","responseDelay"
"pavlovia","0","2","0.0-0.0","5d488733da9cb60001aa5895","60201dea606b8d5e5aa9e528","6020225f30812d5d30a4d649","Mozilla/5.0 (Windows NT 10.0; Win64; x64) AppleWebKit/537.36 (KHTML, like Gecko) Chrome/87.0.4280.141 Safari/537.36 OPR/73.0.3856.344","v1-up-stims","","","","","","","","","","","","","","","","",""
"html-keyboard-response","1","34161","0.0-1.0","5d488733da9cb60001aa5895","60201dea606b8d5e5aa9e528","6020225f30812d5d30a4d649","Mozilla/5.0 (Windows NT 10.0; Win64; x64) AppleWebKit/537.36 (KHTML, like Gecko) Chrome/87.0.4280.141 Safari/537.36 OPR/73.0.3856.344","v1-up-stims","34158.66000019014","<div><h1>Welcome!</h1><p>Press any key to continue.</p></div>","32","","","","","","","","","","","","","",""
"consent-form","2","114503","0.0-2.0","5d488733da9cb60001aa5895","60201dea606b8d5e5aa9e528","6020225f30812d5d30a4d649","Mozilla/5.0 (Windows NT 10.0; Win64; x64) AppleWebKit/537.36 (KHTML, like Gecko) Chrome/87.0.4280.141 Safari/537.36 OPR/73.0.3856.344","v1-up-stims","","","","","","","","","","","","","","","","",""
"keyset-select","3","194077","0.0-3.0","5d488733da9cb60001aa5895","60201dea606b8d5e5aa9e528","6020225f30812d5d30a4d649","Mozilla/5.0 (Windows NT 10.0; Win64; x64) AppleWebKit/537.36 (KHTML, like Gecko) Chrome/87.0.4280.141 Safari/537.36 OPR/73.0.3856.344","v1-up-stims","","","","left-hand","","","","","","","","","","","","",""
"headphone-check","4","266865","0.0-4.0","5d488733da9cb60001aa5895","60201dea606b8d5e5aa9e528","6020225f30812d5d30a4d649","Mozilla/5.0 (Windows NT 10.0; Win64; x64) AppleWebKit/537.36 (KHTML, like Gecko) Chrome/87.0.4280.141 Safari/537.36 OPR/73.0.3856.344","v1-up-stims","","","","","0","6","0.3","","","","","","","","","",""
"headphone-backwards-check","5","277260","0.0-5.0","5d488733da9cb60001aa5895","60201dea606b8d5e5aa9e528","6020225f30812d5d30a4d649","Mozilla/5.0 (Windows NT 10.0; Win64; x64) AppleWebKit/537.36 (KHTML, like Gecko) Chrome/87.0.4280.141 Safari/537.36 OPR/73.0.3856.344","v1-up-stims","","","","","0","","","","","","","","","","","",""
"training","6","424584","0.0-6.0","5d488733da9cb60001aa5895","60201dea606b8d5e5aa9e528","6020225f30812d5d30a4d649","Mozilla/5.0 (Windows NT 10.0; Win64; x64) AppleWebKit/537.36 (KHTML, like Gecko) Chrome/87.0.4280.141 Safari/537.36 OPR/73.0.3856.344","v1-up-stims","","","","","","","","","","","","","","","","",""
"block-bookend","7","438456","0.0-7.0","5d488733da9cb60001aa5895","60201dea606b8d5e5aa9e528","6020225f30812d5d30a4d649","Mozilla/5.0 (Windows NT 10.0; Win64; x64) AppleWebKit/537.36 (KHTML, like Gecko) Chrome/87.0.4280.141 Safari/537.36 OPR/73.0.3856.344","v1-up-stims","","","","","","","","","","","","","","","","",""
"echo-presentation","8","447145","0.0-8.0","5d488733da9cb60001aa5895","60201dea606b8d5e5aa9e528","6020225f30812d5d30a4d649","Mozilla/5.0 (Windows NT 10.0; Win64; x64) AppleWebKit/537.36 (KHTML, like Gecko) Chrome/87.0.4280.141 Safari/537.36 OPR/73.0.3856.344","v1-up-stims","","","","","","","","-20,-10,0,10,20","media/audio/stims/spherical_300cm_s20_c1_cd-1_matched_a0.wav","spherical","20","1","1","matched","0","0","6308"
"echo-presentation","9","452004","0.0-9.0","5d488733da9cb60001aa5895","60201dea606b8d5e5aa9e528","6020225f30812d5d30a4d649","Mozilla/5.0 (Windows NT 10.0; Win64; x64) AppleWebKit/537.36 (KHTML, like Gecko) Chrome/87.0.4280.141 Safari/537.36 OPR/73.0.3856.344","v1-up-stims","","","","","","","","-20,-10,0,10,20","media/audio/stims/spherical_300cm_s20_c1_cd-1_matched_a-20.wav","spherical","20","1","1","matched","-20","-10","3060"
"echo-presentation","10","455702","0.0-10.0","5d488733da9cb60001aa5895","60201dea606b8d5e5aa9e528","6020225f30812d5d30a4d649","Mozilla/5.0 (Windows NT 10.0; Win64; x64) AppleWebKit/537.36 (KHTML, like Gecko) Chrome/87.0.4280.141 Safari/537.36 OPR/73.0.3856.344","v1-up-stims","","","","","","","","-20,-10,0,10,20","media/audio/stims/spherical_300cm_s20_c1_cd-1_matched_a10.wav","spherical","20","1","1","matched","10","20","2120"
"echo-presentation","11","459577","0.0-11.0","5d488733da9cb60001aa5895","60201dea606b8d5e5aa9e528","6020225f30812d5d30a4d649","Mozilla/5.0 (Windows NT 10.0; Win64; x64) AppleWebKit/537.36 (KHTML, like Gecko) Chrome/87.0.4280.141 Safari/537.36 OPR/73.0.3856.344","v1-up-stims","","","","","","","","-20,-10,0,10,20","media/audio/stims/spherical_300cm_s20_c1_cd-1_matched_a-10.wav","spherical","20","1","1","matched","-10","-10","2487"
"echo-presentation","12","463514","0.0-12.0","5d488733da9cb60001aa5895","60201dea606b8d5e5aa9e528","6020225f30812d5d30a4d649","Mozilla/5.0 (Windows NT 10.0; Win64; x64) AppleWebKit/537.36 (KHTML, like Gecko) Chrome/87.0.4280.141 Safari/537.36 OPR/73.0.3856.344","v1-up-stims","","","","","","","","-20,-10,0,10,20","media/audio/stims/spherical_300cm_s20_c1_cd-1_matched_a-10.wav","spherical","20","1","1","matched","-10","-20","2742"
"echo-presentation","13","467015","0.0-13.0","5d488733da9cb60001aa5895","60201dea606b8d5e5aa9e528","6020225f30812d5d30a4d649","Mozilla/5.0 (Windows NT 10.0; Win64; x64) AppleWebKit/537.36 (KHTML, like Gecko) Chrome/87.0.4280.141 Safari/537.36 OPR/73.0.3856.344","v1-up-stims","","","","","","","","-20,-10,0,10,20","media/audio/stims/spherical_300cm_s20_c1_cd-1_matched_a10.wav","spherical","20","1","1","matched","10","10","2154"
"echo-presentation","14","472634","0.0-14.0","5d488733da9cb60001aa5895","60201dea606b8d5e5aa9e528","6020225f30812d5d30a4d649","Mozilla/5.0 (Windows NT 10.0; Win64; x64) AppleWebKit/537.36 (KHTML, like Gecko) Chrome/87.0.4280.141 Safari/537.36 OPR/73.0.3856.344","v1-up-stims","","","","","","","","-20,-10,0,10,20","media/audio/stims/spherical_300cm_s20_c1_cd-1_matched_a20.wav","spherical","20","1","1","matched","20","20","4216"
"echo-presentation","15","477208","0.0-15.0","5d488733da9cb60001aa5895","60201dea606b8d5e5aa9e528","6020225f30812d5d30a4d649","Mozilla/5.0 (Windows NT 10.0; Win64; x64) AppleWebKit/537.36 (KHTML, like Gecko) Chrome/87.0.4280.141 Safari/537.36 OPR/73.0.3856.344","v1-up-stims","","","","","","","","-20,-10,0,10,20","media/audio/stims/spherical_300cm_s20_c1_cd-1_matched_a0.wav","spherical","20","1","1","matched","0","0","3269"
"echo-presentation","16","481334","0.0-16.0","5d488733da9cb60001aa5895","60201dea606b8d5e5aa9e528","6020225f30812d5d30a4d649","Mozilla/5.0 (Windows NT 10.0; Win64; x64) AppleWebKit/537.36 (KHTML, like Gecko) Chrome/87.0.4280.141 Safari/537.36 OPR/73.0.3856.344","v1-up-stims","","","","","","","","-20,-10,0,10,20","media/audio/stims/spherical_300cm_s20_c1_cd-1_matched_a20.wav","spherical","20","1","1","matched","20","10","2780"
"echo-presentation","17","485486","0.0-17.0","5d488733da9cb60001aa5895","60201dea606b8d5e5aa9e528","6020225f30812d5d30a4d649","Mozilla/5.0 (Windows NT 10.0; Win64; x64) AppleWebKit/537.36 (KHTML, like Gecko) Chrome/87.0.4280.141 Safari/537.36 OPR/73.0.3856.344","v1-up-stims","","","","","","","","-20,-10,0,10,20","media/audio/stims/spherical_300cm_s20_c1_cd-1_matched_a20.wav","spherical","20","1","1","matched","20","0","2462"
"echo-presentation","18","488570","0.0-18.0","5d488733da9cb60001aa5895","60201dea606b8d5e5aa9e528","6020225f30812d5d30a4d649","Mozilla/5.0 (Windows NT 10.0; Win64; x64) AppleWebKit/537.36 (KHTML, like Gecko) Chrome/87.0.4280.141 Safari/537.36 OPR/73.0.3856.344","v1-up-stims","","","","","","","","-20,-10,0,10,20","media/audio/stims/spherical_300cm_s20_c1_cd-1_matched_a10.wav","spherical","20","1","1","matched","10","20","1978"
"echo-presentation","19","492578","0.0-19.0","5d488733da9cb60001aa5895","60201dea606b8d5e5aa9e528","6020225f30812d5d30a4d649","Mozilla/5.0 (Windows NT 10.0; Win64; x64) AppleWebKit/537.36 (KHTML, like Gecko) Chrome/87.0.4280.141 Safari/537.36 OPR/73.0.3856.344","v1-up-stims","","","","","","","","-20,-10,0,10,20","media/audio/stims/spherical_300cm_s20_c1_cd-1_matched_a-20.wav","spherical","20","1","1","matched","-20","-10","2091"
"echo-presentation","20","495586","0.0-20.0","5d488733da9cb60001aa5895","60201dea606b8d5e5aa9e528","6020225f30812d5d30a4d649","Mozilla/5.0 (Windows NT 10.0; Win64; x64) AppleWebKit/537.36 (KHTML, like Gecko) Chrome/87.0.4280.141 Safari/537.36 OPR/73.0.3856.344","v1-up-stims","","","","","","","","-20,-10,0,10,20","media/audio/stims/spherical_300cm_s20_c1_cd-1_matched_a20.wav","spherical","20","1","1","matched","20","10","1817"
"echo-presentation","21","498195","0.0-21.0","5d488733da9cb60001aa5895","60201dea606b8d5e5aa9e528","6020225f30812d5d30a4d649","Mozilla/5.0 (Windows NT 10.0; Win64; x64) AppleWebKit/537.36 (KHTML, like Gecko) Chrome/87.0.4280.141 Safari/537.36 OPR/73.0.3856.344","v1-up-stims","","","","","","","","-20,-10,0,10,20","media/audio/stims/spherical_300cm_s20_c1_cd-1_matched_a-20.wav","spherical","20","1","1","matched","-20","-20","1495"
"echo-presentation","22","500874","0.0-22.0","5d488733da9cb60001aa5895","60201dea606b8d5e5aa9e528","6020225f30812d5d30a4d649","Mozilla/5.0 (Windows NT 10.0; Win64; x64) AppleWebKit/537.36 (KHTML, like Gecko) Chrome/87.0.4280.141 Safari/537.36 OPR/73.0.3856.344","v1-up-stims","","","","","","","","-20,-10,0,10,20","media/audio/stims/spherical_300cm_s20_c1_cd-1_matched_a-20.wav","spherical","20","1","1","matched","-20","-20","1486"
"echo-presentation","23","504439","0.0-23.0","5d488733da9cb60001aa5895","60201dea606b8d5e5aa9e528","6020225f30812d5d30a4d649","Mozilla/5.0 (Windows NT 10.0; Win64; x64) AppleWebKit/537.36 (KHTML, like Gecko) Chrome/87.0.4280.141 Safari/537.36 OPR/73.0.3856.344","v1-up-stims","","","","","","","","-20,-10,0,10,20","media/audio/stims/spherical_300cm_s20_c1_cd-1_matched_a-10.wav","spherical","20","1","1","matched","-10","-20","2046"
"echo-presentation","24","508514","0.0-24.0","5d488733da9cb60001aa5895","60201dea606b8d5e5aa9e528","6020225f30812d5d30a4d649","Mozilla/5.0 (Windows NT 10.0; Win64; x64) AppleWebKit/537.36 (KHTML, like Gecko) Chrome/87.0.4280.141 Safari/537.36 OPR/73.0.3856.344","v1-up-stims","","","","","","","","-20,-10,0,10,20","media/audio/stims/spherical_300cm_s20_c1_cd-1_matched_a-10.wav","spherical","20","1","1","matched","-10","-20","2320"
"echo-presentation","25","512526","0.0-25.0","5d488733da9cb60001aa5895","60201dea606b8d5e5aa9e528","6020225f30812d5d30a4d649","Mozilla/5.0 (Windows NT 10.0; Win64; x64) AppleWebKit/537.36 (KHTML, like Gecko) Chrome/87.0.4280.141 Safari/537.36 OPR/73.0.3856.344","v1-up-stims","","","","","","","","-20,-10,0,10,20","media/audio/stims/spherical_300cm_s20_c1_cd-1_matched_a0.wav","spherical","20","1","1","matched","0","0","2474"
"echo-presentation","26","516074","0.0-26.0","5d488733da9cb60001aa5895","60201dea606b8d5e5aa9e528","6020225f30812d5d30a4d649","Mozilla/5.0 (Windows NT 10.0; Win64; x64) AppleWebKit/537.36 (KHTML, like Gecko) Chrome/87.0.4280.141 Safari/537.36 OPR/73.0.3856.344","v1-up-stims","","","","","","","","-20,-10,0,10,20","media/audio/stims/spherical_300cm_s20_c1_cd-1_matched_a10.wav","spherical","20","1","1","matched","10","10","1983"
"echo-presentation","27","520178","0.0-27.0","5d488733da9cb60001aa5895","60201dea606b8d5e5aa9e528","6020225f30812d5d30a4d649","Mozilla/5.0 (Windows NT 10.0; Win64; x64) AppleWebKit/537.36 (KHTML, like Gecko) Chrome/87.0.4280.141 Safari/537.36 OPR/73.0.3856.344","v1-up-stims","","","","","","","","-20,-10,0,10,20","media/audio/stims/spherical_300cm_s20_c1_cd-1_matched_a0.wav","spherical","20","1","1","matched","0","0","2607"
"block-bookend","28","523250","0.0-28.0","5d488733da9cb60001aa5895","60201dea606b8d5e5aa9e528","6020225f30812d5d30a4d649","Mozilla/5.0 (Windows NT 10.0; Win64; x64) AppleWebKit/537.36 (KHTML, like Gecko) Chrome/87.0.4280.141 Safari/537.36 OPR/73.0.3856.344","v1-up-stims","","","","","","","","","","","","","","","","",""
"block-bookend","29","532579","0.0-29.0","5d488733da9cb60001aa5895","60201dea606b8d5e5aa9e528","6020225f30812d5d30a4d649","Mozilla/5.0 (Windows NT 10.0; Win64; x64) AppleWebKit/537.36 (KHTML, like Gecko) Chrome/87.0.4280.141 Safari/537.36 OPR/73.0.3856.344","v1-up-stims","","","","","","","","","","","","","","","","",""
"echo-presentation","30","542884","0.0-30.0","5d488733da9cb60001aa5895","60201dea606b8d5e5aa9e528","6020225f30812d5d30a4d649","Mozilla/5.0 (Windows NT 10.0; Win64; x64) AppleWebKit/537.36 (KHTML, like Gecko) Chrome/87.0.4280.141 Safari/537.36 OPR/73.0.3856.344","v1-up-stims","","","","","","","","-20,-10,0,10,20","media/audio/stims/spherical_300cm_s20_c1_cd-1_matched_a-20.wav","spherical","20","1","1","matched","-20","-20","4312"
"echo-presentation","31","546865","0.0-31.0","5d488733da9cb60001aa5895","60201dea606b8d5e5aa9e528","6020225f30812d5d30a4d649","Mozilla/5.0 (Windows NT 10.0; Win64; x64) AppleWebKit/537.36 (KHTML, like Gecko) Chrome/87.0.4280.141 Safari/537.36 OPR/73.0.3856.344","v1-up-stims","","","","","","","","-20,-10,0,10,20","media/audio/stims/spherical_300cm_s20_c1_cd-1_matched_a20.wav","spherical","20","1","1","matched","20","10","2041"
"echo-presentation","32","549559","0.0-32.0","5d488733da9cb60001aa5895","60201dea606b8d5e5aa9e528","6020225f30812d5d30a4d649","Mozilla/5.0 (Windows NT 10.0; Win64; x64) AppleWebKit/537.36 (KHTML, like Gecko) Chrome/87.0.4280.141 Safari/537.36 OPR/73.0.3856.344","v1-up-stims","","","","","","","","-20,-10,0,10,20","media/audio/stims/spherical_300cm_s20_c1_cd-1_matched_a-20.wav","spherical","20","1","1","matched","-20","-20","1769"
"echo-presentation","33","552905","0.0-33.0","5d488733da9cb60001aa5895","60201dea606b8d5e5aa9e528","6020225f30812d5d30a4d649","Mozilla/5.0 (Windows NT 10.0; Win64; x64) AppleWebKit/537.36 (KHTML, like Gecko) Chrome/87.0.4280.141 Safari/537.36 OPR/73.0.3856.344","v1-up-stims","","","","","","","","-20,-10,0,10,20","media/audio/stims/spherical_300cm_s20_c1_cd-1_matched_a20.wav","spherical","20","1","1","matched","20","10","1960"
"echo-presentation","34","556069","0.0-34.0","5d488733da9cb60001aa5895","60201dea606b8d5e5aa9e528","6020225f30812d5d30a4d649","Mozilla/5.0 (Windows NT 10.0; Win64; x64) AppleWebKit/537.36 (KHTML, like Gecko) Chrome/87.0.4280.141 Safari/537.36 OPR/73.0.3856.344","v1-up-stims","","","","","","","","-20,-10,0,10,20","media/audio/stims/spherical_300cm_s20_c1_cd-1_matched_a0.wav","spherical","20","1","1","matched","0","0","1732"
"echo-presentation","35","559520","0.0-35.0","5d488733da9cb60001aa5895","60201dea606b8d5e5aa9e528","6020225f30812d5d30a4d649","Mozilla/5.0 (Windows NT 10.0; Win64; x64) AppleWebKit/537.36 (KHTML, like Gecko) Chrome/87.0.4280.141 Safari/537.36 OPR/73.0.3856.344","v1-up-stims","","","","","","","","-20,-10,0,10,20","media/audio/stims/spherical_300cm_s20_c1_cd-1_matched_a0.wav","spherical","20","1","1","matched","0","0","1773"
"echo-presentation","36","562996","0.0-36.0","5d488733da9cb60001aa5895","60201dea606b8d5e5aa9e528","6020225f30812d5d30a4d649","Mozilla/5.0 (Windows NT 10.0; Win64; x64) AppleWebKit/537.36 (KHTML, like Gecko) Chrome/87.0.4280.141 Safari/537.36 OPR/73.0.3856.344","v1-up-stims","","","","","","","","-20,-10,0,10,20","media/audio/stims/spherical_300cm_s20_c1_cd-1_matched_a10.wav","spherical","20","1","1","matched","10","20","2030"
"echo-presentation","37","566501","0.0-37.0","5d488733da9cb60001aa5895","60201dea606b8d5e5aa9e528","6020225f30812d5d30a4d649","Mozilla/5.0 (Windows NT 10.0; Win64; x64) AppleWebKit/537.36 (KHTML, like Gecko) Chrome/87.0.4280.141 Safari/537.36 OPR/73.0.3856.344","v1-up-stims","","","","","","","","-20,-10,0,10,20","media/audio/stims/spherical_300cm_s20_c1_cd-1_matched_a0.wav","spherical","20","1","1","matched","0","0","1624"
"echo-presentation","38","569460","0.0-38.0","5d488733da9cb60001aa5895","60201dea606b8d5e5aa9e528","6020225f30812d5d30a4d649","Mozilla/5.0 (Windows NT 10.0; Win64; x64) AppleWebKit/537.36 (KHTML, like Gecko) Chrome/87.0.4280.141 Safari/537.36 OPR/73.0.3856.344","v1-up-stims","","","","","","","","-20,-10,0,10,20","media/audio/stims/spherical_300cm_s20_c1_cd-1_matched_a-10.wav","spherical","20","1","1","matched","-10","-20","1522"
"echo-presentation","39","572753","0.0-39.0","5d488733da9cb60001aa5895","60201dea606b8d5e5aa9e528","6020225f30812d5d30a4d649","Mozilla/5.0 (Windows NT 10.0; Win64; x64) AppleWebKit/537.36 (KHTML, like Gecko) Chrome/87.0.4280.141 Safari/537.36 OPR/73.0.3856.344","v1-up-stims","","","","","","","","-20,-10,0,10,20","media/audio/stims/spherical_300cm_s20_c1_cd-1_matched_a-10.wav","spherical","20","1","1","matched","-10","-20","1328"
"echo-presentation","40","576084","0.0-40.0","5d488733da9cb60001aa5895","60201dea606b8d5e5aa9e528","6020225f30812d5d30a4d649","Mozilla/5.0 (Windows NT 10.0; Win64; x64) AppleWebKit/537.36 (KHTML, like Gecko) Chrome/87.0.4280.141 Safari/537.36 OPR/73.0.3856.344","v1-up-stims","","","","","","","","-20,-10,0,10,20","media/audio/stims/spherical_300cm_s20_c1_cd-1_matched_a20.wav","spherical","20","1","1","matched","20","10","1602"
"echo-presentation","41","579427","0.0-41.0","5d488733da9cb60001aa5895","60201dea606b8d5e5aa9e528","6020225f30812d5d30a4d649","Mozilla/5.0 (Windows NT 10.0; Win64; x64) AppleWebKit/537.36 (KHTML, like Gecko) Chrome/87.0.4280.141 Safari/537.36 OPR/73.0.3856.344","v1-up-stims","","","","","","","","-20,-10,0,10,20","media/audio/stims/spherical_300cm_s20_c1_cd-1_matched_a0.wav","spherical","20","1","1","matched","0","0","1522"
"echo-presentation","42","582710","0.0-42.0","5d488733da9cb60001aa5895","60201dea606b8d5e5aa9e528","6020225f30812d5d30a4d649","Mozilla/5.0 (Windows NT 10.0; Win64; x64) AppleWebKit/537.36 (KHTML, like Gecko) Chrome/87.0.4280.141 Safari/537.36 OPR/73.0.3856.344","v1-up-stims","","","","","","","","-20,-10,0,10,20","media/audio/stims/spherical_300cm_s20_c1_cd-1_matched_a10.wav","spherical","20","1","1","matched","10","10","1938"
"echo-presentation","43","585508","0.0-43.0","5d488733da9cb60001aa5895","60201dea606b8d5e5aa9e528","6020225f30812d5d30a4d649","Mozilla/5.0 (Windows NT 10.0; Win64; x64) AppleWebKit/537.36 (KHTML, like Gecko) Chrome/87.0.4280.141 Safari/537.36 OPR/73.0.3856.344","v1-up-stims","","","","","","","","-20,-10,0,10,20","media/audio/stims/spherical_300cm_s20_c1_cd-1_matched_a10.wav","spherical","20","1","1","matched","10","10","1553"
"echo-presentation","44","588994","0.0-44.0","5d488733da9cb60001aa5895","60201dea606b8d5e5aa9e528","6020225f30812d5d30a4d649","Mozilla/5.0 (Windows NT 10.0; Win64; x64) AppleWebKit/537.36 (KHTML, like Gecko) Chrome/87.0.4280.141 Safari/537.36 OPR/73.0.3856.344","v1-up-stims","","","","","","","","-20,-10,0,10,20","media/audio/stims/spherical_300cm_s20_c1_cd-1_matched_a-20.wav","spherical","20","1","1","matched","-20","-10","2244"
"echo-presentation","45","592161","0.0-45.0","5d488733da9cb60001aa5895","60201dea606b8d5e5aa9e528","6020225f30812d5d30a4d649","Mozilla/5.0 (Windows NT 10.0; Win64; x64) AppleWebKit/537.36 (KHTML, like Gecko) Chrome/87.0.4280.141 Safari/537.36 OPR/73.0.3856.344","v1-up-stims","","","","","","","","-20,-10,0,10,20","media/audio/stims/spherical_300cm_s20_c1_cd-1_matched_a-20.wav","spherical","20","1","1","matched","-20","-20","1698"
"echo-presentation","46","594928","0.0-46.0","5d488733da9cb60001aa5895","60201dea606b8d5e5aa9e528","6020225f30812d5d30a4d649","Mozilla/5.0 (Windows NT 10.0; Win64; x64) AppleWebKit/537.36 (KHTML, like Gecko) Chrome/87.0.4280.141 Safari/537.36 OPR/73.0.3856.344","v1-up-stims","","","","","","","","-20,-10,0,10,20","media/audio/stims/spherical_300cm_s20_c1_cd-1_matched_a-10.wav","spherical","20","1","1","matched","-10","-10","1641"
"echo-presentation","47","597954","0.0-47.0","5d488733da9cb60001aa5895","60201dea606b8d5e5aa9e528","6020225f30812d5d30a4d649","Mozilla/5.0 (Windows NT 10.0; Win64; x64) AppleWebKit/537.36 (KHTML, like Gecko) Chrome/87.0.4280.141 Safari/537.36 OPR/73.0.3856.344","v1-up-stims","","","","","","","","-20,-10,0,10,20","media/audio/stims/spherical_300cm_s20_c1_cd-1_matched_a20.wav","spherical","20","1","1","matched","20","10","1726"
"echo-presentation","48","600328","0.0-48.0","5d488733da9cb60001aa5895","60201dea606b8d5e5aa9e528","6020225f30812d5d30a4d649","Mozilla/5.0 (Windows NT 10.0; Win64; x64) AppleWebKit/537.36 (KHTML, like Gecko) Chrome/87.0.4280.141 Safari/537.36 OPR/73.0.3856.344","v1-up-stims","","","","","","","","-20,-10,0,10,20","media/audio/stims/spherical_300cm_s20_c1_cd-1_matched_a-10.wav","spherical","20","1","1","matched","-10","-20","1565"
"echo-presentation","49","602828","0.0-49.0","5d488733da9cb60001aa5895","60201dea606b8d5e5aa9e528","6020225f30812d5d30a4d649","Mozilla/5.0 (Windows NT 10.0; Win64; x64) AppleWebKit/537.36 (KHTML, like Gecko) Chrome/87.0.4280.141 Safari/537.36 OPR/73.0.3856.344","v1-up-stims","","","","","","","","-20,-10,0,10,20","media/audio/stims/spherical_300cm_s20_c1_cd-1_matched_a10.wav","spherical","20","1","1","matched","10","20","1543"
"block-bookend","50","604773","0.0-50.0","5d488733da9cb60001aa5895","60201dea606b8d5e5aa9e528","6020225f30812d5d30a4d649","Mozilla/5.0 (Windows NT 10.0; Win64; x64) AppleWebKit/537.36 (KHTML, like Gecko) Chrome/87.0.4280.141 Safari/537.36 OPR/73.0.3856.344","v1-up-stims","","","","","","","","","","","","","","","","",""
"block-bookend","51","614744","0.0-51.0","5d488733da9cb60001aa5895","60201dea606b8d5e5aa9e528","6020225f30812d5d30a4d649","Mozilla/5.0 (Windows NT 10.0; Win64; x64) AppleWebKit/537.36 (KHTML, like Gecko) Chrome/87.0.4280.141 Safari/537.36 OPR/73.0.3856.344","v1-up-stims","","","","","","","","","","","","","","","","",""
"echo-presentation","52","622428","0.0-52.0","5d488733da9cb60001aa5895","60201dea606b8d5e5aa9e528","6020225f30812d5d30a4d649","Mozilla/5.0 (Windows NT 10.0; Win64; x64) AppleWebKit/537.36 (KHTML, like Gecko) Chrome/87.0.4280.141 Safari/537.36 OPR/73.0.3856.344","v1-up-stims","","","","","","","","40,50,60,70,80","media/audio/stims/spherical_300cm_s20_c1_cd-1_matched_a40.wav","spherical","20","1","1","matched","40","70","5605"
"echo-presentation","53","626388","0.0-53.0","5d488733da9cb60001aa5895","60201dea606b8d5e5aa9e528","6020225f30812d5d30a4d649","Mozilla/5.0 (Windows NT 10.0; Win64; x64) AppleWebKit/537.36 (KHTML, like Gecko) Chrome/87.0.4280.141 Safari/537.36 OPR/73.0.3856.344","v1-up-stims","","","","","","","","40,50,60,70,80","media/audio/stims/spherical_300cm_s20_c1_cd-1_matched_a80.wav","spherical","20","1","1","matched","80","80","2037"
"echo-presentation","54","629928","0.0-54.0","5d488733da9cb60001aa5895","60201dea606b8d5e5aa9e528","6020225f30812d5d30a4d649","Mozilla/5.0 (Windows NT 10.0; Win64; x64) AppleWebKit/537.36 (KHTML, like Gecko) Chrome/87.0.4280.141 Safari/537.36 OPR/73.0.3856.344","v1-up-stims","","","","","","","","40,50,60,70,80","media/audio/stims/spherical_300cm_s20_c1_cd-1_matched_a60.wav","spherical","20","1","1","matched","60","70","2454"
"echo-presentation","55","637415","0.0-55.0","5d488733da9cb60001aa5895","60201dea606b8d5e5aa9e528","6020225f30812d5d30a4d649","Mozilla/5.0 (Windows NT 10.0; Win64; x64) AppleWebKit/537.36 (KHTML, like Gecko) Chrome/87.0.4280.141 Safari/537.36 OPR/73.0.3856.344","v1-up-stims","","","","","","","","40,50,60,70,80","media/audio/stims/spherical_300cm_s20_c1_cd-1_matched_a70.wav","spherical","20","1","1","matched","70","60","2619"
"echo-presentation","56","640240","0.0-56.0","5d488733da9cb60001aa5895","60201dea606b8d5e5aa9e528","6020225f30812d5d30a4d649","Mozilla/5.0 (Windows NT 10.0; Win64; x64) AppleWebKit/537.36 (KHTML, like Gecko) Chrome/87.0.4280.141 Safari/537.36 OPR/73.0.3856.344","v1-up-stims","","","","","","","","40,50,60,70,80","media/audio/stims/spherical_300cm_s20_c1_cd-1_matched_a40.wav","spherical","20","1","1","matched","40","70","1638"
"echo-presentation","57","643798","0.0-57.0","5d488733da9cb60001aa5895","60201dea606b8d5e5aa9e528","6020225f30812d5d30a4d649","Mozilla/5.0 (Windows NT 10.0; Win64; x64) AppleWebKit/537.36 (KHTML, like Gecko) Chrome/87.0.4280.141 Safari/537.36 OPR/73.0.3856.344","v1-up-stims","","","","","","","","40,50,60,70,80","media/audio/stims/spherical_300cm_s20_c1_cd-1_matched_a60.wav","spherical","20","1","1","matched","60","80","2451"
"echo-presentation","58","647438","0.0-58.0","5d488733da9cb60001aa5895","60201dea606b8d5e5aa9e528","6020225f30812d5d30a4d649","Mozilla/5.0 (Windows NT 10.0; Win64; x64) AppleWebKit/537.36 (KHTML, like Gecko) Chrome/87.0.4280.141 Safari/537.36 OPR/73.0.3856.344","v1-up-stims","","","","","","","","40,50,60,70,80","media/audio/stims/spherical_300cm_s20_c1_cd-1_matched_a50.wav","spherical","20","1","1","matched","50","80","2140"
"echo-presentation","59","649990","0.0-59.0","5d488733da9cb60001aa5895","60201dea606b8d5e5aa9e528","6020225f30812d5d30a4d649","Mozilla/5.0 (Windows NT 10.0; Win64; x64) AppleWebKit/537.36 (KHTML, like Gecko) Chrome/87.0.4280.141 Safari/537.36 OPR/73.0.3856.344","v1-up-stims","","","","","","","","40,50,60,70,80","media/audio/stims/spherical_300cm_s20_c1_cd-1_matched_a50.wav","spherical","20","1","1","matched","50","80","1370"
"echo-presentation","60","654878","0.0-60.0","5d488733da9cb60001aa5895","60201dea606b8d5e5aa9e528","6020225f30812d5d30a4d649","Mozilla/5.0 (Windows NT 10.0; Win64; x64) AppleWebKit/537.36 (KHTML, like Gecko) Chrome/87.0.4280.141 Safari/537.36 OPR/73.0.3856.344","v1-up-stims","","","","","","","","40,50,60,70,80","media/audio/stims/spherical_300cm_s20_c1_cd-1_matched_a60.wav","spherical","20","1","1","matched","60","80","3510"
"echo-presentation","61","659825","0.0-61.0","5d488733da9cb60001aa5895","60201dea606b8d5e5aa9e528","6020225f30812d5d30a4d649","Mozilla/5.0 (Windows NT 10.0; Win64; x64) AppleWebKit/537.36 (KHTML, like Gecko) Chrome/87.0.4280.141 Safari/537.36 OPR/73.0.3856.344","v1-up-stims","","","","","","","","40,50,60,70,80","media/audio/stims/spherical_300cm_s20_c1_cd-1_matched_a40.wav","spherical","20","1","1","matched","40","60","2460"
"echo-presentation","62","663148","0.0-62.0","5d488733da9cb60001aa5895","60201dea606b8d5e5aa9e528","6020225f30812d5d30a4d649","Mozilla/5.0 (Windows NT 10.0; Win64; x64) AppleWebKit/537.36 (KHTML, like Gecko) Chrome/87.0.4280.141 Safari/537.36 OPR/73.0.3856.344","v1-up-stims","","","","","","","","40,50,60,70,80","media/audio/stims/spherical_300cm_s20_c1_cd-1_matched_a80.wav","spherical","20","1","1","matched","80","70","1926"
"echo-presentation","63","665935","0.0-63.0","5d488733da9cb60001aa5895","60201dea606b8d5e5aa9e528","6020225f30812d5d30a4d649","Mozilla/5.0 (Windows NT 10.0; Win64; x64) AppleWebKit/537.36 (KHTML, like Gecko) Chrome/87.0.4280.141 Safari/537.36 OPR/73.0.3856.344","v1-up-stims","","","","","","","","40,50,60,70,80","media/audio/stims/spherical_300cm_s20_c1_cd-1_matched_a70.wav","spherical","20","1","1","matched","70","70","1784"
"echo-presentation","64","669306","0.0-64.0","5d488733da9cb60001aa5895","60201dea606b8d5e5aa9e528","6020225f30812d5d30a4d649","Mozilla/5.0 (Windows NT 10.0; Win64; x64) AppleWebKit/537.36 (KHTML, like Gecko) Chrome/87.0.4280.141 Safari/537.36 OPR/73.0.3856.344","v1-up-stims","","","","","","","","40,50,60,70,80","media/audio/stims/spherical_300cm_s20_c1_cd-1_matched_a40.wav","spherical","20","1","1","matched","40","70","1708"
"echo-presentation","65","672402","0.0-65.0","5d488733da9cb60001aa5895","60201dea606b8d5e5aa9e528","6020225f30812d5d30a4d649","Mozilla/5.0 (Windows NT 10.0; Win64; x64) AppleWebKit/537.36 (KHTML, like Gecko) Chrome/87.0.4280.141 Safari/537.36 OPR/73.0.3856.344","v1-up-stims","","","","","","","","40,50,60,70,80","media/audio/stims/spherical_300cm_s20_c1_cd-1_matched_a80.wav","spherical","20","1","1","matched","80","70","1777"
"echo-presentation","66","675823","0.0-66.0","5d488733da9cb60001aa5895","60201dea606b8d5e5aa9e528","6020225f30812d5d30a4d649","Mozilla/5.0 (Windows NT 10.0; Win64; x64) AppleWebKit/537.36 (KHTML, like Gecko) Chrome/87.0.4280.141 Safari/537.36 OPR/73.0.3856.344","v1-up-stims","","","","","","","","40,50,60,70,80","media/audio/stims/spherical_300cm_s20_c1_cd-1_matched_a50.wav","spherical","20","1","1","matched","50","80","1745"
"echo-presentation","67","678563","0.0-67.0","5d488733da9cb60001aa5895","60201dea606b8d5e5aa9e528","6020225f30812d5d30a4d649","Mozilla/5.0 (Windows NT 10.0; Win64; x64) AppleWebKit/537.36 (KHTML, like Gecko) Chrome/87.0.4280.141 Safari/537.36 OPR/73.0.3856.344","v1-up-stims","","","","","","","","40,50,60,70,80","media/audio/stims/spherical_300cm_s20_c1_cd-1_matched_a50.wav","spherical","20","1","1","matched","50","80","1517"
"echo-presentation","68","680884","0.0-68.0","5d488733da9cb60001aa5895","60201dea606b8d5e5aa9e528","6020225f30812d5d30a4d649","Mozilla/5.0 (Windows NT 10.0; Win64; x64) AppleWebKit/537.36 (KHTML, like Gecko) Chrome/87.0.4280.141 Safari/537.36 OPR/73.0.3856.344","v1-up-stims","","","","","","","","40,50,60,70,80","media/audio/stims/spherical_300cm_s20_c1_cd-1_matched_a70.wav","spherical","20","1","1","matched","70","80","1439"
"echo-presentation","69","683731","0.0-69.0","5d488733da9cb60001aa5895","60201dea606b8d5e5aa9e528","6020225f30812d5d30a4d649","Mozilla/5.0 (Windows NT 10.0; Win64; x64) AppleWebKit/537.36 (KHTML, like Gecko) Chrome/87.0.4280.141 Safari/537.36 OPR/73.0.3856.344","v1-up-stims","","","","","","","","40,50,60,70,80","media/audio/stims/spherical_300cm_s20_c1_cd-1_matched_a60.wav","spherical","20","1","1","matched","60","80","1755"
"echo-presentation","70","686179","0.0-70.0","5d488733da9cb60001aa5895","60201dea606b8d5e5aa9e528","6020225f30812d5d30a4d649","Mozilla/5.0 (Windows NT 10.0; Win64; x64) AppleWebKit/537.36 (KHTML, like Gecko) Chrome/87.0.4280.141 Safari/537.36 OPR/73.0.3856.344","v1-up-stims","","","","","","","","40,50,60,70,80","media/audio/stims/spherical_300cm_s20_c1_cd-1_matched_a70.wav","spherical","20","1","1","matched","70","80","1531"
"echo-presentation","71","689341","0.0-71.0","5d488733da9cb60001aa5895","60201dea606b8d5e5aa9e528","6020225f30812d5d30a4d649","Mozilla/5.0 (Windows NT 10.0; Win64; x64) AppleWebKit/537.36 (KHTML, like Gecko) Chrome/87.0.4280.141 Safari/537.36 OPR/73.0.3856.344","v1-up-stims","","","","","","","","40,50,60,70,80","media/audio/stims/spherical_300cm_s20_c1_cd-1_matched_a80.wav","spherical","20","1","1","matched","80","80","1634"
"block-bookend","72","690874","0.0-72.0","5d488733da9cb60001aa5895","60201dea606b8d5e5aa9e528","6020225f30812d5d30a4d649","Mozilla/5.0 (Windows NT 10.0; Win64; x64) AppleWebKit/537.36 (KHTML, like Gecko) Chrome/87.0.4280.141 Safari/537.36 OPR/73.0.3856.344","v1-up-stims","","","","","","","","","","","","","","","","",""
"block-bookend","73","705570","0.0-73.0","5d488733da9cb60001aa5895","60201dea606b8d5e5aa9e528","6020225f30812d5d30a4d649","Mozilla/5.0 (Windows NT 10.0; Win64; x64) AppleWebKit/537.36 (KHTML, like Gecko) Chrome/87.0.4280.141 Safari/537.36 OPR/73.0.3856.344","v1-up-stims","","","","","","","","","","","","","","","","",""
"echo-presentation","74","711263","0.0-74.0","5d488733da9cb60001aa5895","60201dea606b8d5e5aa9e528","6020225f30812d5d30a4d649","Mozilla/5.0 (Windows NT 10.0; Win64; x64) AppleWebKit/537.36 (KHTML, like Gecko) Chrome/87.0.4280.141 Safari/537.36 OPR/73.0.3856.344","v1-up-stims","","","","","","","","40,50,60,70,80","media/audio/stims/spherical_300cm_s20_c1_cd-1_matched_a40.wav","spherical","20","1","1","matched","40","80","3812"
"echo-presentation","75","714933","0.0-75.0","5d488733da9cb60001aa5895","60201dea606b8d5e5aa9e528","6020225f30812d5d30a4d649","Mozilla/5.0 (Windows NT 10.0; Win64; x64) AppleWebKit/537.36 (KHTML, like Gecko) Chrome/87.0.4280.141 Safari/537.36 OPR/73.0.3856.344","v1-up-stims","","","","","","","","40,50,60,70,80","media/audio/stims/spherical_300cm_s20_c1_cd-1_matched_a80.wav","spherical","20","1","1","matched","80","80","2346"
"echo-presentation","76","717168","0.0-76.0","5d488733da9cb60001aa5895","60201dea606b8d5e5aa9e528","6020225f30812d5d30a4d649","Mozilla/5.0 (Windows NT 10.0; Win64; x64) AppleWebKit/537.36 (KHTML, like Gecko) Chrome/87.0.4280.141 Safari/537.36 OPR/73.0.3856.344","v1-up-stims","","","","","","","","40,50,60,70,80","media/audio/stims/spherical_300cm_s20_c1_cd-1_matched_a50.wav","spherical","20","1","1","matched","50","70","1585"
"echo-presentation","77","722398","0.0-77.0","5d488733da9cb60001aa5895","60201dea606b8d5e5aa9e528","6020225f30812d5d30a4d649","Mozilla/5.0 (Windows NT 10.0; Win64; x64) AppleWebKit/537.36 (KHTML, like Gecko) Chrome/87.0.4280.141 Safari/537.36 OPR/73.0.3856.344","v1-up-stims","","","","","","","","40,50,60,70,80","media/audio/stims/spherical_300cm_s20_c1_cd-1_matched_a60.wav","spherical","20","1","1","matched","60","70","3054"
"echo-presentation","78","728583","0.0-78.0","5d488733da9cb60001aa5895","60201dea606b8d5e5aa9e528","6020225f30812d5d30a4d649","Mozilla/5.0 (Windows NT 10.0; Win64; x64) AppleWebKit/537.36 (KHTML, like Gecko) Chrome/87.0.4280.141 Safari/537.36 OPR/73.0.3856.344","v1-up-stims","","","","","","","","40,50,60,70,80","media/audio/stims/spherical_300cm_s20_c1_cd-1_matched_a60.wav","spherical","20","1","1","matched","60","70","4885"
"echo-presentation","79","733114","0.0-79.0","5d488733da9cb60001aa5895","60201dea606b8d5e5aa9e528","6020225f30812d5d30a4d649","Mozilla/5.0 (Windows NT 10.0; Win64; x64) AppleWebKit/537.36 (KHTML, like Gecko) Chrome/87.0.4280.141 Safari/537.36 OPR/73.0.3856.344","v1-up-stims","","","","","","","","40,50,60,70,80","media/audio/stims/spherical_300cm_s20_c1_cd-1_matched_a50.wav","spherical","20","1","1","matched","50","70","2618"
"echo-presentation","80","735298","0.0-80.0","5d488733da9cb60001aa5895","60201dea606b8d5e5aa9e528","6020225f30812d5d30a4d649","Mozilla/5.0 (Windows NT 10.0; Win64; x64) AppleWebKit/537.36 (KHTML, like Gecko) Chrome/87.0.4280.141 Safari/537.36 OPR/73.0.3856.344","v1-up-stims","","","","","","","","40,50,60,70,80","media/audio/stims/spherical_300cm_s20_c1_cd-1_matched_a50.wav","spherical","20","1","1","matched","50","70","1564"
"echo-presentation","81","739972","0.0-81.0","5d488733da9cb60001aa5895","60201dea606b8d5e5aa9e528","6020225f30812d5d30a4d649","Mozilla/5.0 (Windows NT 10.0; Win64; x64) AppleWebKit/537.36 (KHTML, like Gecko) Chrome/87.0.4280.141 Safari/537.36 OPR/73.0.3856.344","v1-up-stims","","","","","","","","40,50,60,70,80","media/audio/stims/spherical_300cm_s20_c1_cd-1_matched_a60.wav","spherical","20","1","1","matched","60","60","1757"
"echo-presentation","82","742096","0.0-82.0","5d488733da9cb60001aa5895","60201dea606b8d5e5aa9e528","6020225f30812d5d30a4d649","Mozilla/5.0 (Windows NT 10.0; Win64; x64) AppleWebKit/537.36 (KHTML, like Gecko) Chrome/87.0.4280.141 Safari/537.36 OPR/73.0.3856.344","v1-up-stims","","","","","","","","40,50,60,70,80","media/audio/stims/spherical_300cm_s20_c1_cd-1_matched_a80.wav","spherical","20","1","1","matched","80","70","1352"
"echo-presentation","83","745056","0.0-83.0","5d488733da9cb60001aa5895","60201dea606b8d5e5aa9e528","6020225f30812d5d30a4d649","Mozilla/5.0 (Windows NT 10.0; Win64; x64) AppleWebKit/537.36 (KHTML, like Gecko) Chrome/87.0.4280.141 Safari/537.36 OPR/73.0.3856.344","v1-up-stims","","","","","","","","40,50,60,70,80","media/audio/stims/spherical_300cm_s20_c1_cd-1_matched_a40.wav","spherical","20","1","1","matched","40","60","2224"
"echo-presentation","84","751046","0.0-84.0","5d488733da9cb60001aa5895","60201dea606b8d5e5aa9e528","6020225f30812d5d30a4d649","Mozilla/5.0 (Windows NT 10.0; Win64; x64) AppleWebKit/537.36 (KHTML, like Gecko) Chrome/87.0.4280.141 Safari/537.36 OPR/73.0.3856.344","v1-up-stims","","","","","","","","40,50,60,70,80","media/audio/stims/spherical_300cm_s20_c1_cd-1_matched_a80.wav","spherical","20","1","1","matched","80","50","3823"
"echo-presentation","85","754393","0.0-85.0","5d488733da9cb60001aa5895","60201dea606b8d5e5aa9e528","6020225f30812d5d30a4d649","Mozilla/5.0 (Windows NT 10.0; Win64; x64) AppleWebKit/537.36 (KHTML, like Gecko) Chrome/87.0.4280.141 Safari/537.36 OPR/73.0.3856.344","v1-up-stims","","","","","","","","40,50,60,70,80","media/audio/stims/spherical_300cm_s20_c1_cd-1_matched_a80.wav","spherical","20","1","1","matched","80","80","1696"
"echo-presentation","86","757716","0.0-86.0","5d488733da9cb60001aa5895","60201dea606b8d5e5aa9e528","6020225f30812d5d30a4d649","Mozilla/5.0 (Windows NT 10.0; Win64; x64) AppleWebKit/537.36 (KHTML, like Gecko) Chrome/87.0.4280.141 Safari/537.36 OPR/73.0.3856.344","v1-up-stims","","","","","","","","40,50,60,70,80","media/audio/stims/spherical_300cm_s20_c1_cd-1_matched_a70.wav","spherical","20","1","1","matched","70","50","2383"
"echo-presentation","87","759584","0.0-87.0","5d488733da9cb60001aa5895","60201dea606b8d5e5aa9e528","6020225f30812d5d30a4d649","Mozilla/5.0 (Windows NT 10.0; Win64; x64) AppleWebKit/537.36 (KHTML, like Gecko) Chrome/87.0.4280.141 Safari/537.36 OPR/73.0.3856.344","v1-up-stims","","","","","","","","40,50,60,70,80","media/audio/stims/spherical_300cm_s20_c1_cd-1_matched_a50.wav","spherical","20","1","1","matched","50","70","1325"
"echo-presentation","88","761735","0.0-88.0","5d488733da9cb60001aa5895","60201dea606b8d5e5aa9e528","6020225f30812d5d30a4d649","Mozilla/5.0 (Windows NT 10.0; Win64; x64) AppleWebKit/537.36 (KHTML, like Gecko) Chrome/87.0.4280.141 Safari/537.36 OPR/73.0.3856.344","v1-up-stims","","","","","","","","40,50,60,70,80","media/audio/stims/spherical_300cm_s20_c1_cd-1_matched_a40.wav","spherical","20","1","1","matched","40","80","1548"
"echo-presentation","89","765019","0.0-89.0","5d488733da9cb60001aa5895","60201dea606b8d5e5aa9e528","6020225f30812d5d30a4d649","Mozilla/5.0 (Windows NT 10.0; Win64; x64) AppleWebKit/537.36 (KHTML, like Gecko) Chrome/87.0.4280.141 Safari/537.36 OPR/73.0.3856.344","v1-up-stims","","","","","","","","40,50,60,70,80","media/audio/stims/spherical_300cm_s20_c1_cd-1_matched_a60.wav","spherical","20","1","1","matched","60","80","1318"
"echo-presentation","90","767661","0.0-90.0","5d488733da9cb60001aa5895","60201dea606b8d5e5aa9e528","6020225f30812d5d30a4d649","Mozilla/5.0 (Windows NT 10.0; Win64; x64) AppleWebKit/537.36 (KHTML, like Gecko) Chrome/87.0.4280.141 Safari/537.36 OPR/73.0.3856.344","v1-up-stims","","","","","","","","40,50,60,70,80","media/audio/stims/spherical_300cm_s20_c1_cd-1_matched_a70.wav","spherical","20","1","1","matched","70","80","1465"
"echo-presentation","91","771730","0.0-91.0","5d488733da9cb60001aa5895","60201dea606b8d5e5aa9e528","6020225f30812d5d30a4d649","Mozilla/5.0 (Windows NT 10.0; Win64; x64) AppleWebKit/537.36 (KHTML, like Gecko) Chrome/87.0.4280.141 Safari/537.36 OPR/73.0.3856.344","v1-up-stims","","","","","","","","40,50,60,70,80","media/audio/stims/spherical_300cm_s20_c1_cd-1_matched_a40.wav","spherical","20","1","1","matched","40","80","1295"
"echo-presentation","92","774024","0.0-92.0","5d488733da9cb60001aa5895","60201dea606b8d5e5aa9e528","6020225f30812d5d30a4d649","Mozilla/5.0 (Windows NT 10.0; Win64; x64) AppleWebKit/537.36 (KHTML, like Gecko) Chrome/87.0.4280.141 Safari/537.36 OPR/73.0.3856.344","v1-up-stims","","","","","","","","40,50,60,70,80","media/audio/stims/spherical_300cm_s20_c1_cd-1_matched_a70.wav","spherical","20","1","1","matched","70","80","1187"
"echo-presentation","93","775589","0.0-93.0","5d488733da9cb60001aa5895","60201dea606b8d5e5aa9e528","6020225f30812d5d30a4d649","Mozilla/5.0 (Windows NT 10.0; Win64; x64) AppleWebKit/537.36 (KHTML, like Gecko) Chrome/87.0.4280.141 Safari/537.36 OPR/73.0.3856.344","v1-up-stims","","","","","","","","40,50,60,70,80","media/audio/stims/spherical_300cm_s20_c1_cd-1_matched_a70.wav","spherical","20","1","1","matched","70","80","894"
"block-bookend","94","777644","0.0-94.0","5d488733da9cb60001aa5895","60201dea606b8d5e5aa9e528","6020225f30812d5d30a4d649","Mozilla/5.0 (Windows NT 10.0; Win64; x64) AppleWebKit/537.36 (KHTML, like Gecko) Chrome/87.0.4280.141 Safari/537.36 OPR/73.0.3856.344","v1-up-stims","","","","","","","","","","","","","","","","",""
"block-bookend","95","791895","0.0-95.0","5d488733da9cb60001aa5895","60201dea606b8d5e5aa9e528","6020225f30812d5d30a4d649","Mozilla/5.0 (Windows NT 10.0; Win64; x64) AppleWebKit/537.36 (KHTML, like Gecko) Chrome/87.0.4280.141 Safari/537.36 OPR/73.0.3856.344","v1-up-stims","","","","","","","","","","","","","","","","",""
"echo-presentation","96","796355","0.0-96.0","5d488733da9cb60001aa5895","60201dea606b8d5e5aa9e528","6020225f30812d5d30a4d649","Mozilla/5.0 (Windows NT 10.0; Win64; x64) AppleWebKit/537.36 (KHTML, like Gecko) Chrome/87.0.4280.141 Safari/537.36 OPR/73.0.3856.344","v1-up-stims","","","","","","","","-80,-70,-60,-50,-40","media/audio/stims/spherical_300cm_s20_c1_cd-1_matched_a-60.wav","spherical","20","1","1","matched","-60","-80","1620"
"echo-presentation","97","800523","0.0-97.0","5d488733da9cb60001aa5895","60201dea606b8d5e5aa9e528","6020225f30812d5d30a4d649","Mozilla/5.0 (Windows NT 10.0; Win64; x64) AppleWebKit/537.36 (KHTML, like Gecko) Chrome/87.0.4280.141 Safari/537.36 OPR/73.0.3856.344","v1-up-stims","","","","","","","","-80,-70,-60,-50,-40","media/audio/stims/spherical_300cm_s20_c1_cd-1_matched_a-80.wav","spherical","20","1","1","matched","-80","-80","1727"
"echo-presentation","98","803501","0.0-98.0","5d488733da9cb60001aa5895","60201dea606b8d5e5aa9e528","6020225f30812d5d30a4d649","Mozilla/5.0 (Windows NT 10.0; Win64; x64) AppleWebKit/537.36 (KHTML, like Gecko) Chrome/87.0.4280.141 Safari/537.36 OPR/73.0.3856.344","v1-up-stims","","","","","","","","-80,-70,-60,-50,-40","media/audio/stims/spherical_300cm_s20_c1_cd-1_matched_a-70.wav","spherical","20","1","1","matched","-70","-80","1469"
"echo-presentation","99","805466","0.0-99.0","5d488733da9cb60001aa5895","60201dea606b8d5e5aa9e528","6020225f30812d5d30a4d649","Mozilla/5.0 (Windows NT 10.0; Win64; x64) AppleWebKit/537.36 (KHTML, like Gecko) Chrome/87.0.4280.141 Safari/537.36 OPR/73.0.3856.344","v1-up-stims","","","","","","","","-80,-70,-60,-50,-40","media/audio/stims/spherical_300cm_s20_c1_cd-1_matched_a-50.wav","spherical","20","1","1","matched","-50","-80","1132"
"echo-presentation","100","807184","0.0-100.0","5d488733da9cb60001aa5895","60201dea606b8d5e5aa9e528","6020225f30812d5d30a4d649","Mozilla/5.0 (Windows NT 10.0; Win64; x64) AppleWebKit/537.36 (KHTML, like Gecko) Chrome/87.0.4280.141 Safari/537.36 OPR/73.0.3856.344","v1-up-stims","","","","","","","","-80,-70,-60,-50,-40","media/audio/stims/spherical_300cm_s20_c1_cd-1_matched_a-40.wav","spherical","20","1","1","matched","-40","-70","1196"
"echo-presentation","101","810182","0.0-101.0","5d488733da9cb60001aa5895","60201dea606b8d5e5aa9e528","6020225f30812d5d30a4d649","Mozilla/5.0 (Windows NT 10.0; Win64; x64) AppleWebKit/537.36 (KHTML, like Gecko) Chrome/87.0.4280.141 Safari/537.36 OPR/73.0.3856.344","v1-up-stims","","","","","","","","-80,-70,-60,-50,-40","media/audio/stims/spherical_300cm_s20_c1_cd-1_matched_a-40.wav","spherical","20","1","1","matched","-40","-60","1476"
"echo-presentation","102","812323","0.0-102.0","5d488733da9cb60001aa5895","60201dea606b8d5e5aa9e528","6020225f30812d5d30a4d649","Mozilla/5.0 (Windows NT 10.0; Win64; x64) AppleWebKit/537.36 (KHTML, like Gecko) Chrome/87.0.4280.141 Safari/537.36 OPR/73.0.3856.344","v1-up-stims","","","","","","","","-80,-70,-60,-50,-40","media/audio/stims/spherical_300cm_s20_c1_cd-1_matched_a-70.wav","spherical","20","1","1","matched","-70","-70","1540"
"echo-presentation","103","815100","0.0-103.0","5d488733da9cb60001aa5895","60201dea606b8d5e5aa9e528","6020225f30812d5d30a4d649","Mozilla/5.0 (Windows NT 10.0; Win64; x64) AppleWebKit/537.36 (KHTML, like Gecko) Chrome/87.0.4280.141 Safari/537.36 OPR/73.0.3856.344","v1-up-stims","","","","","","","","-80,-70,-60,-50,-40","media/audio/stims/spherical_300cm_s20_c1_cd-1_matched_a-80.wav","spherical","20","1","1","matched","-80","-70","2018"
"echo-presentation","104","817684","0.0-104.0","5d488733da9cb60001aa5895","60201dea606b8d5e5aa9e528","6020225f30812d5d30a4d649","Mozilla/5.0 (Windows NT 10.0; Win64; x64) AppleWebKit/537.36 (KHTML, like Gecko) Chrome/87.0.4280.141 Safari/537.36 OPR/73.0.3856.344","v1-up-stims","","","","","","","","-80,-70,-60,-50,-40","media/audio/stims/spherical_300cm_s20_c1_cd-1_matched_a-60.wav","spherical","20","1","1","matched","-60","-70","1188"
"echo-presentation","105","819562","0.0-105.0","5d488733da9cb60001aa5895","60201dea606b8d5e5aa9e528","6020225f30812d5d30a4d649","Mozilla/5.0 (Windows NT 10.0; Win64; x64) AppleWebKit/537.36 (KHTML, like Gecko) Chrome/87.0.4280.141 Safari/537.36 OPR/73.0.3856.344","v1-up-stims","","","","","","","","-80,-70,-60,-50,-40","media/audio/stims/spherical_300cm_s20_c1_cd-1_matched_a-40.wav","spherical","20","1","1","matched","-40","-80","1252"
"echo-presentation","106","821433","0.0-106.0","5d488733da9cb60001aa5895","60201dea606b8d5e5aa9e528","6020225f30812d5d30a4d649","Mozilla/5.0 (Windows NT 10.0; Win64; x64) AppleWebKit/537.36 (KHTML, like Gecko) Chrome/87.0.4280.141 Safari/537.36 OPR/73.0.3856.344","v1-up-stims","","","","","","","","-80,-70,-60,-50,-40","media/audio/stims/spherical_300cm_s20_c1_cd-1_matched_a-40.wav","spherical","20","1","1","matched","-40","-80","1238"
"echo-presentation","107","823050","0.0-107.0","5d488733da9cb60001aa5895","60201dea606b8d5e5aa9e528","6020225f30812d5d30a4d649","Mozilla/5.0 (Windows NT 10.0; Win64; x64) AppleWebKit/537.36 (KHTML, like Gecko) Chrome/87.0.4280.141 Safari/537.36 OPR/73.0.3856.344","v1-up-stims","","","","","","","","-80,-70,-60,-50,-40","media/audio/stims/spherical_300cm_s20_c1_cd-1_matched_a-60.wav","spherical","20","1","1","matched","-60","-80","1081"
"echo-presentation","108","824741","0.0-108.0","5d488733da9cb60001aa5895","60201dea606b8d5e5aa9e528","6020225f30812d5d30a4d649","Mozilla/5.0 (Windows NT 10.0; Win64; x64) AppleWebKit/537.36 (KHTML, like Gecko) Chrome/87.0.4280.141 Safari/537.36 OPR/73.0.3856.344","v1-up-stims","","","","","","","","-80,-70,-60,-50,-40","media/audio/stims/spherical_300cm_s20_c1_cd-1_matched_a-50.wav","spherical","20","1","1","matched","-50","-80","1106"
"echo-presentation","109","826390","0.0-109.0","5d488733da9cb60001aa5895","60201dea606b8d5e5aa9e528","6020225f30812d5d30a4d649","Mozilla/5.0 (Windows NT 10.0; Win64; x64) AppleWebKit/537.36 (KHTML, like Gecko) Chrome/87.0.4280.141 Safari/537.36 OPR/73.0.3856.344","v1-up-stims","","","","","","","","-80,-70,-60,-50,-40","media/audio/stims/spherical_300cm_s20_c1_cd-1_matched_a-60.wav","spherical","20","1","1","matched","-60","-80","1109"
"echo-presentation","110","828855","0.0-110.0","5d488733da9cb60001aa5895","60201dea606b8d5e5aa9e528","6020225f30812d5d30a4d649","Mozilla/5.0 (Windows NT 10.0; Win64; x64) AppleWebKit/537.36 (KHTML, like Gecko) Chrome/87.0.4280.141 Safari/537.36 OPR/73.0.3856.344","v1-up-stims","","","","","","","","-80,-70,-60,-50,-40","media/audio/stims/spherical_300cm_s20_c1_cd-1_matched_a-80.wav","spherical","20","1","1","matched","-80","-80","1153"
"echo-presentation","111","831181","0.0-111.0","5d488733da9cb60001aa5895","60201dea606b8d5e5aa9e528","6020225f30812d5d30a4d649","Mozilla/5.0 (Windows NT 10.0; Win64; x64) AppleWebKit/537.36 (KHTML, like Gecko) Chrome/87.0.4280.141 Safari/537.36 OPR/73.0.3856.344","v1-up-stims","","","","","","","","-80,-70,-60,-50,-40","media/audio/stims/spherical_300cm_s20_c1_cd-1_matched_a-70.wav","spherical","20","1","1","matched","-70","-80","1310"
"echo-presentation","112","832951","0.0-112.0","5d488733da9cb60001aa5895","60201dea606b8d5e5aa9e528","6020225f30812d5d30a4d649","Mozilla/5.0 (Windows NT 10.0; Win64; x64) AppleWebKit/537.36 (KHTML, like Gecko) Chrome/87.0.4280.141 Safari/537.36 OPR/73.0.3856.344","v1-up-stims","","","","","","","","-80,-70,-60,-50,-40","media/audio/stims/spherical_300cm_s20_c1_cd-1_matched_a-50.wav","spherical","20","1","1","matched","-50","-70","1163"
"echo-presentation","113","835719","0.0-113.0","5d488733da9cb60001aa5895","60201dea606b8d5e5aa9e528","6020225f30812d5d30a4d649","Mozilla/5.0 (Windows NT 10.0; Win64; x64) AppleWebKit/537.36 (KHTML, like Gecko) Chrome/87.0.4280.141 Safari/537.36 OPR/73.0.3856.344","v1-up-stims","","","","","","","","-80,-70,-60,-50,-40","media/audio/stims/spherical_300cm_s20_c1_cd-1_matched_a-80.wav","spherical","20","1","1","matched","-80","-80","1042"
"echo-presentation","114","838245","0.0-114.0","5d488733da9cb60001aa5895","60201dea606b8d5e5aa9e528","6020225f30812d5d30a4d649","Mozilla/5.0 (Windows NT 10.0; Win64; x64) AppleWebKit/537.36 (KHTML, like Gecko) Chrome/87.0.4280.141 Safari/537.36 OPR/73.0.3856.344","v1-up-stims","","","","","","","","-80,-70,-60,-50,-40","media/audio/stims/spherical_300cm_s20_c1_cd-1_matched_a-70.wav","spherical","20","1","1","matched","-70","-80","1363"
"echo-presentation","115","841400","0.0-115.0","5d488733da9cb60001aa5895","60201dea606b8d5e5aa9e528","6020225f30812d5d30a4d649","Mozilla/5.0 (Windows NT 10.0; Win64; x64) AppleWebKit/537.36 (KHTML, like Gecko) Chrome/87.0.4280.141 Safari/537.36 OPR/73.0.3856.344","v1-up-stims","","","","","","","","-80,-70,-60,-50,-40","media/audio/stims/spherical_300cm_s20_c1_cd-1_matched_a-50.wav","spherical","20","1","1","matched","-50","-80","984"
"block-bookend","116","843584","0.0-116.0","5d488733da9cb60001aa5895","60201dea606b8d5e5aa9e528","6020225f30812d5d30a4d649","Mozilla/5.0 (Windows NT 10.0; Win64; x64) AppleWebKit/537.36 (KHTML, like Gecko) Chrome/87.0.4280.141 Safari/537.36 OPR/73.0.3856.344","v1-up-stims","","","","","","","","","","","","","","","","",""
"block-bookend","117","851780","0.0-117.0","5d488733da9cb60001aa5895","60201dea606b8d5e5aa9e528","6020225f30812d5d30a4d649","Mozilla/5.0 (Windows NT 10.0; Win64; x64) AppleWebKit/537.36 (KHTML, like Gecko) Chrome/87.0.4280.141 Safari/537.36 OPR/73.0.3856.344","v1-up-stims","","","","","","","","","","","","","","","","",""
"echo-presentation","118","856533","0.0-118.0","5d488733da9cb60001aa5895","60201dea606b8d5e5aa9e528","6020225f30812d5d30a4d649","Mozilla/5.0 (Windows NT 10.0; Win64; x64) AppleWebKit/537.36 (KHTML, like Gecko) Chrome/87.0.4280.141 Safari/537.36 OPR/73.0.3856.344","v1-up-stims","","","","","","","","-80,-70,-60,-50,-40","media/audio/stims/spherical_300cm_s20_c1_cd-1_matched_a-40.wav","spherical","20","1","1","matched","-40","-70","1551"
"echo-presentation","119","857988","0.0-119.0","5d488733da9cb60001aa5895","60201dea606b8d5e5aa9e528","6020225f30812d5d30a4d649","Mozilla/5.0 (Windows NT 10.0; Win64; x64) AppleWebKit/537.36 (KHTML, like Gecko) Chrome/87.0.4280.141 Safari/537.36 OPR/73.0.3856.344","v1-up-stims","","","","","","","","-80,-70,-60,-50,-40","media/audio/stims/spherical_300cm_s20_c1_cd-1_matched_a-60.wav","spherical","20","1","1","matched","-60","-80","890"
"echo-presentation","120","859898","0.0-120.0","5d488733da9cb60001aa5895","60201dea606b8d5e5aa9e528","6020225f30812d5d30a4d649","Mozilla/5.0 (Windows NT 10.0; Win64; x64) AppleWebKit/537.36 (KHTML, like Gecko) Chrome/87.0.4280.141 Safari/537.36 OPR/73.0.3856.344","v1-up-stims","","","","","","","","-80,-70,-60,-50,-40","media/audio/stims/spherical_300cm_s20_c1_cd-1_matched_a-80.wav","spherical","20","1","1","matched","-80","-70","1332"
"echo-presentation","121","862016","0.0-121.0","5d488733da9cb60001aa5895","60201dea606b8d5e5aa9e528","6020225f30812d5d30a4d649","Mozilla/5.0 (Windows NT 10.0; Win64; x64) AppleWebKit/537.36 (KHTML, like Gecko) Chrome/87.0.4280.141 Safari/537.36 OPR/73.0.3856.344","v1-up-stims","","","","","","","","-80,-70,-60,-50,-40","media/audio/stims/spherical_300cm_s20_c1_cd-1_matched_a-70.wav","spherical","20","1","1","matched","-70","-80","936"
"echo-presentation","122","869383","0.0-122.0","5d488733da9cb60001aa5895","60201dea606b8d5e5aa9e528","6020225f30812d5d30a4d649","Mozilla/5.0 (Windows NT 10.0; Win64; x64) AppleWebKit/537.36 (KHTML, like Gecko) Chrome/87.0.4280.141 Safari/537.36 OPR/73.0.3856.344","v1-up-stims","","","","","","","","-80,-70,-60,-50,-40","media/audio/stims/spherical_300cm_s20_c1_cd-1_matched_a-80.wav","spherical","20","1","1","matched","-80","-80","1310"
"echo-presentation","123","871616","0.0-123.0","5d488733da9cb60001aa5895","60201dea606b8d5e5aa9e528","6020225f30812d5d30a4d649","Mozilla/5.0 (Windows NT 10.0; Win64; x64) AppleWebKit/537.36 (KHTML, like Gecko) Chrome/87.0.4280.141 Safari/537.36 OPR/73.0.3856.344","v1-up-stims","","","","","","","","-80,-70,-60,-50,-40","media/audio/stims/spherical_300cm_s20_c1_cd-1_matched_a-50.wav","spherical","20","1","1","matched","-50","-70","1136"
"echo-presentation","124","873366","0.0-124.0","5d488733da9cb60001aa5895","60201dea606b8d5e5aa9e528","6020225f30812d5d30a4d649","Mozilla/5.0 (Windows NT 10.0; Win64; x64) AppleWebKit/537.36 (KHTML, like Gecko) Chrome/87.0.4280.141 Safari/537.36 OPR/73.0.3856.344","v1-up-stims","","","","","","","","-80,-70,-60,-50,-40","media/audio/stims/spherical_300cm_s20_c1_cd-1_matched_a-60.wav","spherical","20","1","1","matched","-60","-70","1237"
"echo-presentation","125","875511","0.0-125.0","5d488733da9cb60001aa5895","60201dea606b8d5e5aa9e528","6020225f30812d5d30a4d649","Mozilla/5.0 (Windows NT 10.0; Win64; x64) AppleWebKit/537.36 (KHTML, like Gecko) Chrome/87.0.4280.141 Safari/537.36 OPR/73.0.3856.344","v1-up-stims","","","","","","","","-80,-70,-60,-50,-40","media/audio/stims/spherical_300cm_s20_c1_cd-1_matched_a-50.wav","spherical","20","1","1","matched","-50","-80","1163"
"echo-presentation","126","877267","0.0-126.0","5d488733da9cb60001aa5895","60201dea606b8d5e5aa9e528","6020225f30812d5d30a4d649","Mozilla/5.0 (Windows NT 10.0; Win64; x64) AppleWebKit/537.36 (KHTML, like Gecko) Chrome/87.0.4280.141 Safari/537.36 OPR/73.0.3856.344","v1-up-stims","","","","","","","","-80,-70,-60,-50,-40","media/audio/stims/spherical_300cm_s20_c1_cd-1_matched_a-50.wav","spherical","20","1","1","matched","-50","-80","1216"
"echo-presentation","127","879485","0.0-127.0","5d488733da9cb60001aa5895","60201dea606b8d5e5aa9e528","6020225f30812d5d30a4d649","Mozilla/5.0 (Windows NT 10.0; Win64; x64) AppleWebKit/537.36 (KHTML, like Gecko) Chrome/87.0.4280.141 Safari/537.36 OPR/73.0.3856.344","v1-up-stims","","","","","","","","-80,-70,-60,-50,-40","media/audio/stims/spherical_300cm_s20_c1_cd-1_matched_a-40.wav","spherical","20","1","1","matched","-40","-80","1105"
"echo-presentation","128","881166","0.0-128.0","5d488733da9cb60001aa5895","60201dea606b8d5e5aa9e528","6020225f30812d5d30a4d649","Mozilla/5.0 (Windows NT 10.0; Win64; x64) AppleWebKit/537.36 (KHTML, like Gecko) Chrome/87.0.4280.141 Safari/537.36 OPR/73.0.3856.344","v1-up-stims","","","","","","","","-80,-70,-60,-50,-40","media/audio/stims/spherical_300cm_s20_c1_cd-1_matched_a-80.wav","spherical","20","1","1","matched","-80","-80","1021"
"echo-presentation","129","882905","0.0-129.0","5d488733da9cb60001aa5895","60201dea606b8d5e5aa9e528","6020225f30812d5d30a4d649","Mozilla/5.0 (Windows NT 10.0; Win64; x64) AppleWebKit/537.36 (KHTML, like Gecko) Chrome/87.0.4280.141 Safari/537.36 OPR/73.0.3856.344","v1-up-stims","","","","","","","","-80,-70,-60,-50,-40","media/audio/stims/spherical_300cm_s20_c1_cd-1_matched_a-40.wav","spherical","20","1","1","matched","-40","-70","1200"
"echo-presentation","130","885483","0.0-130.0","5d488733da9cb60001aa5895","60201dea606b8d5e5aa9e528","6020225f30812d5d30a4d649","Mozilla/5.0 (Windows NT 10.0; Win64; x64) AppleWebKit/537.36 (KHTML, like Gecko) Chrome/87.0.4280.141 Safari/537.36 OPR/73.0.3856.344","v1-up-stims","","","","","","","","-80,-70,-60,-50,-40","media/audio/stims/spherical_300cm_s20_c1_cd-1_matched_a-60.wav","spherical","20","1","1","matched","-60","-70","1656"
"echo-presentation","131","887516","0.0-131.0","5d488733da9cb60001aa5895","60201dea606b8d5e5aa9e528","6020225f30812d5d30a4d649","Mozilla/5.0 (Windows NT 10.0; Win64; x64) AppleWebKit/537.36 (KHTML, like Gecko) Chrome/87.0.4280.141 Safari/537.36 OPR/73.0.3856.344","v1-up-stims","","","","","","","","-80,-70,-60,-50,-40","media/audio/stims/spherical_300cm_s20_c1_cd-1_matched_a-80.wav","spherical","20","1","1","matched","-80","-70","1064"
"echo-presentation","132","889036","0.0-132.0","5d488733da9cb60001aa5895","60201dea606b8d5e5aa9e528","6020225f30812d5d30a4d649","Mozilla/5.0 (Windows NT 10.0; Win64; x64) AppleWebKit/537.36 (KHTML, like Gecko) Chrome/87.0.4280.141 Safari/537.36 OPR/73.0.3856.344","v1-up-stims","","","","","","","","-80,-70,-60,-50,-40","media/audio/stims/spherical_300cm_s20_c1_cd-1_matched_a-50.wav","spherical","20","1","1","matched","-50","-70","947"
"echo-presentation","133","890534","0.0-133.0","5d488733da9cb60001aa5895","60201dea606b8d5e5aa9e528","6020225f30812d5d30a4d649","Mozilla/5.0 (Windows NT 10.0; Win64; x64) AppleWebKit/537.36 (KHTML, like Gecko) Chrome/87.0.4280.141 Safari/537.36 OPR/73.0.3856.344","v1-up-stims","","","","","","","","-80,-70,-60,-50,-40","media/audio/stims/spherical_300cm_s20_c1_cd-1_matched_a-70.wav","spherical","20","1","1","matched","-70","-70","927"
"echo-presentation","134","892474","0.0-134.0","5d488733da9cb60001aa5895","60201dea606b8d5e5aa9e528","6020225f30812d5d30a4d649","Mozilla/5.0 (Windows NT 10.0; Win64; x64) AppleWebKit/537.36 (KHTML, like Gecko) Chrome/87.0.4280.141 Safari/537.36 OPR/73.0.3856.344","v1-up-stims","","","","","","","","-80,-70,-60,-50,-40","media/audio/stims/spherical_300cm_s20_c1_cd-1_matched_a-70.wav","spherical","20","1","1","matched","-70","-70","1049"
"echo-presentation","135","894333","0.0-135.0","5d488733da9cb60001aa5895","60201dea606b8d5e5aa9e528","6020225f30812d5d30a4d649","Mozilla/5.0 (Windows NT 10.0; Win64; x64) AppleWebKit/537.36 (KHTML, like Gecko) Chrome/87.0.4280.141 Safari/537.36 OPR/73.0.3856.344","v1-up-stims","","","","","","","","-80,-70,-60,-50,-40","media/audio/stims/spherical_300cm_s20_c1_cd-1_matched_a-40.wav","spherical","20","1","1","matched","-40","-70","904"
"echo-presentation","136","895884","0.0-136.0","5d488733da9cb60001aa5895","60201dea606b8d5e5aa9e528","6020225f30812d5d30a4d649","Mozilla/5.0 (Windows NT 10.0; Win64; x64) AppleWebKit/537.36 (KHTML, like Gecko) Chrome/87.0.4280.141 Safari/537.36 OPR/73.0.3856.344","v1-up-stims","","","","","","","","-80,-70,-60,-50,-40","media/audio/stims/spherical_300cm_s20_c1_cd-1_matched_a-70.wav","spherical","20","1","1","matched","-70","-70","882"
"echo-presentation","137","898461","0.0-137.0","5d488733da9cb60001aa5895","60201dea606b8d5e5aa9e528","6020225f30812d5d30a4d649","Mozilla/5.0 (Windows NT 10.0; Win64; x64) AppleWebKit/537.36 (KHTML, like Gecko) Chrome/87.0.4280.141 Safari/537.36 OPR/73.0.3856.344","v1-up-stims","","","","","","","","-80,-70,-60,-50,-40","media/audio/stims/spherical_300cm_s20_c1_cd-1_matched_a-60.wav","spherical","20","1","1","matched","-60","-80","1209"
"block-bookend","138","899885","0.0-138.0","5d488733da9cb60001aa5895","60201dea606b8d5e5aa9e528","6020225f30812d5d30a4d649","Mozilla/5.0 (Windows NT 10.0; Win64; x64) AppleWebKit/537.36 (KHTML, like Gecko) Chrome/87.0.4280.141 Safari/537.36 OPR/73.0.3856.344","v1-up-stims","","","","","","","","","","","","","","","","",""
