"trial_type","trial_index","time_elapsed","internal_node_id","prolificPid","studyId","sessionId","userAgent","version","rt","stimulus","key_press","chosenKeyset","failureCount","testIndex","globalVolume","choices","filename","modelName","slowdown","compensation","compensationDescriptor","receiverOrientationType","azimuth","responseAzimuth","responseDelay"
"pavlovia","0","3","0.0-0.0","5f3d8b0bd9a75c164958578a","60201dea606b8d5e5aa9e528","6020225cef1d8d5ade433343","Mozilla/5.0 (Windows NT 10.0; Win64; x64) AppleWebKit/537.36 (KHTML, like Gecko) Chrome/88.0.4324.150 Safari/537.36 Edg/88.0.705.63","v1-up-stims","","","","","","","","","","","","","","","","",""
"html-keyboard-response","1","14537","0.0-1.0","5f3d8b0bd9a75c164958578a","60201dea606b8d5e5aa9e528","6020225cef1d8d5ade433343","Mozilla/5.0 (Windows NT 10.0; Win64; x64) AppleWebKit/537.36 (KHTML, like Gecko) Chrome/88.0.4324.150 Safari/537.36 Edg/88.0.705.63","v1-up-stims","14534.110000007786","<div><h1>Welcome!</h1><p>Press any key to continue.</p></div>","13","","","","","","","","","","","","","",""
"consent-form","2","24590","0.0-2.0","5f3d8b0bd9a75c164958578a","60201dea606b8d5e5aa9e528","6020225cef1d8d5ade433343","Mozilla/5.0 (Windows NT 10.0; Win64; x64) AppleWebKit/537.36 (KHTML, like Gecko) Chrome/88.0.4324.150 Safari/537.36 Edg/88.0.705.63","v1-up-stims","","","","","","","","","","","","","","","","",""
"keyset-select","3","50648","0.0-3.0","5f3d8b0bd9a75c164958578a","60201dea606b8d5e5aa9e528","6020225cef1d8d5ade433343","Mozilla/5.0 (Windows NT 10.0; Win64; x64) AppleWebKit/537.36 (KHTML, like Gecko) Chrome/88.0.4324.150 Safari/537.36 Edg/88.0.705.63","v1-up-stims","","","","left-hand","","","","","","","","","","","","",""
"headphone-check","4","93939","0.0-4.0","5f3d8b0bd9a75c164958578a","60201dea606b8d5e5aa9e528","6020225cef1d8d5ade433343","Mozilla/5.0 (Windows NT 10.0; Win64; x64) AppleWebKit/537.36 (KHTML, like Gecko) Chrome/88.0.4324.150 Safari/537.36 Edg/88.0.705.63","v1-up-stims","","","","","0","6","0.7","","","","","","","","","",""
"headphone-backwards-check","5","102237","0.0-5.0","5f3d8b0bd9a75c164958578a","60201dea606b8d5e5aa9e528","6020225cef1d8d5ade433343","Mozilla/5.0 (Windows NT 10.0; Win64; x64) AppleWebKit/537.36 (KHTML, like Gecko) Chrome/88.0.4324.150 Safari/537.36 Edg/88.0.705.63","v1-up-stims","","","","","0","","","","","","","","","","","",""
"training","6","152352","0.0-6.0","5f3d8b0bd9a75c164958578a","60201dea606b8d5e5aa9e528","6020225cef1d8d5ade433343","Mozilla/5.0 (Windows NT 10.0; Win64; x64) AppleWebKit/537.36 (KHTML, like Gecko) Chrome/88.0.4324.150 Safari/537.36 Edg/88.0.705.63","v1-up-stims","","","","","","","","","","","","","","","","",""
"block-bookend","7","161423","0.0-7.0","5f3d8b0bd9a75c164958578a","60201dea606b8d5e5aa9e528","6020225cef1d8d5ade433343","Mozilla/5.0 (Windows NT 10.0; Win64; x64) AppleWebKit/537.36 (KHTML, like Gecko) Chrome/88.0.4324.150 Safari/537.36 Edg/88.0.705.63","v1-up-stims","","","","","","","","","","","","","","","","",""
"echo-presentation","8","165275","0.0-8.0","5f3d8b0bd9a75c164958578a","60201dea606b8d5e5aa9e528","6020225cef1d8d5ade433343","Mozilla/5.0 (Windows NT 10.0; Win64; x64) AppleWebKit/537.36 (KHTML, like Gecko) Chrome/88.0.4324.150 Safari/537.36 Edg/88.0.705.63","v1-up-stims","","","","","","","","40,50,60,70,80","media/audio/stims/spherical_300cm_s20_c1_cd-1_matched_a70.wav","spherical","20","1","1","matched","70","80","1572"
"echo-presentation","9","170506","0.0-9.0","5f3d8b0bd9a75c164958578a","60201dea606b8d5e5aa9e528","6020225cef1d8d5ade433343","Mozilla/5.0 (Windows NT 10.0; Win64; x64) AppleWebKit/537.36 (KHTML, like Gecko) Chrome/88.0.4324.150 Safari/537.36 Edg/88.0.705.63","v1-up-stims","","","","","","","","40,50,60,70,80","media/audio/stims/spherical_300cm_s20_c1_cd-1_matched_a50.wav","spherical","20","1","1","matched","50","80","3726"
"echo-presentation","10","173159","0.0-10.0","5f3d8b0bd9a75c164958578a","60201dea606b8d5e5aa9e528","6020225cef1d8d5ade433343","Mozilla/5.0 (Windows NT 10.0; Win64; x64) AppleWebKit/537.36 (KHTML, like Gecko) Chrome/88.0.4324.150 Safari/537.36 Edg/88.0.705.63","v1-up-stims","","","","","","","","40,50,60,70,80","media/audio/stims/spherical_300cm_s20_c1_cd-1_matched_a40.wav","spherical","20","1","1","matched","40","80","1549"
"echo-presentation","11","175987","0.0-11.0","5f3d8b0bd9a75c164958578a","60201dea606b8d5e5aa9e528","6020225cef1d8d5ade433343","Mozilla/5.0 (Windows NT 10.0; Win64; x64) AppleWebKit/537.36 (KHTML, like Gecko) Chrome/88.0.4324.150 Safari/537.36 Edg/88.0.705.63","v1-up-stims","","","","","","","","40,50,60,70,80","media/audio/stims/spherical_300cm_s20_c1_cd-1_matched_a80.wav","spherical","20","1","1","matched","80","80","1574"
"echo-presentation","12","178626","0.0-12.0","5f3d8b0bd9a75c164958578a","60201dea606b8d5e5aa9e528","6020225cef1d8d5ade433343","Mozilla/5.0 (Windows NT 10.0; Win64; x64) AppleWebKit/537.36 (KHTML, like Gecko) Chrome/88.0.4324.150 Safari/537.36 Edg/88.0.705.63","v1-up-stims","","","","","","","","40,50,60,70,80","media/audio/stims/spherical_300cm_s20_c1_cd-1_matched_a80.wav","spherical","20","1","1","matched","80","80","1276"
"echo-presentation","13","181248","0.0-13.0","5f3d8b0bd9a75c164958578a","60201dea606b8d5e5aa9e528","6020225cef1d8d5ade433343","Mozilla/5.0 (Windows NT 10.0; Win64; x64) AppleWebKit/537.36 (KHTML, like Gecko) Chrome/88.0.4324.150 Safari/537.36 Edg/88.0.705.63","v1-up-stims","","","","","","","","40,50,60,70,80","media/audio/stims/spherical_300cm_s20_c1_cd-1_matched_a70.wav","spherical","20","1","1","matched","70","80","1445"
"echo-presentation","14","183424","0.0-14.0","5f3d8b0bd9a75c164958578a","60201dea606b8d5e5aa9e528","6020225cef1d8d5ade433343","Mozilla/5.0 (Windows NT 10.0; Win64; x64) AppleWebKit/537.36 (KHTML, like Gecko) Chrome/88.0.4324.150 Safari/537.36 Edg/88.0.705.63","v1-up-stims","","","","","","","","40,50,60,70,80","media/audio/stims/spherical_300cm_s20_c1_cd-1_matched_a50.wav","spherical","20","1","1","matched","50","80","1030"
"echo-presentation","15","185678","0.0-15.0","5f3d8b0bd9a75c164958578a","60201dea606b8d5e5aa9e528","6020225cef1d8d5ade433343","Mozilla/5.0 (Windows NT 10.0; Win64; x64) AppleWebKit/537.36 (KHTML, like Gecko) Chrome/88.0.4324.150 Safari/537.36 Edg/88.0.705.63","v1-up-stims","","","","","","","","40,50,60,70,80","media/audio/stims/spherical_300cm_s20_c1_cd-1_matched_a60.wav","spherical","20","1","1","matched","60","80","1351"
"echo-presentation","16","187716","0.0-16.0","5f3d8b0bd9a75c164958578a","60201dea606b8d5e5aa9e528","6020225cef1d8d5ade433343","Mozilla/5.0 (Windows NT 10.0; Win64; x64) AppleWebKit/537.36 (KHTML, like Gecko) Chrome/88.0.4324.150 Safari/537.36 Edg/88.0.705.63","v1-up-stims","","","","","","","","40,50,60,70,80","media/audio/stims/spherical_300cm_s20_c1_cd-1_matched_a40.wav","spherical","20","1","1","matched","40","80","967"
"echo-presentation","17","189858","0.0-17.0","5f3d8b0bd9a75c164958578a","60201dea606b8d5e5aa9e528","6020225cef1d8d5ade433343","Mozilla/5.0 (Windows NT 10.0; Win64; x64) AppleWebKit/537.36 (KHTML, like Gecko) Chrome/88.0.4324.150 Safari/537.36 Edg/88.0.705.63","v1-up-stims","","","","","","","","40,50,60,70,80","media/audio/stims/spherical_300cm_s20_c1_cd-1_matched_a40.wav","spherical","20","1","1","matched","40","80","1199"
"echo-presentation","18","191940","0.0-18.0","5f3d8b0bd9a75c164958578a","60201dea606b8d5e5aa9e528","6020225cef1d8d5ade433343","Mozilla/5.0 (Windows NT 10.0; Win64; x64) AppleWebKit/537.36 (KHTML, like Gecko) Chrome/88.0.4324.150 Safari/537.36 Edg/88.0.705.63","v1-up-stims","","","","","","","","40,50,60,70,80","media/audio/stims/spherical_300cm_s20_c1_cd-1_matched_a50.wav","spherical","20","1","1","matched","50","80","1069"
"echo-presentation","19","193962","0.0-19.0","5f3d8b0bd9a75c164958578a","60201dea606b8d5e5aa9e528","6020225cef1d8d5ade433343","Mozilla/5.0 (Windows NT 10.0; Win64; x64) AppleWebKit/537.36 (KHTML, like Gecko) Chrome/88.0.4324.150 Safari/537.36 Edg/88.0.705.63","v1-up-stims","","","","","","","","40,50,60,70,80","media/audio/stims/spherical_300cm_s20_c1_cd-1_matched_a80.wav","spherical","20","1","1","matched","80","80","1086"
"echo-presentation","20","196248","0.0-20.0","5f3d8b0bd9a75c164958578a","60201dea606b8d5e5aa9e528","6020225cef1d8d5ade433343","Mozilla/5.0 (Windows NT 10.0; Win64; x64) AppleWebKit/537.36 (KHTML, like Gecko) Chrome/88.0.4324.150 Safari/537.36 Edg/88.0.705.63","v1-up-stims","","","","","","","","40,50,60,70,80","media/audio/stims/spherical_300cm_s20_c1_cd-1_matched_a60.wav","spherical","20","1","1","matched","60","80","1278"
"echo-presentation","21","199504","0.0-21.0","5f3d8b0bd9a75c164958578a","60201dea606b8d5e5aa9e528","6020225cef1d8d5ade433343","Mozilla/5.0 (Windows NT 10.0; Win64; x64) AppleWebKit/537.36 (KHTML, like Gecko) Chrome/88.0.4324.150 Safari/537.36 Edg/88.0.705.63","v1-up-stims","","","","","","","","40,50,60,70,80","media/audio/stims/spherical_300cm_s20_c1_cd-1_matched_a60.wav","spherical","20","1","1","matched","60","80","2423"
"echo-presentation","22","201881","0.0-22.0","5f3d8b0bd9a75c164958578a","60201dea606b8d5e5aa9e528","6020225cef1d8d5ade433343","Mozilla/5.0 (Windows NT 10.0; Win64; x64) AppleWebKit/537.36 (KHTML, like Gecko) Chrome/88.0.4324.150 Safari/537.36 Edg/88.0.705.63","v1-up-stims","","","","","","","","40,50,60,70,80","media/audio/stims/spherical_300cm_s20_c1_cd-1_matched_a70.wav","spherical","20","1","1","matched","70","80","1245"
"echo-presentation","23","204255","0.0-23.0","5f3d8b0bd9a75c164958578a","60201dea606b8d5e5aa9e528","6020225cef1d8d5ade433343","Mozilla/5.0 (Windows NT 10.0; Win64; x64) AppleWebKit/537.36 (KHTML, like Gecko) Chrome/88.0.4324.150 Safari/537.36 Edg/88.0.705.63","v1-up-stims","","","","","","","","40,50,60,70,80","media/audio/stims/spherical_300cm_s20_c1_cd-1_matched_a50.wav","spherical","20","1","1","matched","50","80","1558"
"echo-presentation","24","206632","0.0-24.0","5f3d8b0bd9a75c164958578a","60201dea606b8d5e5aa9e528","6020225cef1d8d5ade433343","Mozilla/5.0 (Windows NT 10.0; Win64; x64) AppleWebKit/537.36 (KHTML, like Gecko) Chrome/88.0.4324.150 Safari/537.36 Edg/88.0.705.63","v1-up-stims","","","","","","","","40,50,60,70,80","media/audio/stims/spherical_300cm_s20_c1_cd-1_matched_a70.wav","spherical","20","1","1","matched","70","80","1318"
"echo-presentation","25","208593","0.0-25.0","5f3d8b0bd9a75c164958578a","60201dea606b8d5e5aa9e528","6020225cef1d8d5ade433343","Mozilla/5.0 (Windows NT 10.0; Win64; x64) AppleWebKit/537.36 (KHTML, like Gecko) Chrome/88.0.4324.150 Safari/537.36 Edg/88.0.705.63","v1-up-stims","","","","","","","","40,50,60,70,80","media/audio/stims/spherical_300cm_s20_c1_cd-1_matched_a80.wav","spherical","20","1","1","matched","80","80","911"
"echo-presentation","26","210447","0.0-26.0","5f3d8b0bd9a75c164958578a","60201dea606b8d5e5aa9e528","6020225cef1d8d5ade433343","Mozilla/5.0 (Windows NT 10.0; Win64; x64) AppleWebKit/537.36 (KHTML, like Gecko) Chrome/88.0.4324.150 Safari/537.36 Edg/88.0.705.63","v1-up-stims","","","","","","","","40,50,60,70,80","media/audio/stims/spherical_300cm_s20_c1_cd-1_matched_a60.wav","spherical","20","1","1","matched","60","80","967"
"echo-presentation","27","212173","0.0-27.0","5f3d8b0bd9a75c164958578a","60201dea606b8d5e5aa9e528","6020225cef1d8d5ade433343","Mozilla/5.0 (Windows NT 10.0; Win64; x64) AppleWebKit/537.36 (KHTML, like Gecko) Chrome/88.0.4324.150 Safari/537.36 Edg/88.0.705.63","v1-up-stims","","","","","","","","40,50,60,70,80","media/audio/stims/spherical_300cm_s20_c1_cd-1_matched_a40.wav","spherical","20","1","1","matched","40","80","975"
"block-bookend","28","214497","0.0-28.0","5f3d8b0bd9a75c164958578a","60201dea606b8d5e5aa9e528","6020225cef1d8d5ade433343","Mozilla/5.0 (Windows NT 10.0; Win64; x64) AppleWebKit/537.36 (KHTML, like Gecko) Chrome/88.0.4324.150 Safari/537.36 Edg/88.0.705.63","v1-up-stims","","","","","","","","","","","","","","","","",""
"block-bookend","29","221641","0.0-29.0","5f3d8b0bd9a75c164958578a","60201dea606b8d5e5aa9e528","6020225cef1d8d5ade433343","Mozilla/5.0 (Windows NT 10.0; Win64; x64) AppleWebKit/537.36 (KHTML, like Gecko) Chrome/88.0.4324.150 Safari/537.36 Edg/88.0.705.63","v1-up-stims","","","","","","","","","","","","","","","","",""
"echo-presentation","30","224288","0.0-30.0","5f3d8b0bd9a75c164958578a","60201dea606b8d5e5aa9e528","6020225cef1d8d5ade433343","Mozilla/5.0 (Windows NT 10.0; Win64; x64) AppleWebKit/537.36 (KHTML, like Gecko) Chrome/88.0.4324.150 Safari/537.36 Edg/88.0.705.63","v1-up-stims","","","","","","","","40,50,60,70,80","media/audio/stims/spherical_300cm_s20_c1_cd-1_matched_a70.wav","spherical","20","1","1","matched","70","80","1261"
"echo-presentation","31","232416","0.0-31.0","5f3d8b0bd9a75c164958578a","60201dea606b8d5e5aa9e528","6020225cef1d8d5ade433343","Mozilla/5.0 (Windows NT 10.0; Win64; x64) AppleWebKit/537.36 (KHTML, like Gecko) Chrome/88.0.4324.150 Safari/537.36 Edg/88.0.705.63","v1-up-stims","","","","","","","","40,50,60,70,80","media/audio/stims/spherical_300cm_s20_c1_cd-1_matched_a60.wav","spherical","20","1","1","matched","60","80","7030"
"echo-presentation","32","234978","0.0-32.0","5f3d8b0bd9a75c164958578a","60201dea606b8d5e5aa9e528","6020225cef1d8d5ade433343","Mozilla/5.0 (Windows NT 10.0; Win64; x64) AppleWebKit/537.36 (KHTML, like Gecko) Chrome/88.0.4324.150 Safari/537.36 Edg/88.0.705.63","v1-up-stims","","","","","","","","40,50,60,70,80","media/audio/stims/spherical_300cm_s20_c1_cd-1_matched_a80.wav","spherical","20","1","1","matched","80","80","1646"
"echo-presentation","33","236860","0.0-33.0","5f3d8b0bd9a75c164958578a","60201dea606b8d5e5aa9e528","6020225cef1d8d5ade433343","Mozilla/5.0 (Windows NT 10.0; Win64; x64) AppleWebKit/537.36 (KHTML, like Gecko) Chrome/88.0.4324.150 Safari/537.36 Edg/88.0.705.63","v1-up-stims","","","","","","","","40,50,60,70,80","media/audio/stims/spherical_300cm_s20_c1_cd-1_matched_a40.wav","spherical","20","1","1","matched","40","80","1039"
"echo-presentation","34","238715","0.0-34.0","5f3d8b0bd9a75c164958578a","60201dea606b8d5e5aa9e528","6020225cef1d8d5ade433343","Mozilla/5.0 (Windows NT 10.0; Win64; x64) AppleWebKit/537.36 (KHTML, like Gecko) Chrome/88.0.4324.150 Safari/537.36 Edg/88.0.705.63","v1-up-stims","","","","","","","","40,50,60,70,80","media/audio/stims/spherical_300cm_s20_c1_cd-1_matched_a60.wav","spherical","20","1","1","matched","60","80","1014"
"echo-presentation","35","240382","0.0-35.0","5f3d8b0bd9a75c164958578a","60201dea606b8d5e5aa9e528","6020225cef1d8d5ade433343","Mozilla/5.0 (Windows NT 10.0; Win64; x64) AppleWebKit/537.36 (KHTML, like Gecko) Chrome/88.0.4324.150 Safari/537.36 Edg/88.0.705.63","v1-up-stims","","","","","","","","40,50,60,70,80","media/audio/stims/spherical_300cm_s20_c1_cd-1_matched_a70.wav","spherical","20","1","1","matched","70","80","837"
"echo-presentation","36","242187","0.0-36.0","5f3d8b0bd9a75c164958578a","60201dea606b8d5e5aa9e528","6020225cef1d8d5ade433343","Mozilla/5.0 (Windows NT 10.0; Win64; x64) AppleWebKit/537.36 (KHTML, like Gecko) Chrome/88.0.4324.150 Safari/537.36 Edg/88.0.705.63","v1-up-stims","","","","","","","","40,50,60,70,80","media/audio/stims/spherical_300cm_s20_c1_cd-1_matched_a70.wav","spherical","20","1","1","matched","70","80","990"
"echo-presentation","37","243944","0.0-37.0","5f3d8b0bd9a75c164958578a","60201dea606b8d5e5aa9e528","6020225cef1d8d5ade433343","Mozilla/5.0 (Windows NT 10.0; Win64; x64) AppleWebKit/537.36 (KHTML, like Gecko) Chrome/88.0.4324.150 Safari/537.36 Edg/88.0.705.63","v1-up-stims","","","","","","","","40,50,60,70,80","media/audio/stims/spherical_300cm_s20_c1_cd-1_matched_a70.wav","spherical","20","1","1","matched","70","80","902"
"echo-presentation","38","245701","0.0-38.0","5f3d8b0bd9a75c164958578a","60201dea606b8d5e5aa9e528","6020225cef1d8d5ade433343","Mozilla/5.0 (Windows NT 10.0; Win64; x64) AppleWebKit/537.36 (KHTML, like Gecko) Chrome/88.0.4324.150 Safari/537.36 Edg/88.0.705.63","v1-up-stims","","","","","","","","40,50,60,70,80","media/audio/stims/spherical_300cm_s20_c1_cd-1_matched_a80.wav","spherical","20","1","1","matched","80","80","880"
"echo-presentation","39","247334","0.0-39.0","5f3d8b0bd9a75c164958578a","60201dea606b8d5e5aa9e528","6020225cef1d8d5ade433343","Mozilla/5.0 (Windows NT 10.0; Win64; x64) AppleWebKit/537.36 (KHTML, like Gecko) Chrome/88.0.4324.150 Safari/537.36 Edg/88.0.705.63","v1-up-stims","","","","","","","","40,50,60,70,80","media/audio/stims/spherical_300cm_s20_c1_cd-1_matched_a50.wav","spherical","20","1","1","matched","50","80","848"
"echo-presentation","40","249016","0.0-40.0","5f3d8b0bd9a75c164958578a","60201dea606b8d5e5aa9e528","6020225cef1d8d5ade433343","Mozilla/5.0 (Windows NT 10.0; Win64; x64) AppleWebKit/537.36 (KHTML, like Gecko) Chrome/88.0.4324.150 Safari/537.36 Edg/88.0.705.63","v1-up-stims","","","","","","","","40,50,60,70,80","media/audio/stims/spherical_300cm_s20_c1_cd-1_matched_a80.wav","spherical","20","1","1","matched","80","80","839"
"echo-presentation","41","250697","0.0-41.0","5f3d8b0bd9a75c164958578a","60201dea606b8d5e5aa9e528","6020225cef1d8d5ade433343","Mozilla/5.0 (Windows NT 10.0; Win64; x64) AppleWebKit/537.36 (KHTML, like Gecko) Chrome/88.0.4324.150 Safari/537.36 Edg/88.0.705.63","v1-up-stims","","","","","","","","40,50,60,70,80","media/audio/stims/spherical_300cm_s20_c1_cd-1_matched_a40.wav","spherical","20","1","1","matched","40","80","799"
"echo-presentation","42","252410","0.0-42.0","5f3d8b0bd9a75c164958578a","60201dea606b8d5e5aa9e528","6020225cef1d8d5ade433343","Mozilla/5.0 (Windows NT 10.0; Win64; x64) AppleWebKit/537.36 (KHTML, like Gecko) Chrome/88.0.4324.150 Safari/537.36 Edg/88.0.705.63","v1-up-stims","","","","","","","","40,50,60,70,80","media/audio/stims/spherical_300cm_s20_c1_cd-1_matched_a40.wav","spherical","20","1","1","matched","40","80","872"
"echo-presentation","43","254261","0.0-43.0","5f3d8b0bd9a75c164958578a","60201dea606b8d5e5aa9e528","6020225cef1d8d5ade433343","Mozilla/5.0 (Windows NT 10.0; Win64; x64) AppleWebKit/537.36 (KHTML, like Gecko) Chrome/88.0.4324.150 Safari/537.36 Edg/88.0.705.63","v1-up-stims","","","","","","","","40,50,60,70,80","media/audio/stims/spherical_300cm_s20_c1_cd-1_matched_a50.wav","spherical","20","1","1","matched","50","80","851"
"echo-presentation","44","256052","0.0-44.0","5f3d8b0bd9a75c164958578a","60201dea606b8d5e5aa9e528","6020225cef1d8d5ade433343","Mozilla/5.0 (Windows NT 10.0; Win64; x64) AppleWebKit/537.36 (KHTML, like Gecko) Chrome/88.0.4324.150 Safari/537.36 Edg/88.0.705.63","v1-up-stims","","","","","","","","40,50,60,70,80","media/audio/stims/spherical_300cm_s20_c1_cd-1_matched_a60.wav","spherical","20","1","1","matched","60","80","830"
"echo-presentation","45","257750","0.0-45.0","5f3d8b0bd9a75c164958578a","60201dea606b8d5e5aa9e528","6020225cef1d8d5ade433343","Mozilla/5.0 (Windows NT 10.0; Win64; x64) AppleWebKit/537.36 (KHTML, like Gecko) Chrome/88.0.4324.150 Safari/537.36 Edg/88.0.705.63","v1-up-stims","","","","","","","","40,50,60,70,80","media/audio/stims/spherical_300cm_s20_c1_cd-1_matched_a80.wav","spherical","20","1","1","matched","80","80","910"
"echo-presentation","46","259630","0.0-46.0","5f3d8b0bd9a75c164958578a","60201dea606b8d5e5aa9e528","6020225cef1d8d5ade433343","Mozilla/5.0 (Windows NT 10.0; Win64; x64) AppleWebKit/537.36 (KHTML, like Gecko) Chrome/88.0.4324.150 Safari/537.36 Edg/88.0.705.63","v1-up-stims","","","","","","","","40,50,60,70,80","media/audio/stims/spherical_300cm_s20_c1_cd-1_matched_a50.wav","spherical","20","1","1","matched","50","80","934"
"echo-presentation","47","261778","0.0-47.0","5f3d8b0bd9a75c164958578a","60201dea606b8d5e5aa9e528","6020225cef1d8d5ade433343","Mozilla/5.0 (Windows NT 10.0; Win64; x64) AppleWebKit/537.36 (KHTML, like Gecko) Chrome/88.0.4324.150 Safari/537.36 Edg/88.0.705.63","v1-up-stims","","","","","","","","40,50,60,70,80","media/audio/stims/spherical_300cm_s20_c1_cd-1_matched_a50.wav","spherical","20","1","1","matched","50","80","1341"
"echo-presentation","48","263891","0.0-48.0","5f3d8b0bd9a75c164958578a","60201dea606b8d5e5aa9e528","6020225cef1d8d5ade433343","Mozilla/5.0 (Windows NT 10.0; Win64; x64) AppleWebKit/537.36 (KHTML, like Gecko) Chrome/88.0.4324.150 Safari/537.36 Edg/88.0.705.63","v1-up-stims","","","","","","","","40,50,60,70,80","media/audio/stims/spherical_300cm_s20_c1_cd-1_matched_a60.wav","spherical","20","1","1","matched","60","80","1110"
"echo-presentation","49","265744","0.0-49.0","5f3d8b0bd9a75c164958578a","60201dea606b8d5e5aa9e528","6020225cef1d8d5ade433343","Mozilla/5.0 (Windows NT 10.0; Win64; x64) AppleWebKit/537.36 (KHTML, like Gecko) Chrome/88.0.4324.150 Safari/537.36 Edg/88.0.705.63","v1-up-stims","","","","","","","","40,50,60,70,80","media/audio/stims/spherical_300cm_s20_c1_cd-1_matched_a40.wav","spherical","20","1","1","matched","40","80","982"
"block-bookend","50","266906","0.0-50.0","5f3d8b0bd9a75c164958578a","60201dea606b8d5e5aa9e528","6020225cef1d8d5ade433343","Mozilla/5.0 (Windows NT 10.0; Win64; x64) AppleWebKit/537.36 (KHTML, like Gecko) Chrome/88.0.4324.150 Safari/537.36 Edg/88.0.705.63","v1-up-stims","","","","","","","","","","","","","","","","",""
"block-bookend","51","278600","0.0-51.0","5f3d8b0bd9a75c164958578a","60201dea606b8d5e5aa9e528","6020225cef1d8d5ade433343","Mozilla/5.0 (Windows NT 10.0; Win64; x64) AppleWebKit/537.36 (KHTML, like Gecko) Chrome/88.0.4324.150 Safari/537.36 Edg/88.0.705.63","v1-up-stims","","","","","","","","","","","","","","","","",""
"echo-presentation","52","281794","0.0-52.0","5f3d8b0bd9a75c164958578a","60201dea606b8d5e5aa9e528","6020225cef1d8d5ade433343","Mozilla/5.0 (Windows NT 10.0; Win64; x64) AppleWebKit/537.36 (KHTML, like Gecko) Chrome/88.0.4324.150 Safari/537.36 Edg/88.0.705.63","v1-up-stims","","","","","","","","-80,-70,-60,-50,-40","media/audio/stims/spherical_300cm_s20_c1_cd-1_matched_a-40.wav","spherical","20","1","1","matched","-40","-80","1495"
"echo-presentation","53","284446","0.0-53.0","5f3d8b0bd9a75c164958578a","60201dea606b8d5e5aa9e528","6020225cef1d8d5ade433343","Mozilla/5.0 (Windows NT 10.0; Win64; x64) AppleWebKit/537.36 (KHTML, like Gecko) Chrome/88.0.4324.150 Safari/537.36 Edg/88.0.705.63","v1-up-stims","","","","","","","","-80,-70,-60,-50,-40","media/audio/stims/spherical_300cm_s20_c1_cd-1_matched_a-40.wav","spherical","20","1","1","matched","-40","-80","1463"
"echo-presentation","54","286993","0.0-54.0","5f3d8b0bd9a75c164958578a","60201dea606b8d5e5aa9e528","6020225cef1d8d5ade433343","Mozilla/5.0 (Windows NT 10.0; Win64; x64) AppleWebKit/537.36 (KHTML, like Gecko) Chrome/88.0.4324.150 Safari/537.36 Edg/88.0.705.63","v1-up-stims","","","","","","","","-80,-70,-60,-50,-40","media/audio/stims/spherical_300cm_s20_c1_cd-1_matched_a-80.wav","spherical","20","1","1","matched","-80","-80","1727"
"echo-presentation","55","289106","0.0-55.0","5f3d8b0bd9a75c164958578a","60201dea606b8d5e5aa9e528","6020225cef1d8d5ade433343","Mozilla/5.0 (Windows NT 10.0; Win64; x64) AppleWebKit/537.36 (KHTML, like Gecko) Chrome/88.0.4324.150 Safari/537.36 Edg/88.0.705.63","v1-up-stims","","","","","","","","-80,-70,-60,-50,-40","media/audio/stims/spherical_300cm_s20_c1_cd-1_matched_a-60.wav","spherical","20","1","1","matched","-60","-80","1062"
"echo-presentation","56","291390","0.0-56.0","5f3d8b0bd9a75c164958578a","60201dea606b8d5e5aa9e528","6020225cef1d8d5ade433343","Mozilla/5.0 (Windows NT 10.0; Win64; x64) AppleWebKit/537.36 (KHTML, like Gecko) Chrome/88.0.4324.150 Safari/537.36 Edg/88.0.705.63","v1-up-stims","","","","","","","","-80,-70,-60,-50,-40","media/audio/stims/spherical_300cm_s20_c1_cd-1_matched_a-60.wav","spherical","20","1","1","matched","-60","-80","1332"
"echo-presentation","57","294133","0.0-57.0","5f3d8b0bd9a75c164958578a","60201dea606b8d5e5aa9e528","6020225cef1d8d5ade433343","Mozilla/5.0 (Windows NT 10.0; Win64; x64) AppleWebKit/537.36 (KHTML, like Gecko) Chrome/88.0.4324.150 Safari/537.36 Edg/88.0.705.63","v1-up-stims","","","","","","","","-80,-70,-60,-50,-40","media/audio/stims/spherical_300cm_s20_c1_cd-1_matched_a-70.wav","spherical","20","1","1","matched","-70","-80","1725"
"echo-presentation","58","297199","0.0-58.0","5f3d8b0bd9a75c164958578a","60201dea606b8d5e5aa9e528","6020225cef1d8d5ade433343","Mozilla/5.0 (Windows NT 10.0; Win64; x64) AppleWebKit/537.36 (KHTML, like Gecko) Chrome/88.0.4324.150 Safari/537.36 Edg/88.0.705.63","v1-up-stims","","","","","","","","-80,-70,-60,-50,-40","media/audio/stims/spherical_300cm_s20_c1_cd-1_matched_a-60.wav","spherical","20","1","1","matched","-60","-80","1919"
"echo-presentation","59","299204","0.0-59.0","5f3d8b0bd9a75c164958578a","60201dea606b8d5e5aa9e528","6020225cef1d8d5ade433343","Mozilla/5.0 (Windows NT 10.0; Win64; x64) AppleWebKit/537.36 (KHTML, like Gecko) Chrome/88.0.4324.150 Safari/537.36 Edg/88.0.705.63","v1-up-stims","","","","","","","","-80,-70,-60,-50,-40","media/audio/stims/spherical_300cm_s20_c1_cd-1_matched_a-70.wav","spherical","20","1","1","matched","-70","-80","1127"
"echo-presentation","60","301117","0.0-60.0","5f3d8b0bd9a75c164958578a","60201dea606b8d5e5aa9e528","6020225cef1d8d5ade433343","Mozilla/5.0 (Windows NT 10.0; Win64; x64) AppleWebKit/537.36 (KHTML, like Gecko) Chrome/88.0.4324.150 Safari/537.36 Edg/88.0.705.63","v1-up-stims","","","","","","","","-80,-70,-60,-50,-40","media/audio/stims/spherical_300cm_s20_c1_cd-1_matched_a-70.wav","spherical","20","1","1","matched","-70","-80","871"
"echo-presentation","61","303029","0.0-61.0","5f3d8b0bd9a75c164958578a","60201dea606b8d5e5aa9e528","6020225cef1d8d5ade433343","Mozilla/5.0 (Windows NT 10.0; Win64; x64) AppleWebKit/537.36 (KHTML, like Gecko) Chrome/88.0.4324.150 Safari/537.36 Edg/88.0.705.63","v1-up-stims","","","","","","","","-80,-70,-60,-50,-40","media/audio/stims/spherical_300cm_s20_c1_cd-1_matched_a-70.wav","spherical","20","1","1","matched","-70","-80","1165"
"echo-presentation","62","305190","0.0-62.0","5f3d8b0bd9a75c164958578a","60201dea606b8d5e5aa9e528","6020225cef1d8d5ade433343","Mozilla/5.0 (Windows NT 10.0; Win64; x64) AppleWebKit/537.36 (KHTML, like Gecko) Chrome/88.0.4324.150 Safari/537.36 Edg/88.0.705.63","v1-up-stims","","","","","","","","-80,-70,-60,-50,-40","media/audio/stims/spherical_300cm_s20_c1_cd-1_matched_a-80.wav","spherical","20","1","1","matched","-80","-80","1311"
"echo-presentation","63","306998","0.0-63.0","5f3d8b0bd9a75c164958578a","60201dea606b8d5e5aa9e528","6020225cef1d8d5ade433343","Mozilla/5.0 (Windows NT 10.0; Win64; x64) AppleWebKit/537.36 (KHTML, like Gecko) Chrome/88.0.4324.150 Safari/537.36 Edg/88.0.705.63","v1-up-stims","","","","","","","","-80,-70,-60,-50,-40","media/audio/stims/spherical_300cm_s20_c1_cd-1_matched_a-40.wav","spherical","20","1","1","matched","-40","-80","1079"
"echo-presentation","64","308837","0.0-64.0","5f3d8b0bd9a75c164958578a","60201dea606b8d5e5aa9e528","6020225cef1d8d5ade433343","Mozilla/5.0 (Windows NT 10.0; Win64; x64) AppleWebKit/537.36 (KHTML, like Gecko) Chrome/88.0.4324.150 Safari/537.36 Edg/88.0.705.63","v1-up-stims","","","","","","","","-80,-70,-60,-50,-40","media/audio/stims/spherical_300cm_s20_c1_cd-1_matched_a-50.wav","spherical","20","1","1","matched","-50","-80","1021"
"echo-presentation","65","310905","0.0-65.0","5f3d8b0bd9a75c164958578a","60201dea606b8d5e5aa9e528","6020225cef1d8d5ade433343","Mozilla/5.0 (Windows NT 10.0; Win64; x64) AppleWebKit/537.36 (KHTML, like Gecko) Chrome/88.0.4324.150 Safari/537.36 Edg/88.0.705.63","v1-up-stims","","","","","","","","-80,-70,-60,-50,-40","media/audio/stims/spherical_300cm_s20_c1_cd-1_matched_a-60.wav","spherical","20","1","1","matched","-60","-80","1132"
"echo-presentation","66","312850","0.0-66.0","5f3d8b0bd9a75c164958578a","60201dea606b8d5e5aa9e528","6020225cef1d8d5ade433343","Mozilla/5.0 (Windows NT 10.0; Win64; x64) AppleWebKit/537.36 (KHTML, like Gecko) Chrome/88.0.4324.150 Safari/537.36 Edg/88.0.705.63","v1-up-stims","","","","","","","","-80,-70,-60,-50,-40","media/audio/stims/spherical_300cm_s20_c1_cd-1_matched_a-40.wav","spherical","20","1","1","matched","-40","-80","1047"
"echo-presentation","67","314702","0.0-67.0","5f3d8b0bd9a75c164958578a","60201dea606b8d5e5aa9e528","6020225cef1d8d5ade433343","Mozilla/5.0 (Windows NT 10.0; Win64; x64) AppleWebKit/537.36 (KHTML, like Gecko) Chrome/88.0.4324.150 Safari/537.36 Edg/88.0.705.63","v1-up-stims","","","","","","","","-80,-70,-60,-50,-40","media/audio/stims/spherical_300cm_s20_c1_cd-1_matched_a-50.wav","spherical","20","1","1","matched","-50","-80","982"
"echo-presentation","68","316942","0.0-68.0","5f3d8b0bd9a75c164958578a","60201dea606b8d5e5aa9e528","6020225cef1d8d5ade433343","Mozilla/5.0 (Windows NT 10.0; Win64; x64) AppleWebKit/537.36 (KHTML, like Gecko) Chrome/88.0.4324.150 Safari/537.36 Edg/88.0.705.63","v1-up-stims","","","","","","","","-80,-70,-60,-50,-40","media/audio/stims/spherical_300cm_s20_c1_cd-1_matched_a-50.wav","spherical","20","1","1","matched","-50","-80","1110"
"echo-presentation","69","318827","0.0-69.0","5f3d8b0bd9a75c164958578a","60201dea606b8d5e5aa9e528","6020225cef1d8d5ade433343","Mozilla/5.0 (Windows NT 10.0; Win64; x64) AppleWebKit/537.36 (KHTML, like Gecko) Chrome/88.0.4324.150 Safari/537.36 Edg/88.0.705.63","v1-up-stims","","","","","","","","-80,-70,-60,-50,-40","media/audio/stims/spherical_300cm_s20_c1_cd-1_matched_a-80.wav","spherical","20","1","1","matched","-80","-80","958"
"echo-presentation","70","321096","0.0-70.0","5f3d8b0bd9a75c164958578a","60201dea606b8d5e5aa9e528","6020225cef1d8d5ade433343","Mozilla/5.0 (Windows NT 10.0; Win64; x64) AppleWebKit/537.36 (KHTML, like Gecko) Chrome/88.0.4324.150 Safari/537.36 Edg/88.0.705.63","v1-up-stims","","","","","","","","-80,-70,-60,-50,-40","media/audio/stims/spherical_300cm_s20_c1_cd-1_matched_a-80.wav","spherical","20","1","1","matched","-80","-80","1022"
"echo-presentation","71","323146","0.0-71.0","5f3d8b0bd9a75c164958578a","60201dea606b8d5e5aa9e528","6020225cef1d8d5ade433343","Mozilla/5.0 (Windows NT 10.0; Win64; x64) AppleWebKit/537.36 (KHTML, like Gecko) Chrome/88.0.4324.150 Safari/537.36 Edg/88.0.705.63","v1-up-stims","","","","","","","","-80,-70,-60,-50,-40","media/audio/stims/spherical_300cm_s20_c1_cd-1_matched_a-50.wav","spherical","20","1","1","matched","-50","-80","1069"
"block-bookend","72","324391","0.0-72.0","5f3d8b0bd9a75c164958578a","60201dea606b8d5e5aa9e528","6020225cef1d8d5ade433343","Mozilla/5.0 (Windows NT 10.0; Win64; x64) AppleWebKit/537.36 (KHTML, like Gecko) Chrome/88.0.4324.150 Safari/537.36 Edg/88.0.705.63","v1-up-stims","","","","","","","","","","","","","","","","",""
"block-bookend","73","336759","0.0-73.0","5f3d8b0bd9a75c164958578a","60201dea606b8d5e5aa9e528","6020225cef1d8d5ade433343","Mozilla/5.0 (Windows NT 10.0; Win64; x64) AppleWebKit/537.36 (KHTML, like Gecko) Chrome/88.0.4324.150 Safari/537.36 Edg/88.0.705.63","v1-up-stims","","","","","","","","","","","","","","","","",""
"echo-presentation","74","341644","0.0-74.0","5f3d8b0bd9a75c164958578a","60201dea606b8d5e5aa9e528","6020225cef1d8d5ade433343","Mozilla/5.0 (Windows NT 10.0; Win64; x64) AppleWebKit/537.36 (KHTML, like Gecko) Chrome/88.0.4324.150 Safari/537.36 Edg/88.0.705.63","v1-up-stims","","","","","","","","-80,-70,-60,-50,-40","media/audio/stims/spherical_300cm_s20_c1_cd-1_matched_a-80.wav","spherical","20","1","1","matched","-80","-80","3406"
"echo-presentation","75","344130","0.0-75.0","5f3d8b0bd9a75c164958578a","60201dea606b8d5e5aa9e528","6020225cef1d8d5ade433343","Mozilla/5.0 (Windows NT 10.0; Win64; x64) AppleWebKit/537.36 (KHTML, like Gecko) Chrome/88.0.4324.150 Safari/537.36 Edg/88.0.705.63","v1-up-stims","","","","","","","","-80,-70,-60,-50,-40","media/audio/stims/spherical_300cm_s20_c1_cd-1_matched_a-50.wav","spherical","20","1","1","matched","-50","-80","1429"
"echo-presentation","76","346182","0.0-76.0","5f3d8b0bd9a75c164958578a","60201dea606b8d5e5aa9e528","6020225cef1d8d5ade433343","Mozilla/5.0 (Windows NT 10.0; Win64; x64) AppleWebKit/537.36 (KHTML, like Gecko) Chrome/88.0.4324.150 Safari/537.36 Edg/88.0.705.63","v1-up-stims","","","","","","","","-80,-70,-60,-50,-40","media/audio/stims/spherical_300cm_s20_c1_cd-1_matched_a-60.wav","spherical","20","1","1","matched","-60","-80","1205"
"echo-presentation","77","348157","0.0-77.0","5f3d8b0bd9a75c164958578a","60201dea606b8d5e5aa9e528","6020225cef1d8d5ade433343","Mozilla/5.0 (Windows NT 10.0; Win64; x64) AppleWebKit/537.36 (KHTML, like Gecko) Chrome/88.0.4324.150 Safari/537.36 Edg/88.0.705.63","v1-up-stims","","","","","","","","-80,-70,-60,-50,-40","media/audio/stims/spherical_300cm_s20_c1_cd-1_matched_a-50.wav","spherical","20","1","1","matched","-50","-80","1134"
"echo-presentation","78","350023","0.0-78.0","5f3d8b0bd9a75c164958578a","60201dea606b8d5e5aa9e528","6020225cef1d8d5ade433343","Mozilla/5.0 (Windows NT 10.0; Win64; x64) AppleWebKit/537.36 (KHTML, like Gecko) Chrome/88.0.4324.150 Safari/537.36 Edg/88.0.705.63","v1-up-stims","","","","","","","","-80,-70,-60,-50,-40","media/audio/stims/spherical_300cm_s20_c1_cd-1_matched_a-70.wav","spherical","20","1","1","matched","-70","-80","1094"
"echo-presentation","79","352116","0.0-79.0","5f3d8b0bd9a75c164958578a","60201dea606b8d5e5aa9e528","6020225cef1d8d5ade433343","Mozilla/5.0 (Windows NT 10.0; Win64; x64) AppleWebKit/537.36 (KHTML, like Gecko) Chrome/88.0.4324.150 Safari/537.36 Edg/88.0.705.63","v1-up-stims","","","","","","","","-80,-70,-60,-50,-40","media/audio/stims/spherical_300cm_s20_c1_cd-1_matched_a-70.wav","spherical","20","1","1","matched","-70","-80","1102"
"echo-presentation","80","353844","0.0-80.0","5f3d8b0bd9a75c164958578a","60201dea606b8d5e5aa9e528","6020225cef1d8d5ade433343","Mozilla/5.0 (Windows NT 10.0; Win64; x64) AppleWebKit/537.36 (KHTML, like Gecko) Chrome/88.0.4324.150 Safari/537.36 Edg/88.0.705.63","v1-up-stims","","","","","","","","-80,-70,-60,-50,-40","media/audio/stims/spherical_300cm_s20_c1_cd-1_matched_a-60.wav","spherical","20","1","1","matched","-60","-80","895"
"echo-presentation","81","355805","0.0-81.0","5f3d8b0bd9a75c164958578a","60201dea606b8d5e5aa9e528","6020225cef1d8d5ade433343","Mozilla/5.0 (Windows NT 10.0; Win64; x64) AppleWebKit/537.36 (KHTML, like Gecko) Chrome/88.0.4324.150 Safari/537.36 Edg/88.0.705.63","v1-up-stims","","","","","","","","-80,-70,-60,-50,-40","media/audio/stims/spherical_300cm_s20_c1_cd-1_matched_a-40.wav","spherical","20","1","1","matched","-40","-80","1182"
"echo-presentation","82","357965","0.0-82.0","5f3d8b0bd9a75c164958578a","60201dea606b8d5e5aa9e528","6020225cef1d8d5ade433343","Mozilla/5.0 (Windows NT 10.0; Win64; x64) AppleWebKit/537.36 (KHTML, like Gecko) Chrome/88.0.4324.150 Safari/537.36 Edg/88.0.705.63","v1-up-stims","","","","","","","","-80,-70,-60,-50,-40","media/audio/stims/spherical_300cm_s20_c1_cd-1_matched_a-60.wav","spherical","20","1","1","matched","-60","-80","886"
"echo-presentation","83","359988","0.0-83.0","5f3d8b0bd9a75c164958578a","60201dea606b8d5e5aa9e528","6020225cef1d8d5ade433343","Mozilla/5.0 (Windows NT 10.0; Win64; x64) AppleWebKit/537.36 (KHTML, like Gecko) Chrome/88.0.4324.150 Safari/537.36 Edg/88.0.705.63","v1-up-stims","","","","","","","","-80,-70,-60,-50,-40","media/audio/stims/spherical_300cm_s20_c1_cd-1_matched_a-70.wav","spherical","20","1","1","matched","-70","-80","1030"
"echo-presentation","84","361932","0.0-84.0","5f3d8b0bd9a75c164958578a","60201dea606b8d5e5aa9e528","6020225cef1d8d5ade433343","Mozilla/5.0 (Windows NT 10.0; Win64; x64) AppleWebKit/537.36 (KHTML, like Gecko) Chrome/88.0.4324.150 Safari/537.36 Edg/88.0.705.63","v1-up-stims","","","","","","","","-80,-70,-60,-50,-40","media/audio/stims/spherical_300cm_s20_c1_cd-1_matched_a-80.wav","spherical","20","1","1","matched","-80","-80","902"
"echo-presentation","85","363767","0.0-85.0","5f3d8b0bd9a75c164958578a","60201dea606b8d5e5aa9e528","6020225cef1d8d5ade433343","Mozilla/5.0 (Windows NT 10.0; Win64; x64) AppleWebKit/537.36 (KHTML, like Gecko) Chrome/88.0.4324.150 Safari/537.36 Edg/88.0.705.63","v1-up-stims","","","","","","","","-80,-70,-60,-50,-40","media/audio/stims/spherical_300cm_s20_c1_cd-1_matched_a-50.wav","spherical","20","1","1","matched","-50","-80","871"
"echo-presentation","86","365789","0.0-86.0","5f3d8b0bd9a75c164958578a","60201dea606b8d5e5aa9e528","6020225cef1d8d5ade433343","Mozilla/5.0 (Windows NT 10.0; Win64; x64) AppleWebKit/537.36 (KHTML, like Gecko) Chrome/88.0.4324.150 Safari/537.36 Edg/88.0.705.63","v1-up-stims","","","","","","","","-80,-70,-60,-50,-40","media/audio/stims/spherical_300cm_s20_c1_cd-1_matched_a-40.wav","spherical","20","1","1","matched","-40","-80","1030"
"echo-presentation","87","367547","0.0-87.0","5f3d8b0bd9a75c164958578a","60201dea606b8d5e5aa9e528","6020225cef1d8d5ade433343","Mozilla/5.0 (Windows NT 10.0; Win64; x64) AppleWebKit/537.36 (KHTML, like Gecko) Chrome/88.0.4324.150 Safari/537.36 Edg/88.0.705.63","v1-up-stims","","","","","","","","-80,-70,-60,-50,-40","media/audio/stims/spherical_300cm_s20_c1_cd-1_matched_a-60.wav","spherical","20","1","1","matched","-60","-80","951"
"echo-presentation","88","369661","0.0-88.0","5f3d8b0bd9a75c164958578a","60201dea606b8d5e5aa9e528","6020225cef1d8d5ade433343","Mozilla/5.0 (Windows NT 10.0; Win64; x64) AppleWebKit/537.36 (KHTML, like Gecko) Chrome/88.0.4324.150 Safari/537.36 Edg/88.0.705.63","v1-up-stims","","","","","","","","-80,-70,-60,-50,-40","media/audio/stims/spherical_300cm_s20_c1_cd-1_matched_a-40.wav","spherical","20","1","1","matched","-40","-80","1198"
"echo-presentation","89","371494","0.0-89.0","5f3d8b0bd9a75c164958578a","60201dea606b8d5e5aa9e528","6020225cef1d8d5ade433343","Mozilla/5.0 (Windows NT 10.0; Win64; x64) AppleWebKit/537.36 (KHTML, like Gecko) Chrome/88.0.4324.150 Safari/537.36 Edg/88.0.705.63","v1-up-stims","","","","","","","","-80,-70,-60,-50,-40","media/audio/stims/spherical_300cm_s20_c1_cd-1_matched_a-80.wav","spherical","20","1","1","matched","-80","-80","934"
"echo-presentation","90","373299","0.0-90.0","5f3d8b0bd9a75c164958578a","60201dea606b8d5e5aa9e528","6020225cef1d8d5ade433343","Mozilla/5.0 (Windows NT 10.0; Win64; x64) AppleWebKit/537.36 (KHTML, like Gecko) Chrome/88.0.4324.150 Safari/537.36 Edg/88.0.705.63","v1-up-stims","","","","","","","","-80,-70,-60,-50,-40","media/audio/stims/spherical_300cm_s20_c1_cd-1_matched_a-80.wav","spherical","20","1","1","matched","-80","-80","975"
"echo-presentation","91","374860","0.0-91.0","5f3d8b0bd9a75c164958578a","60201dea606b8d5e5aa9e528","6020225cef1d8d5ade433343","Mozilla/5.0 (Windows NT 10.0; Win64; x64) AppleWebKit/537.36 (KHTML, like Gecko) Chrome/88.0.4324.150 Safari/537.36 Edg/88.0.705.63","v1-up-stims","","","","","","","","-80,-70,-60,-50,-40","media/audio/stims/spherical_300cm_s20_c1_cd-1_matched_a-70.wav","spherical","20","1","1","matched","-70","-80","878"
"echo-presentation","92","376387","0.0-92.0","5f3d8b0bd9a75c164958578a","60201dea606b8d5e5aa9e528","6020225cef1d8d5ade433343","Mozilla/5.0 (Windows NT 10.0; Win64; x64) AppleWebKit/537.36 (KHTML, like Gecko) Chrome/88.0.4324.150 Safari/537.36 Edg/88.0.705.63","v1-up-stims","","","","","","","","-80,-70,-60,-50,-40","media/audio/stims/spherical_300cm_s20_c1_cd-1_matched_a-40.wav","spherical","20","1","1","matched","-40","-80","766"
"echo-presentation","93","378082","0.0-93.0","5f3d8b0bd9a75c164958578a","60201dea606b8d5e5aa9e528","6020225cef1d8d5ade433343","Mozilla/5.0 (Windows NT 10.0; Win64; x64) AppleWebKit/537.36 (KHTML, like Gecko) Chrome/88.0.4324.150 Safari/537.36 Edg/88.0.705.63","v1-up-stims","","","","","","","","-80,-70,-60,-50,-40","media/audio/stims/spherical_300cm_s20_c1_cd-1_matched_a-50.wav","spherical","20","1","1","matched","-50","-80","909"
"block-bookend","94","379440","0.0-94.0","5f3d8b0bd9a75c164958578a","60201dea606b8d5e5aa9e528","6020225cef1d8d5ade433343","Mozilla/5.0 (Windows NT 10.0; Win64; x64) AppleWebKit/537.36 (KHTML, like Gecko) Chrome/88.0.4324.150 Safari/537.36 Edg/88.0.705.63","v1-up-stims","","","","","","","","","","","","","","","","",""
"block-bookend","95","385441","0.0-95.0","5f3d8b0bd9a75c164958578a","60201dea606b8d5e5aa9e528","6020225cef1d8d5ade433343","Mozilla/5.0 (Windows NT 10.0; Win64; x64) AppleWebKit/537.36 (KHTML, like Gecko) Chrome/88.0.4324.150 Safari/537.36 Edg/88.0.705.63","v1-up-stims","","","","","","","","","","","","","","","","",""
"echo-presentation","96","390837","0.0-96.0","5f3d8b0bd9a75c164958578a","60201dea606b8d5e5aa9e528","6020225cef1d8d5ade433343","Mozilla/5.0 (Windows NT 10.0; Win64; x64) AppleWebKit/537.36 (KHTML, like Gecko) Chrome/88.0.4324.150 Safari/537.36 Edg/88.0.705.63","v1-up-stims","","","","","","","","-20,-10,0,10,20","media/audio/stims/spherical_300cm_s20_c1_cd-1_matched_a20.wav","spherical","20","1","1","matched","20","20","3896"
"echo-presentation","97","393367","0.0-97.0","5f3d8b0bd9a75c164958578a","60201dea606b8d5e5aa9e528","6020225cef1d8d5ade433343","Mozilla/5.0 (Windows NT 10.0; Win64; x64) AppleWebKit/537.36 (KHTML, like Gecko) Chrome/88.0.4324.150 Safari/537.36 Edg/88.0.705.63","v1-up-stims","","","","","","","","-20,-10,0,10,20","media/audio/stims/spherical_300cm_s20_c1_cd-1_matched_a20.wav","spherical","20","1","1","matched","20","20","1462"
"echo-presentation","98","395785","0.0-98.0","5f3d8b0bd9a75c164958578a","60201dea606b8d5e5aa9e528","6020225cef1d8d5ade433343","Mozilla/5.0 (Windows NT 10.0; Win64; x64) AppleWebKit/537.36 (KHTML, like Gecko) Chrome/88.0.4324.150 Safari/537.36 Edg/88.0.705.63","v1-up-stims","","","","","","","","-20,-10,0,10,20","media/audio/stims/spherical_300cm_s20_c1_cd-1_matched_a10.wav","spherical","20","1","1","matched","10","20","1581"
"echo-presentation","99","397836","0.0-99.0","5f3d8b0bd9a75c164958578a","60201dea606b8d5e5aa9e528","6020225cef1d8d5ade433343","Mozilla/5.0 (Windows NT 10.0; Win64; x64) AppleWebKit/537.36 (KHTML, like Gecko) Chrome/88.0.4324.150 Safari/537.36 Edg/88.0.705.63","v1-up-stims","","","","","","","","-20,-10,0,10,20","media/audio/stims/spherical_300cm_s20_c1_cd-1_matched_a-20.wav","spherical","20","1","1","matched","-20","-20","1197"
"echo-presentation","100","400152","0.0-100.0","5f3d8b0bd9a75c164958578a","60201dea606b8d5e5aa9e528","6020225cef1d8d5ade433343","Mozilla/5.0 (Windows NT 10.0; Win64; x64) AppleWebKit/537.36 (KHTML, like Gecko) Chrome/88.0.4324.150 Safari/537.36 Edg/88.0.705.63","v1-up-stims","","","","","","","","-20,-10,0,10,20","media/audio/stims/spherical_300cm_s20_c1_cd-1_matched_a-10.wav","spherical","20","1","1","matched","-10","-20","1429"
"echo-presentation","101","402066","0.0-101.0","5f3d8b0bd9a75c164958578a","60201dea606b8d5e5aa9e528","6020225cef1d8d5ade433343","Mozilla/5.0 (Windows NT 10.0; Win64; x64) AppleWebKit/537.36 (KHTML, like Gecko) Chrome/88.0.4324.150 Safari/537.36 Edg/88.0.705.63","v1-up-stims","","","","","","","","-20,-10,0,10,20","media/audio/stims/spherical_300cm_s20_c1_cd-1_matched_a-20.wav","spherical","20","1","1","matched","-20","-20","935"
"echo-presentation","102","404040","0.0-102.0","5f3d8b0bd9a75c164958578a","60201dea606b8d5e5aa9e528","6020225cef1d8d5ade433343","Mozilla/5.0 (Windows NT 10.0; Win64; x64) AppleWebKit/537.36 (KHTML, like Gecko) Chrome/88.0.4324.150 Safari/537.36 Edg/88.0.705.63","v1-up-stims","","","","","","","","-20,-10,0,10,20","media/audio/stims/spherical_300cm_s20_c1_cd-1_matched_a-10.wav","spherical","20","1","1","matched","-10","-20","1071"
"echo-presentation","103","406182","0.0-103.0","5f3d8b0bd9a75c164958578a","60201dea606b8d5e5aa9e528","6020225cef1d8d5ade433343","Mozilla/5.0 (Windows NT 10.0; Win64; x64) AppleWebKit/537.36 (KHTML, like Gecko) Chrome/88.0.4324.150 Safari/537.36 Edg/88.0.705.63","v1-up-stims","","","","","","","","-20,-10,0,10,20","media/audio/stims/spherical_300cm_s20_c1_cd-1_matched_a10.wav","spherical","20","1","1","matched","10","20","1319"
"echo-presentation","104","408129","0.0-104.0","5f3d8b0bd9a75c164958578a","60201dea606b8d5e5aa9e528","6020225cef1d8d5ade433343","Mozilla/5.0 (Windows NT 10.0; Win64; x64) AppleWebKit/537.36 (KHTML, like Gecko) Chrome/88.0.4324.150 Safari/537.36 Edg/88.0.705.63","v1-up-stims","","","","","","","","-20,-10,0,10,20","media/audio/stims/spherical_300cm_s20_c1_cd-1_matched_a20.wav","spherical","20","1","1","matched","20","20","1005"
"echo-presentation","105","409826","0.0-105.0","5f3d8b0bd9a75c164958578a","60201dea606b8d5e5aa9e528","6020225cef1d8d5ade433343","Mozilla/5.0 (Windows NT 10.0; Win64; x64) AppleWebKit/537.36 (KHTML, like Gecko) Chrome/88.0.4324.150 Safari/537.36 Edg/88.0.705.63","v1-up-stims","","","","","","","","-20,-10,0,10,20","media/audio/stims/spherical_300cm_s20_c1_cd-1_matched_a10.wav","spherical","20","1","1","matched","10","20","929"
"echo-presentation","106","412294","0.0-106.0","5f3d8b0bd9a75c164958578a","60201dea606b8d5e5aa9e528","6020225cef1d8d5ade433343","Mozilla/5.0 (Windows NT 10.0; Win64; x64) AppleWebKit/537.36 (KHTML, like Gecko) Chrome/88.0.4324.150 Safari/537.36 Edg/88.0.705.63","v1-up-stims","","","","","","","","-20,-10,0,10,20","media/audio/stims/spherical_300cm_s20_c1_cd-1_matched_a-10.wav","spherical","20","1","1","matched","-10","-20","1708"
"echo-presentation","107","414129","0.0-107.0","5f3d8b0bd9a75c164958578a","60201dea606b8d5e5aa9e528","6020225cef1d8d5ade433343","Mozilla/5.0 (Windows NT 10.0; Win64; x64) AppleWebKit/537.36 (KHTML, like Gecko) Chrome/88.0.4324.150 Safari/537.36 Edg/88.0.705.63","v1-up-stims","","","","","","","","-20,-10,0,10,20","media/audio/stims/spherical_300cm_s20_c1_cd-1_matched_a20.wav","spherical","20","1","1","matched","20","20","1005"
"echo-presentation","108","417448","0.0-108.0","5f3d8b0bd9a75c164958578a","60201dea606b8d5e5aa9e528","6020225cef1d8d5ade433343","Mozilla/5.0 (Windows NT 10.0; Win64; x64) AppleWebKit/537.36 (KHTML, like Gecko) Chrome/88.0.4324.150 Safari/537.36 Edg/88.0.705.63","v1-up-stims","","","","","","","","-20,-10,0,10,20","media/audio/stims/spherical_300cm_s20_c1_cd-1_matched_a0.wav","spherical","20","1","1","matched","0","0","2333"
"echo-presentation","109","419529","0.0-109.0","5f3d8b0bd9a75c164958578a","60201dea606b8d5e5aa9e528","6020225cef1d8d5ade433343","Mozilla/5.0 (Windows NT 10.0; Win64; x64) AppleWebKit/537.36 (KHTML, like Gecko) Chrome/88.0.4324.150 Safari/537.36 Edg/88.0.705.63","v1-up-stims","","","","","","","","-20,-10,0,10,20","media/audio/stims/spherical_300cm_s20_c1_cd-1_matched_a-20.wav","spherical","20","1","1","matched","-20","-20","1063"
"echo-presentation","110","422350","0.0-110.0","5f3d8b0bd9a75c164958578a","60201dea606b8d5e5aa9e528","6020225cef1d8d5ade433343","Mozilla/5.0 (Windows NT 10.0; Win64; x64) AppleWebKit/537.36 (KHTML, like Gecko) Chrome/88.0.4324.150 Safari/537.36 Edg/88.0.705.63","v1-up-stims","","","","","","","","-20,-10,0,10,20","media/audio/stims/spherical_300cm_s20_c1_cd-1_matched_a10.wav","spherical","20","1","1","matched","10","20","1774"
"echo-presentation","111","424370","0.0-111.0","5f3d8b0bd9a75c164958578a","60201dea606b8d5e5aa9e528","6020225cef1d8d5ade433343","Mozilla/5.0 (Windows NT 10.0; Win64; x64) AppleWebKit/537.36 (KHTML, like Gecko) Chrome/88.0.4324.150 Safari/537.36 Edg/88.0.705.63","v1-up-stims","","","","","","","","-20,-10,0,10,20","media/audio/stims/spherical_300cm_s20_c1_cd-1_matched_a-20.wav","spherical","20","1","1","matched","-20","-20","1068"
"echo-presentation","112","427267","0.0-112.0","5f3d8b0bd9a75c164958578a","60201dea606b8d5e5aa9e528","6020225cef1d8d5ade433343","Mozilla/5.0 (Windows NT 10.0; Win64; x64) AppleWebKit/537.36 (KHTML, like Gecko) Chrome/88.0.4324.150 Safari/537.36 Edg/88.0.705.63","v1-up-stims","","","","","","","","-20,-10,0,10,20","media/audio/stims/spherical_300cm_s20_c1_cd-1_matched_a0.wav","spherical","20","1","1","matched","0","0","1926"
"echo-presentation","113","429365","0.0-113.0","5f3d8b0bd9a75c164958578a","60201dea606b8d5e5aa9e528","6020225cef1d8d5ade433343","Mozilla/5.0 (Windows NT 10.0; Win64; x64) AppleWebKit/537.36 (KHTML, like Gecko) Chrome/88.0.4324.150 Safari/537.36 Edg/88.0.705.63","v1-up-stims","","","","","","","","-20,-10,0,10,20","media/audio/stims/spherical_300cm_s20_c1_cd-1_matched_a0.wav","spherical","20","1","1","matched","0","0","1006"
"echo-presentation","114","431584","0.0-114.0","5f3d8b0bd9a75c164958578a","60201dea606b8d5e5aa9e528","6020225cef1d8d5ade433343","Mozilla/5.0 (Windows NT 10.0; Win64; x64) AppleWebKit/537.36 (KHTML, like Gecko) Chrome/88.0.4324.150 Safari/537.36 Edg/88.0.705.63","v1-up-stims","","","","","","","","-20,-10,0,10,20","media/audio/stims/spherical_300cm_s20_c1_cd-1_matched_a-10.wav","spherical","20","1","1","matched","-10","-20","1167"
"echo-presentation","115","434329","0.0-115.0","5f3d8b0bd9a75c164958578a","60201dea606b8d5e5aa9e528","6020225cef1d8d5ade433343","Mozilla/5.0 (Windows NT 10.0; Win64; x64) AppleWebKit/537.36 (KHTML, like Gecko) Chrome/88.0.4324.150 Safari/537.36 Edg/88.0.705.63","v1-up-stims","","","","","","","","-20,-10,0,10,20","media/audio/stims/spherical_300cm_s20_c1_cd-1_matched_a0.wav","spherical","20","1","1","matched","0","0","1846"
"block-bookend","116","435222","0.0-116.0","5f3d8b0bd9a75c164958578a","60201dea606b8d5e5aa9e528","6020225cef1d8d5ade433343","Mozilla/5.0 (Windows NT 10.0; Win64; x64) AppleWebKit/537.36 (KHTML, like Gecko) Chrome/88.0.4324.150 Safari/537.36 Edg/88.0.705.63","v1-up-stims","","","","","","","","","","","","","","","","",""
"block-bookend","117","439952","0.0-117.0","5f3d8b0bd9a75c164958578a","60201dea606b8d5e5aa9e528","6020225cef1d8d5ade433343","Mozilla/5.0 (Windows NT 10.0; Win64; x64) AppleWebKit/537.36 (KHTML, like Gecko) Chrome/88.0.4324.150 Safari/537.36 Edg/88.0.705.63","v1-up-stims","","","","","","","","","","","","","","","","",""
"echo-presentation","118","442367","0.0-118.0","5f3d8b0bd9a75c164958578a","60201dea606b8d5e5aa9e528","6020225cef1d8d5ade433343","Mozilla/5.0 (Windows NT 10.0; Win64; x64) AppleWebKit/537.36 (KHTML, like Gecko) Chrome/88.0.4324.150 Safari/537.36 Edg/88.0.705.63","v1-up-stims","","","","","","","","-20,-10,0,10,20","media/audio/stims/spherical_300cm_s20_c1_cd-1_matched_a0.wav","spherical","20","1","1","matched","0","0","1333"
"echo-presentation","119","444526","0.0-119.0","5f3d8b0bd9a75c164958578a","60201dea606b8d5e5aa9e528","6020225cef1d8d5ade433343","Mozilla/5.0 (Windows NT 10.0; Win64; x64) AppleWebKit/537.36 (KHTML, like Gecko) Chrome/88.0.4324.150 Safari/537.36 Edg/88.0.705.63","v1-up-stims","","","","","","","","-20,-10,0,10,20","media/audio/stims/spherical_300cm_s20_c1_cd-1_matched_a20.wav","spherical","20","1","1","matched","20","20","1159"
"echo-presentation","120","447350","0.0-120.0","5f3d8b0bd9a75c164958578a","60201dea606b8d5e5aa9e528","6020225cef1d8d5ade433343","Mozilla/5.0 (Windows NT 10.0; Win64; x64) AppleWebKit/537.36 (KHTML, like Gecko) Chrome/88.0.4324.150 Safari/537.36 Edg/88.0.705.63","v1-up-stims","","","","","","","","-20,-10,0,10,20","media/audio/stims/spherical_300cm_s20_c1_cd-1_matched_a10.wav","spherical","20","1","1","matched","10","20","1887"
"echo-presentation","121","449125","0.0-121.0","5f3d8b0bd9a75c164958578a","60201dea606b8d5e5aa9e528","6020225cef1d8d5ade433343","Mozilla/5.0 (Windows NT 10.0; Win64; x64) AppleWebKit/537.36 (KHTML, like Gecko) Chrome/88.0.4324.150 Safari/537.36 Edg/88.0.705.63","v1-up-stims","","","","","","","","-20,-10,0,10,20","media/audio/stims/spherical_300cm_s20_c1_cd-1_matched_a-20.wav","spherical","20","1","1","matched","-20","-20","983"
"echo-presentation","122","451034","0.0-122.0","5f3d8b0bd9a75c164958578a","60201dea606b8d5e5aa9e528","6020225cef1d8d5ade433343","Mozilla/5.0 (Windows NT 10.0; Win64; x64) AppleWebKit/537.36 (KHTML, like Gecko) Chrome/88.0.4324.150 Safari/537.36 Edg/88.0.705.63","v1-up-stims","","","","","","","","-20,-10,0,10,20","media/audio/stims/spherical_300cm_s20_c1_cd-1_matched_a-10.wav","spherical","20","1","1","matched","-10","-20","1134"
"echo-presentation","123","453115","0.0-123.0","5f3d8b0bd9a75c164958578a","60201dea606b8d5e5aa9e528","6020225cef1d8d5ade433343","Mozilla/5.0 (Windows NT 10.0; Win64; x64) AppleWebKit/537.36 (KHTML, like Gecko) Chrome/88.0.4324.150 Safari/537.36 Edg/88.0.705.63","v1-up-stims","","","","","","","","-20,-10,0,10,20","media/audio/stims/spherical_300cm_s20_c1_cd-1_matched_a0.wav","spherical","20","1","1","matched","0","0","1270"
"echo-presentation","124","454905","0.0-124.0","5f3d8b0bd9a75c164958578a","60201dea606b8d5e5aa9e528","6020225cef1d8d5ade433343","Mozilla/5.0 (Windows NT 10.0; Win64; x64) AppleWebKit/537.36 (KHTML, like Gecko) Chrome/88.0.4324.150 Safari/537.36 Edg/88.0.705.63","v1-up-stims","","","","","","","","-20,-10,0,10,20","media/audio/stims/spherical_300cm_s20_c1_cd-1_matched_a0.wav","spherical","20","1","1","matched","0","0","973"
"echo-presentation","125","457480","0.0-125.0","5f3d8b0bd9a75c164958578a","60201dea606b8d5e5aa9e528","6020225cef1d8d5ade433343","Mozilla/5.0 (Windows NT 10.0; Win64; x64) AppleWebKit/537.36 (KHTML, like Gecko) Chrome/88.0.4324.150 Safari/537.36 Edg/88.0.705.63","v1-up-stims","","","","","","","","-20,-10,0,10,20","media/audio/stims/spherical_300cm_s20_c1_cd-1_matched_a10.wav","spherical","20","1","1","matched","10","20","1496"
"echo-presentation","126","459995","0.0-126.0","5f3d8b0bd9a75c164958578a","60201dea606b8d5e5aa9e528","6020225cef1d8d5ade433343","Mozilla/5.0 (Windows NT 10.0; Win64; x64) AppleWebKit/537.36 (KHTML, like Gecko) Chrome/88.0.4324.150 Safari/537.36 Edg/88.0.705.63","v1-up-stims","","","","","","","","-20,-10,0,10,20","media/audio/stims/spherical_300cm_s20_c1_cd-1_matched_a20.wav","spherical","20","1","1","matched","20","20","1734"
"echo-presentation","127","461785","0.0-127.0","5f3d8b0bd9a75c164958578a","60201dea606b8d5e5aa9e528","6020225cef1d8d5ade433343","Mozilla/5.0 (Windows NT 10.0; Win64; x64) AppleWebKit/537.36 (KHTML, like Gecko) Chrome/88.0.4324.150 Safari/537.36 Edg/88.0.705.63","v1-up-stims","","","","","","","","-20,-10,0,10,20","media/audio/stims/spherical_300cm_s20_c1_cd-1_matched_a0.wav","spherical","20","1","1","matched","0","0","992"
"echo-presentation","128","463483","0.0-128.0","5f3d8b0bd9a75c164958578a","60201dea606b8d5e5aa9e528","6020225cef1d8d5ade433343","Mozilla/5.0 (Windows NT 10.0; Win64; x64) AppleWebKit/537.36 (KHTML, like Gecko) Chrome/88.0.4324.150 Safari/537.36 Edg/88.0.705.63","v1-up-stims","","","","","","","","-20,-10,0,10,20","media/audio/stims/spherical_300cm_s20_c1_cd-1_matched_a-20.wav","spherical","20","1","1","matched","-20","-20","944"
"echo-presentation","129","465720","0.0-129.0","5f3d8b0bd9a75c164958578a","60201dea606b8d5e5aa9e528","6020225cef1d8d5ade433343","Mozilla/5.0 (Windows NT 10.0; Win64; x64) AppleWebKit/537.36 (KHTML, like Gecko) Chrome/88.0.4324.150 Safari/537.36 Edg/88.0.705.63","v1-up-stims","","","","","","","","-20,-10,0,10,20","media/audio/stims/spherical_300cm_s20_c1_cd-1_matched_a-10.wav","spherical","20","1","1","matched","-10","-20","1364"
"echo-presentation","130","467697","0.0-130.0","5f3d8b0bd9a75c164958578a","60201dea606b8d5e5aa9e528","6020225cef1d8d5ade433343","Mozilla/5.0 (Windows NT 10.0; Win64; x64) AppleWebKit/537.36 (KHTML, like Gecko) Chrome/88.0.4324.150 Safari/537.36 Edg/88.0.705.63","v1-up-stims","","","","","","","","-20,-10,0,10,20","media/audio/stims/spherical_300cm_s20_c1_cd-1_matched_a10.wav","spherical","20","1","1","matched","10","20","1022"
"echo-presentation","131","469716","0.0-131.0","5f3d8b0bd9a75c164958578a","60201dea606b8d5e5aa9e528","6020225cef1d8d5ade433343","Mozilla/5.0 (Windows NT 10.0; Win64; x64) AppleWebKit/537.36 (KHTML, like Gecko) Chrome/88.0.4324.150 Safari/537.36 Edg/88.0.705.63","v1-up-stims","","","","","","","","-20,-10,0,10,20","media/audio/stims/spherical_300cm_s20_c1_cd-1_matched_a-20.wav","spherical","20","1","1","matched","-20","-20","926"
"echo-presentation","132","471629","0.0-132.0","5f3d8b0bd9a75c164958578a","60201dea606b8d5e5aa9e528","6020225cef1d8d5ade433343","Mozilla/5.0 (Windows NT 10.0; Win64; x64) AppleWebKit/537.36 (KHTML, like Gecko) Chrome/88.0.4324.150 Safari/537.36 Edg/88.0.705.63","v1-up-stims","","","","","","","","-20,-10,0,10,20","media/audio/stims/spherical_300cm_s20_c1_cd-1_matched_a20.wav","spherical","20","1","1","matched","20","20","1063"
"echo-presentation","133","473418","0.0-133.0","5f3d8b0bd9a75c164958578a","60201dea606b8d5e5aa9e528","6020225cef1d8d5ade433343","Mozilla/5.0 (Windows NT 10.0; Win64; x64) AppleWebKit/537.36 (KHTML, like Gecko) Chrome/88.0.4324.150 Safari/537.36 Edg/88.0.705.63","v1-up-stims","","","","","","","","-20,-10,0,10,20","media/audio/stims/spherical_300cm_s20_c1_cd-1_matched_a-10.wav","spherical","20","1","1","matched","-10","-20","990"
"echo-presentation","134","476691","0.0-134.0","5f3d8b0bd9a75c164958578a","60201dea606b8d5e5aa9e528","6020225cef1d8d5ade433343","Mozilla/5.0 (Windows NT 10.0; Win64; x64) AppleWebKit/537.36 (KHTML, like Gecko) Chrome/88.0.4324.150 Safari/537.36 Edg/88.0.705.63","v1-up-stims","","","","","","","","-20,-10,0,10,20","media/audio/stims/spherical_300cm_s20_c1_cd-1_matched_a10.wav","spherical","20","1","1","matched","10","20","2135"
"echo-presentation","135","478790","0.0-135.0","5f3d8b0bd9a75c164958578a","60201dea606b8d5e5aa9e528","6020225cef1d8d5ade433343","Mozilla/5.0 (Windows NT 10.0; Win64; x64) AppleWebKit/537.36 (KHTML, like Gecko) Chrome/88.0.4324.150 Safari/537.36 Edg/88.0.705.63","v1-up-stims","","","","","","","","-20,-10,0,10,20","media/audio/stims/spherical_300cm_s20_c1_cd-1_matched_a-20.wav","spherical","20","1","1","matched","-20","-20","1128"
"echo-presentation","136","481936","0.0-136.0","5f3d8b0bd9a75c164958578a","60201dea606b8d5e5aa9e528","6020225cef1d8d5ade433343","Mozilla/5.0 (Windows NT 10.0; Win64; x64) AppleWebKit/537.36 (KHTML, like Gecko) Chrome/88.0.4324.150 Safari/537.36 Edg/88.0.705.63","v1-up-stims","","","","","","","","-20,-10,0,10,20","media/audio/stims/spherical_300cm_s20_c1_cd-1_matched_a-10.wav","spherical","20","1","1","matched","-10","-20","1927"
"echo-presentation","137","484113","0.0-137.0","5f3d8b0bd9a75c164958578a","60201dea606b8d5e5aa9e528","6020225cef1d8d5ade433343","Mozilla/5.0 (Windows NT 10.0; Win64; x64) AppleWebKit/537.36 (KHTML, like Gecko) Chrome/88.0.4324.150 Safari/537.36 Edg/88.0.705.63","v1-up-stims","","","","","","","","-20,-10,0,10,20","media/audio/stims/spherical_300cm_s20_c1_cd-1_matched_a20.wav","spherical","20","1","1","matched","20","20","1095"
"block-bookend","138","485319","0.0-138.0","5f3d8b0bd9a75c164958578a","60201dea606b8d5e5aa9e528","6020225cef1d8d5ade433343","Mozilla/5.0 (Windows NT 10.0; Win64; x64) AppleWebKit/537.36 (KHTML, like Gecko) Chrome/88.0.4324.150 Safari/537.36 Edg/88.0.705.63","v1-up-stims","","","","","","","","","","","","","","","","",""
