"trial_type","trial_index","time_elapsed","internal_node_id","prolificPid","studyId","sessionId","userAgent","version","rt","stimulus","key_press","chosenKeyset","failureCount","testIndex","globalVolume","choices","filename","modelName","slowdown","compensation","compensationDescriptor","receiverOrientationType","azimuth","responseAzimuth","responseDelay"
"pavlovia","0","4","0.0-0.0","5d3b0da8a884020001881773","5fef55e628823a0076ec12ee","601f44800cd5f346d49dfd90","Mozilla/5.0 (Windows NT 10.0; Win64; x64) AppleWebKit/537.36 (KHTML, like Gecko) Chrome/88.0.4324.146 Safari/537.36","v1","","","","","","","","","","","","","","","","",""
"html-keyboard-response","1","1722","0.0-1.0","5d3b0da8a884020001881773","5fef55e628823a0076ec12ee","601f44800cd5f346d49dfd90","Mozilla/5.0 (Windows NT 10.0; Win64; x64) AppleWebKit/537.36 (KHTML, like Gecko) Chrome/88.0.4324.146 Safari/537.36","v1","1716.0799999255687","<div><h1>Welcome!</h1><p>Press any key to continue.</p></div>","32","","","","","","","","","","","","","",""
"consent-form","2","8166","0.0-2.0","5d3b0da8a884020001881773","5fef55e628823a0076ec12ee","601f44800cd5f346d49dfd90","Mozilla/5.0 (Windows NT 10.0; Win64; x64) AppleWebKit/537.36 (KHTML, like Gecko) Chrome/88.0.4324.146 Safari/537.36","v1","","","","","","","","","","","","","","","","",""
"keyset-select","3","17235","0.0-3.0","5d3b0da8a884020001881773","5fef55e628823a0076ec12ee","601f44800cd5f346d49dfd90","Mozilla/5.0 (Windows NT 10.0; Win64; x64) AppleWebKit/537.36 (KHTML, like Gecko) Chrome/88.0.4324.146 Safari/537.36","v1","","","","right-hand","","","","","","","","","","","","",""
"headphone-check","4","65918","0.0-4.0","5d3b0da8a884020001881773","5fef55e628823a0076ec12ee","601f44800cd5f346d49dfd90","Mozilla/5.0 (Windows NT 10.0; Win64; x64) AppleWebKit/537.36 (KHTML, like Gecko) Chrome/88.0.4324.146 Safari/537.36","v1","","","","","0","6","0.7","","","","","","","","","",""
"headphone-backwards-check","5","79121","0.0-5.0","5d3b0da8a884020001881773","5fef55e628823a0076ec12ee","601f44800cd5f346d49dfd90","Mozilla/5.0 (Windows NT 10.0; Win64; x64) AppleWebKit/537.36 (KHTML, like Gecko) Chrome/88.0.4324.146 Safari/537.36","v1","","","","","0","","","","","","","","","","","",""
"training","6","201233","0.0-6.0","5d3b0da8a884020001881773","5fef55e628823a0076ec12ee","601f44800cd5f346d49dfd90","Mozilla/5.0 (Windows NT 10.0; Win64; x64) AppleWebKit/537.36 (KHTML, like Gecko) Chrome/88.0.4324.146 Safari/537.36","v1","","","","","","","","","","","","","","","","",""
"block-bookend","7","228666","0.0-7.0","5d3b0da8a884020001881773","5fef55e628823a0076ec12ee","601f44800cd5f346d49dfd90","Mozilla/5.0 (Windows NT 10.0; Win64; x64) AppleWebKit/537.36 (KHTML, like Gecko) Chrome/88.0.4324.146 Safari/537.36","v1","","","","","","","","","","","","","","","","",""
"echo-presentation","8","235773","0.0-8.0","5d3b0da8a884020001881773","5fef55e628823a0076ec12ee","601f44800cd5f346d49dfd90","Mozilla/5.0 (Windows NT 10.0; Win64; x64) AppleWebKit/537.36 (KHTML, like Gecko) Chrome/88.0.4324.146 Safari/537.36","v1","","","","","","","","-80,-70,-60,-50,-40","media/audio/stims/spherical_300cm_s20_c20_cd-full_matched_a-40.wav","spherical","20","20","full","matched","-40","-80","2896"
"echo-presentation","9","241427","0.0-9.0","5d3b0da8a884020001881773","5fef55e628823a0076ec12ee","601f44800cd5f346d49dfd90","Mozilla/5.0 (Windows NT 10.0; Win64; x64) AppleWebKit/537.36 (KHTML, like Gecko) Chrome/88.0.4324.146 Safari/537.36","v1","","","","","","","","-80,-70,-60,-50,-40","media/audio/stims/spherical_300cm_s20_c20_cd-full_matched_a-50.wav","spherical","20","20","full","matched","-50","-80","2941"
"echo-presentation","10","245415","0.0-10.0","5d3b0da8a884020001881773","5fef55e628823a0076ec12ee","601f44800cd5f346d49dfd90","Mozilla/5.0 (Windows NT 10.0; Win64; x64) AppleWebKit/537.36 (KHTML, like Gecko) Chrome/88.0.4324.146 Safari/537.36","v1","","","","","","","","-80,-70,-60,-50,-40","media/audio/stims/spherical_300cm_s20_c20_cd-full_matched_a-40.wav","spherical","20","20","full","matched","-40","-80","1719"
"echo-presentation","11","250286","0.0-11.0","5d3b0da8a884020001881773","5fef55e628823a0076ec12ee","601f44800cd5f346d49dfd90","Mozilla/5.0 (Windows NT 10.0; Win64; x64) AppleWebKit/537.36 (KHTML, like Gecko) Chrome/88.0.4324.146 Safari/537.36","v1","","","","","","","","-80,-70,-60,-50,-40","media/audio/stims/spherical_300cm_s20_c20_cd-full_matched_a-60.wav","spherical","20","20","full","matched","-60","-80","3047"
"echo-presentation","12","259285","0.0-12.0","5d3b0da8a884020001881773","5fef55e628823a0076ec12ee","601f44800cd5f346d49dfd90","Mozilla/5.0 (Windows NT 10.0; Win64; x64) AppleWebKit/537.36 (KHTML, like Gecko) Chrome/88.0.4324.146 Safari/537.36","v1","","","","","","","","-80,-70,-60,-50,-40","media/audio/stims/spherical_300cm_s20_c20_cd-full_matched_a-80.wav","spherical","20","20","full","matched","-80","-70","5302"
"echo-presentation","13","264151","0.0-13.0","5d3b0da8a884020001881773","5fef55e628823a0076ec12ee","601f44800cd5f346d49dfd90","Mozilla/5.0 (Windows NT 10.0; Win64; x64) AppleWebKit/537.36 (KHTML, like Gecko) Chrome/88.0.4324.146 Safari/537.36","v1","","","","","","","","-80,-70,-60,-50,-40","media/audio/stims/spherical_300cm_s20_c20_cd-full_matched_a-60.wav","spherical","20","20","full","matched","-60","-80","3537"
"echo-presentation","14","268123","0.0-14.0","5d3b0da8a884020001881773","5fef55e628823a0076ec12ee","601f44800cd5f346d49dfd90","Mozilla/5.0 (Windows NT 10.0; Win64; x64) AppleWebKit/537.36 (KHTML, like Gecko) Chrome/88.0.4324.146 Safari/537.36","v1","","","","","","","","-80,-70,-60,-50,-40","media/audio/stims/spherical_300cm_s20_c20_cd-full_matched_a-40.wav","spherical","20","20","full","matched","-40","-80","2680"
"echo-presentation","15","271361","0.0-15.0","5d3b0da8a884020001881773","5fef55e628823a0076ec12ee","601f44800cd5f346d49dfd90","Mozilla/5.0 (Windows NT 10.0; Win64; x64) AppleWebKit/537.36 (KHTML, like Gecko) Chrome/88.0.4324.146 Safari/537.36","v1","","","","","","","","-80,-70,-60,-50,-40","media/audio/stims/spherical_300cm_s20_c20_cd-full_matched_a-50.wav","spherical","20","20","full","matched","-50","-80","1719"
"echo-presentation","16","275453","0.0-16.0","5d3b0da8a884020001881773","5fef55e628823a0076ec12ee","601f44800cd5f346d49dfd90","Mozilla/5.0 (Windows NT 10.0; Win64; x64) AppleWebKit/537.36 (KHTML, like Gecko) Chrome/88.0.4324.146 Safari/537.36","v1","","","","","","","","-80,-70,-60,-50,-40","media/audio/stims/spherical_300cm_s20_c20_cd-full_matched_a-40.wav","spherical","20","20","full","matched","-40","-80","1683"
"echo-presentation","17","279519","0.0-17.0","5d3b0da8a884020001881773","5fef55e628823a0076ec12ee","601f44800cd5f346d49dfd90","Mozilla/5.0 (Windows NT 10.0; Win64; x64) AppleWebKit/537.36 (KHTML, like Gecko) Chrome/88.0.4324.146 Safari/537.36","v1","","","","","","","","-80,-70,-60,-50,-40","media/audio/stims/spherical_300cm_s20_c20_cd-full_matched_a-70.wav","spherical","20","20","full","matched","-70","-80","2015"
"echo-presentation","18","283455","0.0-18.0","5d3b0da8a884020001881773","5fef55e628823a0076ec12ee","601f44800cd5f346d49dfd90","Mozilla/5.0 (Windows NT 10.0; Win64; x64) AppleWebKit/537.36 (KHTML, like Gecko) Chrome/88.0.4324.146 Safari/537.36","v1","","","","","","","","-80,-70,-60,-50,-40","media/audio/stims/spherical_300cm_s20_c20_cd-full_matched_a-80.wav","spherical","20","20","full","matched","-80","-80","2341"
"echo-presentation","19","286862","0.0-19.0","5d3b0da8a884020001881773","5fef55e628823a0076ec12ee","601f44800cd5f346d49dfd90","Mozilla/5.0 (Windows NT 10.0; Win64; x64) AppleWebKit/537.36 (KHTML, like Gecko) Chrome/88.0.4324.146 Safari/537.36","v1","","","","","","","","-80,-70,-60,-50,-40","media/audio/stims/spherical_300cm_s20_c20_cd-full_matched_a-70.wav","spherical","20","20","full","matched","-70","-70","1982"
"echo-presentation","20","291731","0.0-20.0","5d3b0da8a884020001881773","5fef55e628823a0076ec12ee","601f44800cd5f346d49dfd90","Mozilla/5.0 (Windows NT 10.0; Win64; x64) AppleWebKit/537.36 (KHTML, like Gecko) Chrome/88.0.4324.146 Safari/537.36","v1","","","","","","","","-80,-70,-60,-50,-40","media/audio/stims/spherical_300cm_s20_c20_cd-full_matched_a-80.wav","spherical","20","20","full","matched","-80","-80","2927"
"echo-presentation","21","294075","0.0-21.0","5d3b0da8a884020001881773","5fef55e628823a0076ec12ee","601f44800cd5f346d49dfd90","Mozilla/5.0 (Windows NT 10.0; Win64; x64) AppleWebKit/537.36 (KHTML, like Gecko) Chrome/88.0.4324.146 Safari/537.36","v1","","","","","","","","-80,-70,-60,-50,-40","media/audio/stims/spherical_300cm_s20_c20_cd-full_matched_a-50.wav","spherical","20","20","full","matched","-50","-80","1437"
"echo-presentation","22","296551","0.0-22.0","5d3b0da8a884020001881773","5fef55e628823a0076ec12ee","601f44800cd5f346d49dfd90","Mozilla/5.0 (Windows NT 10.0; Win64; x64) AppleWebKit/537.36 (KHTML, like Gecko) Chrome/88.0.4324.146 Safari/537.36","v1","","","","","","","","-80,-70,-60,-50,-40","media/audio/stims/spherical_300cm_s20_c20_cd-full_matched_a-80.wav","spherical","20","20","full","matched","-80","-80","1684"
"echo-presentation","23","299555","0.0-23.0","5d3b0da8a884020001881773","5fef55e628823a0076ec12ee","601f44800cd5f346d49dfd90","Mozilla/5.0 (Windows NT 10.0; Win64; x64) AppleWebKit/537.36 (KHTML, like Gecko) Chrome/88.0.4324.146 Safari/537.36","v1","","","","","","","","-80,-70,-60,-50,-40","media/audio/stims/spherical_300cm_s20_c20_cd-full_matched_a-60.wav","spherical","20","20","full","matched","-60","-80","1772"
"echo-presentation","24","302162","0.0-24.0","5d3b0da8a884020001881773","5fef55e628823a0076ec12ee","601f44800cd5f346d49dfd90","Mozilla/5.0 (Windows NT 10.0; Win64; x64) AppleWebKit/537.36 (KHTML, like Gecko) Chrome/88.0.4324.146 Safari/537.36","v1","","","","","","","","-80,-70,-60,-50,-40","media/audio/stims/spherical_300cm_s20_c20_cd-full_matched_a-70.wav","spherical","20","20","full","matched","-70","-80","1627"
"echo-presentation","25","305523","0.0-25.0","5d3b0da8a884020001881773","5fef55e628823a0076ec12ee","601f44800cd5f346d49dfd90","Mozilla/5.0 (Windows NT 10.0; Win64; x64) AppleWebKit/537.36 (KHTML, like Gecko) Chrome/88.0.4324.146 Safari/537.36","v1","","","","","","","","-80,-70,-60,-50,-40","media/audio/stims/spherical_300cm_s20_c20_cd-full_matched_a-50.wav","spherical","20","20","full","matched","-50","-80","2163"
"echo-presentation","26","308671","0.0-26.0","5d3b0da8a884020001881773","5fef55e628823a0076ec12ee","601f44800cd5f346d49dfd90","Mozilla/5.0 (Windows NT 10.0; Win64; x64) AppleWebKit/537.36 (KHTML, like Gecko) Chrome/88.0.4324.146 Safari/537.36","v1","","","","","","","","-80,-70,-60,-50,-40","media/audio/stims/spherical_300cm_s20_c20_cd-full_matched_a-70.wav","spherical","20","20","full","matched","-70","-80","2470"
"echo-presentation","27","314754","0.0-27.0","5d3b0da8a884020001881773","5fef55e628823a0076ec12ee","601f44800cd5f346d49dfd90","Mozilla/5.0 (Windows NT 10.0; Win64; x64) AppleWebKit/537.36 (KHTML, like Gecko) Chrome/88.0.4324.146 Safari/537.36","v1","","","","","","","","-80,-70,-60,-50,-40","media/audio/stims/spherical_300cm_s20_c20_cd-full_matched_a-60.wav","spherical","20","20","full","matched","-60","-70","2819"
"block-bookend","28","319777","0.0-28.0","5d3b0da8a884020001881773","5fef55e628823a0076ec12ee","601f44800cd5f346d49dfd90","Mozilla/5.0 (Windows NT 10.0; Win64; x64) AppleWebKit/537.36 (KHTML, like Gecko) Chrome/88.0.4324.146 Safari/537.36","v1","","","","","","","","","","","","","","","","",""
"block-bookend","29","335708","0.0-29.0","5d3b0da8a884020001881773","5fef55e628823a0076ec12ee","601f44800cd5f346d49dfd90","Mozilla/5.0 (Windows NT 10.0; Win64; x64) AppleWebKit/537.36 (KHTML, like Gecko) Chrome/88.0.4324.146 Safari/537.36","v1","","","","","","","","","","","","","","","","",""
"echo-presentation","30","341482","0.0-30.0","5d3b0da8a884020001881773","5fef55e628823a0076ec12ee","601f44800cd5f346d49dfd90","Mozilla/5.0 (Windows NT 10.0; Win64; x64) AppleWebKit/537.36 (KHTML, like Gecko) Chrome/88.0.4324.146 Safari/537.36","v1","","","","","","","","-80,-70,-60,-50,-40","media/audio/stims/spherical_300cm_s20_c20_cd-full_matched_a-70.wav","spherical","20","20","full","matched","-70","-60","2399"
"echo-presentation","31","344199","0.0-31.0","5d3b0da8a884020001881773","5fef55e628823a0076ec12ee","601f44800cd5f346d49dfd90","Mozilla/5.0 (Windows NT 10.0; Win64; x64) AppleWebKit/537.36 (KHTML, like Gecko) Chrome/88.0.4324.146 Safari/537.36","v1","","","","","","","","-80,-70,-60,-50,-40","media/audio/stims/spherical_300cm_s20_c20_cd-full_matched_a-80.wav","spherical","20","20","full","matched","-80","-60","1403"
"echo-presentation","32","346904","0.0-32.0","5d3b0da8a884020001881773","5fef55e628823a0076ec12ee","601f44800cd5f346d49dfd90","Mozilla/5.0 (Windows NT 10.0; Win64; x64) AppleWebKit/537.36 (KHTML, like Gecko) Chrome/88.0.4324.146 Safari/537.36","v1","","","","","","","","-80,-70,-60,-50,-40","media/audio/stims/spherical_300cm_s20_c20_cd-full_matched_a-40.wav","spherical","20","20","full","matched","-40","-70","1636"
"echo-presentation","33","349936","0.0-33.0","5d3b0da8a884020001881773","5fef55e628823a0076ec12ee","601f44800cd5f346d49dfd90","Mozilla/5.0 (Windows NT 10.0; Win64; x64) AppleWebKit/537.36 (KHTML, like Gecko) Chrome/88.0.4324.146 Safari/537.36","v1","","","","","","","","-80,-70,-60,-50,-40","media/audio/stims/spherical_300cm_s20_c20_cd-full_matched_a-70.wav","spherical","20","20","full","matched","-70","-70","1878"
"echo-presentation","34","352850","0.0-34.0","5d3b0da8a884020001881773","5fef55e628823a0076ec12ee","601f44800cd5f346d49dfd90","Mozilla/5.0 (Windows NT 10.0; Win64; x64) AppleWebKit/537.36 (KHTML, like Gecko) Chrome/88.0.4324.146 Safari/537.36","v1","","","","","","","","-80,-70,-60,-50,-40","media/audio/stims/spherical_300cm_s20_c20_cd-full_matched_a-50.wav","spherical","20","20","full","matched","-50","-60","1995"
"echo-presentation","35","356128","0.0-35.0","5d3b0da8a884020001881773","5fef55e628823a0076ec12ee","601f44800cd5f346d49dfd90","Mozilla/5.0 (Windows NT 10.0; Win64; x64) AppleWebKit/537.36 (KHTML, like Gecko) Chrome/88.0.4324.146 Safari/537.36","v1","","","","","","","","-80,-70,-60,-50,-40","media/audio/stims/spherical_300cm_s20_c20_cd-full_matched_a-60.wav","spherical","20","20","full","matched","-60","-50","1996"
"echo-presentation","36","360114","0.0-36.0","5d3b0da8a884020001881773","5fef55e628823a0076ec12ee","601f44800cd5f346d49dfd90","Mozilla/5.0 (Windows NT 10.0; Win64; x64) AppleWebKit/537.36 (KHTML, like Gecko) Chrome/88.0.4324.146 Safari/537.36","v1","","","","","","","","-80,-70,-60,-50,-40","media/audio/stims/spherical_300cm_s20_c20_cd-full_matched_a-70.wav","spherical","20","20","full","matched","-70","-60","1521"
"echo-presentation","37","362474","0.0-37.0","5d3b0da8a884020001881773","5fef55e628823a0076ec12ee","601f44800cd5f346d49dfd90","Mozilla/5.0 (Windows NT 10.0; Win64; x64) AppleWebKit/537.36 (KHTML, like Gecko) Chrome/88.0.4324.146 Safari/537.36","v1","","","","","","","","-80,-70,-60,-50,-40","media/audio/stims/spherical_300cm_s20_c20_cd-full_matched_a-60.wav","spherical","20","20","full","matched","-60","-60","1266"
"echo-presentation","38","364539","0.0-38.0","5d3b0da8a884020001881773","5fef55e628823a0076ec12ee","601f44800cd5f346d49dfd90","Mozilla/5.0 (Windows NT 10.0; Win64; x64) AppleWebKit/537.36 (KHTML, like Gecko) Chrome/88.0.4324.146 Safari/537.36","v1","","","","","","","","-80,-70,-60,-50,-40","media/audio/stims/spherical_300cm_s20_c20_cd-full_matched_a-40.wav","spherical","20","20","full","matched","-40","-60","1155"
"echo-presentation","39","367048","0.0-39.0","5d3b0da8a884020001881773","5fef55e628823a0076ec12ee","601f44800cd5f346d49dfd90","Mozilla/5.0 (Windows NT 10.0; Win64; x64) AppleWebKit/537.36 (KHTML, like Gecko) Chrome/88.0.4324.146 Safari/537.36","v1","","","","","","","","-80,-70,-60,-50,-40","media/audio/stims/spherical_300cm_s20_c20_cd-full_matched_a-60.wav","spherical","20","20","full","matched","-60","-70","1517"
"echo-presentation","40","370075","0.0-40.0","5d3b0da8a884020001881773","5fef55e628823a0076ec12ee","601f44800cd5f346d49dfd90","Mozilla/5.0 (Windows NT 10.0; Win64; x64) AppleWebKit/537.36 (KHTML, like Gecko) Chrome/88.0.4324.146 Safari/537.36","v1","","","","","","","","-80,-70,-60,-50,-40","media/audio/stims/spherical_300cm_s20_c20_cd-full_matched_a-50.wav","spherical","20","20","full","matched","-50","-70","1558"
"echo-presentation","41","373048","0.0-41.0","5d3b0da8a884020001881773","5fef55e628823a0076ec12ee","601f44800cd5f346d49dfd90","Mozilla/5.0 (Windows NT 10.0; Win64; x64) AppleWebKit/537.36 (KHTML, like Gecko) Chrome/88.0.4324.146 Safari/537.36","v1","","","","","","","","-80,-70,-60,-50,-40","media/audio/stims/spherical_300cm_s20_c20_cd-full_matched_a-70.wav","spherical","20","20","full","matched","-70","-70","1740"
"echo-presentation","42","376449","0.0-42.0","5d3b0da8a884020001881773","5fef55e628823a0076ec12ee","601f44800cd5f346d49dfd90","Mozilla/5.0 (Windows NT 10.0; Win64; x64) AppleWebKit/537.36 (KHTML, like Gecko) Chrome/88.0.4324.146 Safari/537.36","v1","","","","","","","","-80,-70,-60,-50,-40","media/audio/stims/spherical_300cm_s20_c20_cd-full_matched_a-50.wav","spherical","20","20","full","matched","-50","-70","2009"
"echo-presentation","43","379336","0.0-43.0","5d3b0da8a884020001881773","5fef55e628823a0076ec12ee","601f44800cd5f346d49dfd90","Mozilla/5.0 (Windows NT 10.0; Win64; x64) AppleWebKit/537.36 (KHTML, like Gecko) Chrome/88.0.4324.146 Safari/537.36","v1","","","","","","","","-80,-70,-60,-50,-40","media/audio/stims/spherical_300cm_s20_c20_cd-full_matched_a-80.wav","spherical","20","20","full","matched","-80","-80","1169"
"echo-presentation","44","381693","0.0-44.0","5d3b0da8a884020001881773","5fef55e628823a0076ec12ee","601f44800cd5f346d49dfd90","Mozilla/5.0 (Windows NT 10.0; Win64; x64) AppleWebKit/537.36 (KHTML, like Gecko) Chrome/88.0.4324.146 Safari/537.36","v1","","","","","","","","-80,-70,-60,-50,-40","media/audio/stims/spherical_300cm_s20_c20_cd-full_matched_a-40.wav","spherical","20","20","full","matched","-40","-80","1055"
"echo-presentation","45","384019","0.0-45.0","5d3b0da8a884020001881773","5fef55e628823a0076ec12ee","601f44800cd5f346d49dfd90","Mozilla/5.0 (Windows NT 10.0; Win64; x64) AppleWebKit/537.36 (KHTML, like Gecko) Chrome/88.0.4324.146 Safari/537.36","v1","","","","","","","","-80,-70,-60,-50,-40","media/audio/stims/spherical_300cm_s20_c20_cd-full_matched_a-50.wav","spherical","20","20","full","matched","-50","-80","1070"
"echo-presentation","46","386643","0.0-46.0","5d3b0da8a884020001881773","5fef55e628823a0076ec12ee","601f44800cd5f346d49dfd90","Mozilla/5.0 (Windows NT 10.0; Win64; x64) AppleWebKit/537.36 (KHTML, like Gecko) Chrome/88.0.4324.146 Safari/537.36","v1","","","","","","","","-80,-70,-60,-50,-40","media/audio/stims/spherical_300cm_s20_c20_cd-full_matched_a-40.wav","spherical","20","20","full","matched","-40","-80","1010"
"echo-presentation","47","389421","0.0-47.0","5d3b0da8a884020001881773","5fef55e628823a0076ec12ee","601f44800cd5f346d49dfd90","Mozilla/5.0 (Windows NT 10.0; Win64; x64) AppleWebKit/537.36 (KHTML, like Gecko) Chrome/88.0.4324.146 Safari/537.36","v1","","","","","","","","-80,-70,-60,-50,-40","media/audio/stims/spherical_300cm_s20_c20_cd-full_matched_a-80.wav","spherical","20","20","full","matched","-80","-80","1354"
"echo-presentation","48","391408","0.0-48.0","5d3b0da8a884020001881773","5fef55e628823a0076ec12ee","601f44800cd5f346d49dfd90","Mozilla/5.0 (Windows NT 10.0; Win64; x64) AppleWebKit/537.36 (KHTML, like Gecko) Chrome/88.0.4324.146 Safari/537.36","v1","","","","","","","","-80,-70,-60,-50,-40","media/audio/stims/spherical_300cm_s20_c20_cd-full_matched_a-60.wav","spherical","20","20","full","matched","-60","-70","1074"
"echo-presentation","49","394023","0.0-49.0","5d3b0da8a884020001881773","5fef55e628823a0076ec12ee","601f44800cd5f346d49dfd90","Mozilla/5.0 (Windows NT 10.0; Win64; x64) AppleWebKit/537.36 (KHTML, like Gecko) Chrome/88.0.4324.146 Safari/537.36","v1","","","","","","","","-80,-70,-60,-50,-40","media/audio/stims/spherical_300cm_s20_c20_cd-full_matched_a-80.wav","spherical","20","20","full","matched","-80","-80","1250"
"block-bookend","50","395252","0.0-50.0","5d3b0da8a884020001881773","5fef55e628823a0076ec12ee","601f44800cd5f346d49dfd90","Mozilla/5.0 (Windows NT 10.0; Win64; x64) AppleWebKit/537.36 (KHTML, like Gecko) Chrome/88.0.4324.146 Safari/537.36","v1","","","","","","","","","","","","","","","","",""
"block-bookend","51","412149","0.0-51.0","5d3b0da8a884020001881773","5fef55e628823a0076ec12ee","601f44800cd5f346d49dfd90","Mozilla/5.0 (Windows NT 10.0; Win64; x64) AppleWebKit/537.36 (KHTML, like Gecko) Chrome/88.0.4324.146 Safari/537.36","v1","","","","","","","","","","","","","","","","",""
"echo-presentation","52","417394","0.0-52.0","5d3b0da8a884020001881773","5fef55e628823a0076ec12ee","601f44800cd5f346d49dfd90","Mozilla/5.0 (Windows NT 10.0; Win64; x64) AppleWebKit/537.36 (KHTML, like Gecko) Chrome/88.0.4324.146 Safari/537.36","v1","","","","","","","","-20,-10,0,10,20","media/audio/stims/spherical_300cm_s20_c20_cd-full_matched_a20.wav","spherical","20","20","full","matched","20","10","2214"
"echo-presentation","53","419820","0.0-53.0","5d3b0da8a884020001881773","5fef55e628823a0076ec12ee","601f44800cd5f346d49dfd90","Mozilla/5.0 (Windows NT 10.0; Win64; x64) AppleWebKit/537.36 (KHTML, like Gecko) Chrome/88.0.4324.146 Safari/537.36","v1","","","","","","","","-20,-10,0,10,20","media/audio/stims/spherical_300cm_s20_c20_cd-full_matched_a-10.wav","spherical","20","20","full","matched","-10","-10","1398"
"echo-presentation","54","422614","0.0-54.0","5d3b0da8a884020001881773","5fef55e628823a0076ec12ee","601f44800cd5f346d49dfd90","Mozilla/5.0 (Windows NT 10.0; Win64; x64) AppleWebKit/537.36 (KHTML, like Gecko) Chrome/88.0.4324.146 Safari/537.36","v1","","","","","","","","-20,-10,0,10,20","media/audio/stims/spherical_300cm_s20_c20_cd-full_matched_a20.wav","spherical","20","20","full","matched","20","0","1578"
"echo-presentation","55","424566","0.0-55.0","5d3b0da8a884020001881773","5fef55e628823a0076ec12ee","601f44800cd5f346d49dfd90","Mozilla/5.0 (Windows NT 10.0; Win64; x64) AppleWebKit/537.36 (KHTML, like Gecko) Chrome/88.0.4324.146 Safari/537.36","v1","","","","","","","","-20,-10,0,10,20","media/audio/stims/spherical_300cm_s20_c20_cd-full_matched_a20.wav","spherical","20","20","full","matched","20","0","1068"
"echo-presentation","56","426680","0.0-56.0","5d3b0da8a884020001881773","5fef55e628823a0076ec12ee","601f44800cd5f346d49dfd90","Mozilla/5.0 (Windows NT 10.0; Win64; x64) AppleWebKit/537.36 (KHTML, like Gecko) Chrome/88.0.4324.146 Safari/537.36","v1","","","","","","","","-20,-10,0,10,20","media/audio/stims/spherical_300cm_s20_c20_cd-full_matched_a10.wav","spherical","20","20","full","matched","10","0","940"
"echo-presentation","57","428931","0.0-57.0","5d3b0da8a884020001881773","5fef55e628823a0076ec12ee","601f44800cd5f346d49dfd90","Mozilla/5.0 (Windows NT 10.0; Win64; x64) AppleWebKit/537.36 (KHTML, like Gecko) Chrome/88.0.4324.146 Safari/537.36","v1","","","","","","","","-20,-10,0,10,20","media/audio/stims/spherical_300cm_s20_c20_cd-full_matched_a0.wav","spherical","20","20","full","matched","0","10","916"
"echo-presentation","58","431365","0.0-58.0","5d3b0da8a884020001881773","5fef55e628823a0076ec12ee","601f44800cd5f346d49dfd90","Mozilla/5.0 (Windows NT 10.0; Win64; x64) AppleWebKit/537.36 (KHTML, like Gecko) Chrome/88.0.4324.146 Safari/537.36","v1","","","","","","","","-20,-10,0,10,20","media/audio/stims/spherical_300cm_s20_c20_cd-full_matched_a-10.wav","spherical","20","20","full","matched","-10","-10","1270"
"echo-presentation","59","433400","0.0-59.0","5d3b0da8a884020001881773","5fef55e628823a0076ec12ee","601f44800cd5f346d49dfd90","Mozilla/5.0 (Windows NT 10.0; Win64; x64) AppleWebKit/537.36 (KHTML, like Gecko) Chrome/88.0.4324.146 Safari/537.36","v1","","","","","","","","-20,-10,0,10,20","media/audio/stims/spherical_300cm_s20_c20_cd-full_matched_a-20.wav","spherical","20","20","full","matched","-20","-10","1030"
"echo-presentation","60","435728","0.0-60.0","5d3b0da8a884020001881773","5fef55e628823a0076ec12ee","601f44800cd5f346d49dfd90","Mozilla/5.0 (Windows NT 10.0; Win64; x64) AppleWebKit/537.36 (KHTML, like Gecko) Chrome/88.0.4324.146 Safari/537.36","v1","","","","","","","","-20,-10,0,10,20","media/audio/stims/spherical_300cm_s20_c20_cd-full_matched_a-20.wav","spherical","20","20","full","matched","-20","-10","1212"
"echo-presentation","61","438757","0.0-61.0","5d3b0da8a884020001881773","5fef55e628823a0076ec12ee","601f44800cd5f346d49dfd90","Mozilla/5.0 (Windows NT 10.0; Win64; x64) AppleWebKit/537.36 (KHTML, like Gecko) Chrome/88.0.4324.146 Safari/537.36","v1","","","","","","","","-20,-10,0,10,20","media/audio/stims/spherical_300cm_s20_c20_cd-full_matched_a0.wav","spherical","20","20","full","matched","0","10","1773"
"echo-presentation","62","441001","0.0-62.0","5d3b0da8a884020001881773","5fef55e628823a0076ec12ee","601f44800cd5f346d49dfd90","Mozilla/5.0 (Windows NT 10.0; Win64; x64) AppleWebKit/537.36 (KHTML, like Gecko) Chrome/88.0.4324.146 Safari/537.36","v1","","","","","","","","-20,-10,0,10,20","media/audio/stims/spherical_300cm_s20_c20_cd-full_matched_a0.wav","spherical","20","20","full","matched","0","10","940"
"echo-presentation","63","443180","0.0-63.0","5d3b0da8a884020001881773","5fef55e628823a0076ec12ee","601f44800cd5f346d49dfd90","Mozilla/5.0 (Windows NT 10.0; Win64; x64) AppleWebKit/537.36 (KHTML, like Gecko) Chrome/88.0.4324.146 Safari/537.36","v1","","","","","","","","-20,-10,0,10,20","media/audio/stims/spherical_300cm_s20_c20_cd-full_matched_a-10.wav","spherical","20","20","full","matched","-10","-10","1209"
"echo-presentation","64","455841","0.0-64.0","5d3b0da8a884020001881773","5fef55e628823a0076ec12ee","601f44800cd5f346d49dfd90","Mozilla/5.0 (Windows NT 10.0; Win64; x64) AppleWebKit/537.36 (KHTML, like Gecko) Chrome/88.0.4324.146 Safari/537.36","v1","","","","","","","","-20,-10,0,10,20","media/audio/stims/spherical_300cm_s20_c20_cd-full_matched_a10.wav","spherical","20","20","full","matched","10","20","11201"
"echo-presentation","65","460272","0.0-65.0","5d3b0da8a884020001881773","5fef55e628823a0076ec12ee","601f44800cd5f346d49dfd90","Mozilla/5.0 (Windows NT 10.0; Win64; x64) AppleWebKit/537.36 (KHTML, like Gecko) Chrome/88.0.4324.146 Safari/537.36","v1","","","","","","","","-20,-10,0,10,20","media/audio/stims/spherical_300cm_s20_c20_cd-full_matched_a10.wav","spherical","20","20","full","matched","10","20","2450"
"echo-presentation","66","462829","0.0-66.0","5d3b0da8a884020001881773","5fef55e628823a0076ec12ee","601f44800cd5f346d49dfd90","Mozilla/5.0 (Windows NT 10.0; Win64; x64) AppleWebKit/537.36 (KHTML, like Gecko) Chrome/88.0.4324.146 Safari/537.36","v1","","","","","","","","-20,-10,0,10,20","media/audio/stims/spherical_300cm_s20_c20_cd-full_matched_a20.wav","spherical","20","20","full","matched","20","20","1128"
"echo-presentation","67","467311","0.0-67.0","5d3b0da8a884020001881773","5fef55e628823a0076ec12ee","601f44800cd5f346d49dfd90","Mozilla/5.0 (Windows NT 10.0; Win64; x64) AppleWebKit/537.36 (KHTML, like Gecko) Chrome/88.0.4324.146 Safari/537.36","v1","","","","","","","","-20,-10,0,10,20","media/audio/stims/spherical_300cm_s20_c20_cd-full_matched_a-10.wav","spherical","20","20","full","matched","-10","-10","3056"
"echo-presentation","68","471542","0.0-68.0","5d3b0da8a884020001881773","5fef55e628823a0076ec12ee","601f44800cd5f346d49dfd90","Mozilla/5.0 (Windows NT 10.0; Win64; x64) AppleWebKit/537.36 (KHTML, like Gecko) Chrome/88.0.4324.146 Safari/537.36","v1","","","","","","","","-20,-10,0,10,20","media/audio/stims/spherical_300cm_s20_c20_cd-full_matched_a0.wav","spherical","20","20","full","matched","0","10","2468"
"echo-presentation","69","475185","0.0-69.0","5d3b0da8a884020001881773","5fef55e628823a0076ec12ee","601f44800cd5f346d49dfd90","Mozilla/5.0 (Windows NT 10.0; Win64; x64) AppleWebKit/537.36 (KHTML, like Gecko) Chrome/88.0.4324.146 Safari/537.36","v1","","","","","","","","-20,-10,0,10,20","media/audio/stims/spherical_300cm_s20_c20_cd-full_matched_a-20.wav","spherical","20","20","full","matched","-20","0","1675"
"echo-presentation","70","478569","0.0-70.0","5d3b0da8a884020001881773","5fef55e628823a0076ec12ee","601f44800cd5f346d49dfd90","Mozilla/5.0 (Windows NT 10.0; Win64; x64) AppleWebKit/537.36 (KHTML, like Gecko) Chrome/88.0.4324.146 Safari/537.36","v1","","","","","","","","-20,-10,0,10,20","media/audio/stims/spherical_300cm_s20_c20_cd-full_matched_a-20.wav","spherical","20","20","full","matched","-20","-10","1598"
"echo-presentation","71","482858","0.0-71.0","5d3b0da8a884020001881773","5fef55e628823a0076ec12ee","601f44800cd5f346d49dfd90","Mozilla/5.0 (Windows NT 10.0; Win64; x64) AppleWebKit/537.36 (KHTML, like Gecko) Chrome/88.0.4324.146 Safari/537.36","v1","","","","","","","","-20,-10,0,10,20","media/audio/stims/spherical_300cm_s20_c20_cd-full_matched_a10.wav","spherical","20","20","full","matched","10","20","2589"
"block-bookend","72","484093","0.0-72.0","5d3b0da8a884020001881773","5fef55e628823a0076ec12ee","601f44800cd5f346d49dfd90","Mozilla/5.0 (Windows NT 10.0; Win64; x64) AppleWebKit/537.36 (KHTML, like Gecko) Chrome/88.0.4324.146 Safari/537.36","v1","","","","","","","","","","","","","","","","",""
"block-bookend","73","489819","0.0-73.0","5d3b0da8a884020001881773","5fef55e628823a0076ec12ee","601f44800cd5f346d49dfd90","Mozilla/5.0 (Windows NT 10.0; Win64; x64) AppleWebKit/537.36 (KHTML, like Gecko) Chrome/88.0.4324.146 Safari/537.36","v1","","","","","","","","","","","","","","","","",""
"echo-presentation","74","493868","0.0-74.0","5d3b0da8a884020001881773","5fef55e628823a0076ec12ee","601f44800cd5f346d49dfd90","Mozilla/5.0 (Windows NT 10.0; Win64; x64) AppleWebKit/537.36 (KHTML, like Gecko) Chrome/88.0.4324.146 Safari/537.36","v1","","","","","","","","-20,-10,0,10,20","media/audio/stims/spherical_300cm_s20_c20_cd-full_matched_a20.wav","spherical","20","20","full","matched","20","10","1801"
"echo-presentation","75","495813","0.0-75.0","5d3b0da8a884020001881773","5fef55e628823a0076ec12ee","601f44800cd5f346d49dfd90","Mozilla/5.0 (Windows NT 10.0; Win64; x64) AppleWebKit/537.36 (KHTML, like Gecko) Chrome/88.0.4324.146 Safari/537.36","v1","","","","","","","","-20,-10,0,10,20","media/audio/stims/spherical_300cm_s20_c20_cd-full_matched_a10.wav","spherical","20","20","full","matched","10","10","1042"
"echo-presentation","76","497361","0.0-76.0","5d3b0da8a884020001881773","5fef55e628823a0076ec12ee","601f44800cd5f346d49dfd90","Mozilla/5.0 (Windows NT 10.0; Win64; x64) AppleWebKit/537.36 (KHTML, like Gecko) Chrome/88.0.4324.146 Safari/537.36","v1","","","","","","","","-20,-10,0,10,20","media/audio/stims/spherical_300cm_s20_c20_cd-full_matched_a20.wav","spherical","20","20","full","matched","20","10","942"
"echo-presentation","77","499520","0.0-77.0","5d3b0da8a884020001881773","5fef55e628823a0076ec12ee","601f44800cd5f346d49dfd90","Mozilla/5.0 (Windows NT 10.0; Win64; x64) AppleWebKit/537.36 (KHTML, like Gecko) Chrome/88.0.4324.146 Safari/537.36","v1","","","","","","","","-20,-10,0,10,20","media/audio/stims/spherical_300cm_s20_c20_cd-full_matched_a-20.wav","spherical","20","20","full","matched","-20","-10","1306"
"echo-presentation","78","501461","0.0-78.0","5d3b0da8a884020001881773","5fef55e628823a0076ec12ee","601f44800cd5f346d49dfd90","Mozilla/5.0 (Windows NT 10.0; Win64; x64) AppleWebKit/537.36 (KHTML, like Gecko) Chrome/88.0.4324.146 Safari/537.36","v1","","","","","","","","-20,-10,0,10,20","media/audio/stims/spherical_300cm_s20_c20_cd-full_matched_a10.wav","spherical","20","20","full","matched","10","10","1082"
"echo-presentation","79","503268","0.0-79.0","5d3b0da8a884020001881773","5fef55e628823a0076ec12ee","601f44800cd5f346d49dfd90","Mozilla/5.0 (Windows NT 10.0; Win64; x64) AppleWebKit/537.36 (KHTML, like Gecko) Chrome/88.0.4324.146 Safari/537.36","v1","","","","","","","","-20,-10,0,10,20","media/audio/stims/spherical_300cm_s20_c20_cd-full_matched_a20.wav","spherical","20","20","full","matched","20","10","924"
"echo-presentation","80","505640","0.0-80.0","5d3b0da8a884020001881773","5fef55e628823a0076ec12ee","601f44800cd5f346d49dfd90","Mozilla/5.0 (Windows NT 10.0; Win64; x64) AppleWebKit/537.36 (KHTML, like Gecko) Chrome/88.0.4324.146 Safari/537.36","v1","","","","","","","","-20,-10,0,10,20","media/audio/stims/spherical_300cm_s20_c20_cd-full_matched_a0.wav","spherical","20","20","full","matched","0","0","1448"
"echo-presentation","81","507509","0.0-81.0","5d3b0da8a884020001881773","5fef55e628823a0076ec12ee","601f44800cd5f346d49dfd90","Mozilla/5.0 (Windows NT 10.0; Win64; x64) AppleWebKit/537.36 (KHTML, like Gecko) Chrome/88.0.4324.146 Safari/537.36","v1","","","","","","","","-20,-10,0,10,20","media/audio/stims/spherical_300cm_s20_c20_cd-full_matched_a-20.wav","spherical","20","20","full","matched","-20","-10","1032"
"echo-presentation","82","509429","0.0-82.0","5d3b0da8a884020001881773","5fef55e628823a0076ec12ee","601f44800cd5f346d49dfd90","Mozilla/5.0 (Windows NT 10.0; Win64; x64) AppleWebKit/537.36 (KHTML, like Gecko) Chrome/88.0.4324.146 Safari/537.36","v1","","","","","","","","-20,-10,0,10,20","media/audio/stims/spherical_300cm_s20_c20_cd-full_matched_a0.wav","spherical","20","20","full","matched","0","10","1059"
"echo-presentation","83","512626","0.0-83.0","5d3b0da8a884020001881773","5fef55e628823a0076ec12ee","601f44800cd5f346d49dfd90","Mozilla/5.0 (Windows NT 10.0; Win64; x64) AppleWebKit/537.36 (KHTML, like Gecko) Chrome/88.0.4324.146 Safari/537.36","v1","","","","","","","","-20,-10,0,10,20","media/audio/stims/spherical_300cm_s20_c20_cd-full_matched_a-20.wav","spherical","20","20","full","matched","-20","-20","2307"
"echo-presentation","84","515271","0.0-84.0","5d3b0da8a884020001881773","5fef55e628823a0076ec12ee","601f44800cd5f346d49dfd90","Mozilla/5.0 (Windows NT 10.0; Win64; x64) AppleWebKit/537.36 (KHTML, like Gecko) Chrome/88.0.4324.146 Safari/537.36","v1","","","","","","","","-20,-10,0,10,20","media/audio/stims/spherical_300cm_s20_c20_cd-full_matched_a-10.wav","spherical","20","20","full","matched","-10","-20","1430"
"echo-presentation","85","517699","0.0-85.0","5d3b0da8a884020001881773","5fef55e628823a0076ec12ee","601f44800cd5f346d49dfd90","Mozilla/5.0 (Windows NT 10.0; Win64; x64) AppleWebKit/537.36 (KHTML, like Gecko) Chrome/88.0.4324.146 Safari/537.36","v1","","","","","","","","-20,-10,0,10,20","media/audio/stims/spherical_300cm_s20_c20_cd-full_matched_a20.wav","spherical","20","20","full","matched","20","10","1553"
"echo-presentation","86","520698","0.0-86.0","5d3b0da8a884020001881773","5fef55e628823a0076ec12ee","601f44800cd5f346d49dfd90","Mozilla/5.0 (Windows NT 10.0; Win64; x64) AppleWebKit/537.36 (KHTML, like Gecko) Chrome/88.0.4324.146 Safari/537.36","v1","","","","","","","","-20,-10,0,10,20","media/audio/stims/spherical_300cm_s20_c20_cd-full_matched_a10.wav","spherical","20","20","full","matched","10","0","2083"
"echo-presentation","87","522850","0.0-87.0","5d3b0da8a884020001881773","5fef55e628823a0076ec12ee","601f44800cd5f346d49dfd90","Mozilla/5.0 (Windows NT 10.0; Win64; x64) AppleWebKit/537.36 (KHTML, like Gecko) Chrome/88.0.4324.146 Safari/537.36","v1","","","","","","","","-20,-10,0,10,20","media/audio/stims/spherical_300cm_s20_c20_cd-full_matched_a-20.wav","spherical","20","20","full","matched","-20","10","1502"
"echo-presentation","88","525376","0.0-88.0","5d3b0da8a884020001881773","5fef55e628823a0076ec12ee","601f44800cd5f346d49dfd90","Mozilla/5.0 (Windows NT 10.0; Win64; x64) AppleWebKit/537.36 (KHTML, like Gecko) Chrome/88.0.4324.146 Safari/537.36","v1","","","","","","","","-20,-10,0,10,20","media/audio/stims/spherical_300cm_s20_c20_cd-full_matched_a0.wav","spherical","20","20","full","matched","0","10","1611"
"echo-presentation","89","527737","0.0-89.0","5d3b0da8a884020001881773","5fef55e628823a0076ec12ee","601f44800cd5f346d49dfd90","Mozilla/5.0 (Windows NT 10.0; Win64; x64) AppleWebKit/537.36 (KHTML, like Gecko) Chrome/88.0.4324.146 Safari/537.36","v1","","","","","","","","-20,-10,0,10,20","media/audio/stims/spherical_300cm_s20_c20_cd-full_matched_a-10.wav","spherical","20","20","full","matched","-10","0","1147"
"echo-presentation","90","530336","0.0-90.0","5d3b0da8a884020001881773","5fef55e628823a0076ec12ee","601f44800cd5f346d49dfd90","Mozilla/5.0 (Windows NT 10.0; Win64; x64) AppleWebKit/537.36 (KHTML, like Gecko) Chrome/88.0.4324.146 Safari/537.36","v1","","","","","","","","-20,-10,0,10,20","media/audio/stims/spherical_300cm_s20_c20_cd-full_matched_a0.wav","spherical","20","20","full","matched","0","0","1427"
"echo-presentation","91","532575","0.0-91.0","5d3b0da8a884020001881773","5fef55e628823a0076ec12ee","601f44800cd5f346d49dfd90","Mozilla/5.0 (Windows NT 10.0; Win64; x64) AppleWebKit/537.36 (KHTML, like Gecko) Chrome/88.0.4324.146 Safari/537.36","v1","","","","","","","","-20,-10,0,10,20","media/audio/stims/spherical_300cm_s20_c20_cd-full_matched_a10.wav","spherical","20","20","full","matched","10","10","1237"
"echo-presentation","92","535181","0.0-92.0","5d3b0da8a884020001881773","5fef55e628823a0076ec12ee","601f44800cd5f346d49dfd90","Mozilla/5.0 (Windows NT 10.0; Win64; x64) AppleWebKit/537.36 (KHTML, like Gecko) Chrome/88.0.4324.146 Safari/537.36","v1","","","","","","","","-20,-10,0,10,20","media/audio/stims/spherical_300cm_s20_c20_cd-full_matched_a-10.wav","spherical","20","20","full","matched","-10","10","1691"
"echo-presentation","93","538843","0.0-93.0","5d3b0da8a884020001881773","5fef55e628823a0076ec12ee","601f44800cd5f346d49dfd90","Mozilla/5.0 (Windows NT 10.0; Win64; x64) AppleWebKit/537.36 (KHTML, like Gecko) Chrome/88.0.4324.146 Safari/537.36","v1","","","","","","","","-20,-10,0,10,20","media/audio/stims/spherical_300cm_s20_c20_cd-full_matched_a-10.wav","spherical","20","20","full","matched","-10","-10","2418"
"block-bookend","94","539846","0.0-94.0","5d3b0da8a884020001881773","5fef55e628823a0076ec12ee","601f44800cd5f346d49dfd90","Mozilla/5.0 (Windows NT 10.0; Win64; x64) AppleWebKit/537.36 (KHTML, like Gecko) Chrome/88.0.4324.146 Safari/537.36","v1","","","","","","","","","","","","","","","","",""
"block-bookend","95","548586","0.0-95.0","5d3b0da8a884020001881773","5fef55e628823a0076ec12ee","601f44800cd5f346d49dfd90","Mozilla/5.0 (Windows NT 10.0; Win64; x64) AppleWebKit/537.36 (KHTML, like Gecko) Chrome/88.0.4324.146 Safari/537.36","v1","","","","","","","","","","","","","","","","",""
"echo-presentation","96","551490","0.0-96.0","5d3b0da8a884020001881773","5fef55e628823a0076ec12ee","601f44800cd5f346d49dfd90","Mozilla/5.0 (Windows NT 10.0; Win64; x64) AppleWebKit/537.36 (KHTML, like Gecko) Chrome/88.0.4324.146 Safari/537.36","v1","","","","","","","","40,50,60,70,80","media/audio/stims/spherical_300cm_s20_c20_cd-full_matched_a60.wav","spherical","20","20","full","matched","60","70","1403"
"echo-presentation","97","554035","0.0-97.0","5d3b0da8a884020001881773","5fef55e628823a0076ec12ee","601f44800cd5f346d49dfd90","Mozilla/5.0 (Windows NT 10.0; Win64; x64) AppleWebKit/537.36 (KHTML, like Gecko) Chrome/88.0.4324.146 Safari/537.36","v1","","","","","","","","40,50,60,70,80","media/audio/stims/spherical_300cm_s20_c20_cd-full_matched_a40.wav","spherical","20","20","full","matched","40","70","1326"
"echo-presentation","98","558868","0.0-98.0","5d3b0da8a884020001881773","5fef55e628823a0076ec12ee","601f44800cd5f346d49dfd90","Mozilla/5.0 (Windows NT 10.0; Win64; x64) AppleWebKit/537.36 (KHTML, like Gecko) Chrome/88.0.4324.146 Safari/537.36","v1","","","","","","","","40,50,60,70,80","media/audio/stims/spherical_300cm_s20_c20_cd-full_matched_a70.wav","spherical","20","20","full","matched","70","80","3395"
"echo-presentation","99","562560","0.0-99.0","5d3b0da8a884020001881773","5fef55e628823a0076ec12ee","601f44800cd5f346d49dfd90","Mozilla/5.0 (Windows NT 10.0; Win64; x64) AppleWebKit/537.36 (KHTML, like Gecko) Chrome/88.0.4324.146 Safari/537.36","v1","","","","","","","","40,50,60,70,80","media/audio/stims/spherical_300cm_s20_c20_cd-full_matched_a50.wav","spherical","20","20","full","matched","50","70","2090"
"echo-presentation","100","565883","0.0-100.0","5d3b0da8a884020001881773","5fef55e628823a0076ec12ee","601f44800cd5f346d49dfd90","Mozilla/5.0 (Windows NT 10.0; Win64; x64) AppleWebKit/537.36 (KHTML, like Gecko) Chrome/88.0.4324.146 Safari/537.36","v1","","","","","","","","40,50,60,70,80","media/audio/stims/spherical_300cm_s20_c20_cd-full_matched_a50.wav","spherical","20","20","full","matched","50","70","1984"
"echo-presentation","101","569157","0.0-101.0","5d3b0da8a884020001881773","5fef55e628823a0076ec12ee","601f44800cd5f346d49dfd90","Mozilla/5.0 (Windows NT 10.0; Win64; x64) AppleWebKit/537.36 (KHTML, like Gecko) Chrome/88.0.4324.146 Safari/537.36","v1","","","","","","","","40,50,60,70,80","media/audio/stims/spherical_300cm_s20_c20_cd-full_matched_a60.wav","spherical","20","20","full","matched","60","60","2130"
"echo-presentation","102","571825","0.0-102.0","5d3b0da8a884020001881773","5fef55e628823a0076ec12ee","601f44800cd5f346d49dfd90","Mozilla/5.0 (Windows NT 10.0; Win64; x64) AppleWebKit/537.36 (KHTML, like Gecko) Chrome/88.0.4324.146 Safari/537.36","v1","","","","","","","","40,50,60,70,80","media/audio/stims/spherical_300cm_s20_c20_cd-full_matched_a40.wav","spherical","20","20","full","matched","40","60","1489"
"echo-presentation","103","573918","0.0-103.0","5d3b0da8a884020001881773","5fef55e628823a0076ec12ee","601f44800cd5f346d49dfd90","Mozilla/5.0 (Windows NT 10.0; Win64; x64) AppleWebKit/537.36 (KHTML, like Gecko) Chrome/88.0.4324.146 Safari/537.36","v1","","","","","","","","40,50,60,70,80","media/audio/stims/spherical_300cm_s20_c20_cd-full_matched_a70.wav","spherical","20","20","full","matched","70","70","1157"
"echo-presentation","104","576001","0.0-104.0","5d3b0da8a884020001881773","5fef55e628823a0076ec12ee","601f44800cd5f346d49dfd90","Mozilla/5.0 (Windows NT 10.0; Win64; x64) AppleWebKit/537.36 (KHTML, like Gecko) Chrome/88.0.4324.146 Safari/537.36","v1","","","","","","","","40,50,60,70,80","media/audio/stims/spherical_300cm_s20_c20_cd-full_matched_a50.wav","spherical","20","20","full","matched","50","70","1197"
"echo-presentation","105","578841","0.0-105.0","5d3b0da8a884020001881773","5fef55e628823a0076ec12ee","601f44800cd5f346d49dfd90","Mozilla/5.0 (Windows NT 10.0; Win64; x64) AppleWebKit/537.36 (KHTML, like Gecko) Chrome/88.0.4324.146 Safari/537.36","v1","","","","","","","","40,50,60,70,80","media/audio/stims/spherical_300cm_s20_c20_cd-full_matched_a80.wav","spherical","20","20","full","matched","80","80","1998"
"echo-presentation","106","581621","0.0-106.0","5d3b0da8a884020001881773","5fef55e628823a0076ec12ee","601f44800cd5f346d49dfd90","Mozilla/5.0 (Windows NT 10.0; Win64; x64) AppleWebKit/537.36 (KHTML, like Gecko) Chrome/88.0.4324.146 Safari/537.36","v1","","","","","","","","40,50,60,70,80","media/audio/stims/spherical_300cm_s20_c20_cd-full_matched_a80.wav","spherical","20","20","full","matched","80","70","1411"
"echo-presentation","107","584248","0.0-107.0","5d3b0da8a884020001881773","5fef55e628823a0076ec12ee","601f44800cd5f346d49dfd90","Mozilla/5.0 (Windows NT 10.0; Win64; x64) AppleWebKit/537.36 (KHTML, like Gecko) Chrome/88.0.4324.146 Safari/537.36","v1","","","","","","","","40,50,60,70,80","media/audio/stims/spherical_300cm_s20_c20_cd-full_matched_a80.wav","spherical","20","20","full","matched","80","70","1428"
"echo-presentation","108","586635","0.0-108.0","5d3b0da8a884020001881773","5fef55e628823a0076ec12ee","601f44800cd5f346d49dfd90","Mozilla/5.0 (Windows NT 10.0; Win64; x64) AppleWebKit/537.36 (KHTML, like Gecko) Chrome/88.0.4324.146 Safari/537.36","v1","","","","","","","","40,50,60,70,80","media/audio/stims/spherical_300cm_s20_c20_cd-full_matched_a70.wav","spherical","20","20","full","matched","70","80","1529"
"echo-presentation","109","589409","0.0-109.0","5d3b0da8a884020001881773","5fef55e628823a0076ec12ee","601f44800cd5f346d49dfd90","Mozilla/5.0 (Windows NT 10.0; Win64; x64) AppleWebKit/537.36 (KHTML, like Gecko) Chrome/88.0.4324.146 Safari/537.36","v1","","","","","","","","40,50,60,70,80","media/audio/stims/spherical_300cm_s20_c20_cd-full_matched_a50.wav","spherical","20","20","full","matched","50","80","1417"
"echo-presentation","110","592362","0.0-110.0","5d3b0da8a884020001881773","5fef55e628823a0076ec12ee","601f44800cd5f346d49dfd90","Mozilla/5.0 (Windows NT 10.0; Win64; x64) AppleWebKit/537.36 (KHTML, like Gecko) Chrome/88.0.4324.146 Safari/537.36","v1","","","","","","","","40,50,60,70,80","media/audio/stims/spherical_300cm_s20_c20_cd-full_matched_a40.wav","spherical","20","20","full","matched","40","80","1570"
"echo-presentation","111","594838","0.0-111.0","5d3b0da8a884020001881773","5fef55e628823a0076ec12ee","601f44800cd5f346d49dfd90","Mozilla/5.0 (Windows NT 10.0; Win64; x64) AppleWebKit/537.36 (KHTML, like Gecko) Chrome/88.0.4324.146 Safari/537.36","v1","","","","","","","","40,50,60,70,80","media/audio/stims/spherical_300cm_s20_c20_cd-full_matched_a70.wav","spherical","20","20","full","matched","70","80","1283"
"echo-presentation","112","597965","0.0-112.0","5d3b0da8a884020001881773","5fef55e628823a0076ec12ee","601f44800cd5f346d49dfd90","Mozilla/5.0 (Windows NT 10.0; Win64; x64) AppleWebKit/537.36 (KHTML, like Gecko) Chrome/88.0.4324.146 Safari/537.36","v1","","","","","","","","40,50,60,70,80","media/audio/stims/spherical_300cm_s20_c20_cd-full_matched_a80.wav","spherical","20","20","full","matched","80","80","1425"
"echo-presentation","113","600856","0.0-113.0","5d3b0da8a884020001881773","5fef55e628823a0076ec12ee","601f44800cd5f346d49dfd90","Mozilla/5.0 (Windows NT 10.0; Win64; x64) AppleWebKit/537.36 (KHTML, like Gecko) Chrome/88.0.4324.146 Safari/537.36","v1","","","","","","","","40,50,60,70,80","media/audio/stims/spherical_300cm_s20_c20_cd-full_matched_a60.wav","spherical","20","20","full","matched","60","80","1263"
"echo-presentation","114","604052","0.0-114.0","5d3b0da8a884020001881773","5fef55e628823a0076ec12ee","601f44800cd5f346d49dfd90","Mozilla/5.0 (Windows NT 10.0; Win64; x64) AppleWebKit/537.36 (KHTML, like Gecko) Chrome/88.0.4324.146 Safari/537.36","v1","","","","","","","","40,50,60,70,80","media/audio/stims/spherical_300cm_s20_c20_cd-full_matched_a60.wav","spherical","20","20","full","matched","60","70","1932"
"echo-presentation","115","607063","0.0-115.0","5d3b0da8a884020001881773","5fef55e628823a0076ec12ee","601f44800cd5f346d49dfd90","Mozilla/5.0 (Windows NT 10.0; Win64; x64) AppleWebKit/537.36 (KHTML, like Gecko) Chrome/88.0.4324.146 Safari/537.36","v1","","","","","","","","40,50,60,70,80","media/audio/stims/spherical_300cm_s20_c20_cd-full_matched_a40.wav","spherical","20","20","full","matched","40","70","1483"
"block-bookend","116","608153","0.0-116.0","5d3b0da8a884020001881773","5fef55e628823a0076ec12ee","601f44800cd5f346d49dfd90","Mozilla/5.0 (Windows NT 10.0; Win64; x64) AppleWebKit/537.36 (KHTML, like Gecko) Chrome/88.0.4324.146 Safari/537.36","v1","","","","","","","","","","","","","","","","",""
"block-bookend","117","615712","0.0-117.0","5d3b0da8a884020001881773","5fef55e628823a0076ec12ee","601f44800cd5f346d49dfd90","Mozilla/5.0 (Windows NT 10.0; Win64; x64) AppleWebKit/537.36 (KHTML, like Gecko) Chrome/88.0.4324.146 Safari/537.36","v1","","","","","","","","","","","","","","","","",""
"echo-presentation","118","619009","0.0-118.0","5d3b0da8a884020001881773","5fef55e628823a0076ec12ee","601f44800cd5f346d49dfd90","Mozilla/5.0 (Windows NT 10.0; Win64; x64) AppleWebKit/537.36 (KHTML, like Gecko) Chrome/88.0.4324.146 Safari/537.36","v1","","","","","","","","40,50,60,70,80","media/audio/stims/spherical_300cm_s20_c20_cd-full_matched_a50.wav","spherical","20","20","full","matched","50","70","1153"
"echo-presentation","119","622068","0.0-119.0","5d3b0da8a884020001881773","5fef55e628823a0076ec12ee","601f44800cd5f346d49dfd90","Mozilla/5.0 (Windows NT 10.0; Win64; x64) AppleWebKit/537.36 (KHTML, like Gecko) Chrome/88.0.4324.146 Safari/537.36","v1","","","","","","","","40,50,60,70,80","media/audio/stims/spherical_300cm_s20_c20_cd-full_matched_a60.wav","spherical","20","20","full","matched","60","60","1296"
"echo-presentation","120","624116","0.0-120.0","5d3b0da8a884020001881773","5fef55e628823a0076ec12ee","601f44800cd5f346d49dfd90","Mozilla/5.0 (Windows NT 10.0; Win64; x64) AppleWebKit/537.36 (KHTML, like Gecko) Chrome/88.0.4324.146 Safari/537.36","v1","","","","","","","","40,50,60,70,80","media/audio/stims/spherical_300cm_s20_c20_cd-full_matched_a60.wav","spherical","20","20","full","matched","60","60","941"
"echo-presentation","121","626055","0.0-121.0","5d3b0da8a884020001881773","5fef55e628823a0076ec12ee","601f44800cd5f346d49dfd90","Mozilla/5.0 (Windows NT 10.0; Win64; x64) AppleWebKit/537.36 (KHTML, like Gecko) Chrome/88.0.4324.146 Safari/537.36","v1","","","","","","","","40,50,60,70,80","media/audio/stims/spherical_300cm_s20_c20_cd-full_matched_a40.wav","spherical","20","20","full","matched","40","60","1022"
"echo-presentation","122","628444","0.0-122.0","5d3b0da8a884020001881773","5fef55e628823a0076ec12ee","601f44800cd5f346d49dfd90","Mozilla/5.0 (Windows NT 10.0; Win64; x64) AppleWebKit/537.36 (KHTML, like Gecko) Chrome/88.0.4324.146 Safari/537.36","v1","","","","","","","","40,50,60,70,80","media/audio/stims/spherical_300cm_s20_c20_cd-full_matched_a50.wav","spherical","20","20","full","matched","50","60","1312"
"echo-presentation","123","630599","0.0-123.0","5d3b0da8a884020001881773","5fef55e628823a0076ec12ee","601f44800cd5f346d49dfd90","Mozilla/5.0 (Windows NT 10.0; Win64; x64) AppleWebKit/537.36 (KHTML, like Gecko) Chrome/88.0.4324.146 Safari/537.36","v1","","","","","","","","40,50,60,70,80","media/audio/stims/spherical_300cm_s20_c20_cd-full_matched_a70.wav","spherical","20","20","full","matched","70","70","1231"
"echo-presentation","124","632263","0.0-124.0","5d3b0da8a884020001881773","5fef55e628823a0076ec12ee","601f44800cd5f346d49dfd90","Mozilla/5.0 (Windows NT 10.0; Win64; x64) AppleWebKit/537.36 (KHTML, like Gecko) Chrome/88.0.4324.146 Safari/537.36","v1","","","","","","","","40,50,60,70,80","media/audio/stims/spherical_300cm_s20_c20_cd-full_matched_a80.wav","spherical","20","20","full","matched","80","70","1116"
"echo-presentation","125","634184","0.0-125.0","5d3b0da8a884020001881773","5fef55e628823a0076ec12ee","601f44800cd5f346d49dfd90","Mozilla/5.0 (Windows NT 10.0; Win64; x64) AppleWebKit/537.36 (KHTML, like Gecko) Chrome/88.0.4324.146 Safari/537.36","v1","","","","","","","","40,50,60,70,80","media/audio/stims/spherical_300cm_s20_c20_cd-full_matched_a60.wav","spherical","20","20","full","matched","60","60","1033"
"echo-presentation","126","635972","0.0-126.0","5d3b0da8a884020001881773","5fef55e628823a0076ec12ee","601f44800cd5f346d49dfd90","Mozilla/5.0 (Windows NT 10.0; Win64; x64) AppleWebKit/537.36 (KHTML, like Gecko) Chrome/88.0.4324.146 Safari/537.36","v1","","","","","","","","40,50,60,70,80","media/audio/stims/spherical_300cm_s20_c20_cd-full_matched_a80.wav","spherical","20","20","full","matched","80","60","919"
"echo-presentation","127","637833","0.0-127.0","5d3b0da8a884020001881773","5fef55e628823a0076ec12ee","601f44800cd5f346d49dfd90","Mozilla/5.0 (Windows NT 10.0; Win64; x64) AppleWebKit/537.36 (KHTML, like Gecko) Chrome/88.0.4324.146 Safari/537.36","v1","","","","","","","","40,50,60,70,80","media/audio/stims/spherical_300cm_s20_c20_cd-full_matched_a50.wav","spherical","20","20","full","matched","50","60","959"
"echo-presentation","128","640190","0.0-128.0","5d3b0da8a884020001881773","5fef55e628823a0076ec12ee","601f44800cd5f346d49dfd90","Mozilla/5.0 (Windows NT 10.0; Win64; x64) AppleWebKit/537.36 (KHTML, like Gecko) Chrome/88.0.4324.146 Safari/537.36","v1","","","","","","","","40,50,60,70,80","media/audio/stims/spherical_300cm_s20_c20_cd-full_matched_a80.wav","spherical","20","20","full","matched","80","70","1392"
"echo-presentation","129","642490","0.0-129.0","5d3b0da8a884020001881773","5fef55e628823a0076ec12ee","601f44800cd5f346d49dfd90","Mozilla/5.0 (Windows NT 10.0; Win64; x64) AppleWebKit/537.36 (KHTML, like Gecko) Chrome/88.0.4324.146 Safari/537.36","v1","","","","","","","","40,50,60,70,80","media/audio/stims/spherical_300cm_s20_c20_cd-full_matched_a80.wav","spherical","20","20","full","matched","80","70","1461"
"echo-presentation","130","644490","0.0-130.0","5d3b0da8a884020001881773","5fef55e628823a0076ec12ee","601f44800cd5f346d49dfd90","Mozilla/5.0 (Windows NT 10.0; Win64; x64) AppleWebKit/537.36 (KHTML, like Gecko) Chrome/88.0.4324.146 Safari/537.36","v1","","","","","","","","40,50,60,70,80","media/audio/stims/spherical_300cm_s20_c20_cd-full_matched_a70.wav","spherical","20","20","full","matched","70","70","1212"
"echo-presentation","131","646784","0.0-131.0","5d3b0da8a884020001881773","5fef55e628823a0076ec12ee","601f44800cd5f346d49dfd90","Mozilla/5.0 (Windows NT 10.0; Win64; x64) AppleWebKit/537.36 (KHTML, like Gecko) Chrome/88.0.4324.146 Safari/537.36","v1","","","","","","","","40,50,60,70,80","media/audio/stims/spherical_300cm_s20_c20_cd-full_matched_a40.wav","spherical","20","20","full","matched","40","70","1167"
"echo-presentation","132","649107","0.0-132.0","5d3b0da8a884020001881773","5fef55e628823a0076ec12ee","601f44800cd5f346d49dfd90","Mozilla/5.0 (Windows NT 10.0; Win64; x64) AppleWebKit/537.36 (KHTML, like Gecko) Chrome/88.0.4324.146 Safari/537.36","v1","","","","","","","","40,50,60,70,80","media/audio/stims/spherical_300cm_s20_c20_cd-full_matched_a70.wav","spherical","20","20","full","matched","70","70","1533"
"echo-presentation","133","652287","0.0-133.0","5d3b0da8a884020001881773","5fef55e628823a0076ec12ee","601f44800cd5f346d49dfd90","Mozilla/5.0 (Windows NT 10.0; Win64; x64) AppleWebKit/537.36 (KHTML, like Gecko) Chrome/88.0.4324.146 Safari/537.36","v1","","","","","","","","40,50,60,70,80","media/audio/stims/spherical_300cm_s20_c20_cd-full_matched_a70.wav","spherical","20","20","full","matched","70","70","2524"
"echo-presentation","134","654230","0.0-134.0","5d3b0da8a884020001881773","5fef55e628823a0076ec12ee","601f44800cd5f346d49dfd90","Mozilla/5.0 (Windows NT 10.0; Win64; x64) AppleWebKit/537.36 (KHTML, like Gecko) Chrome/88.0.4324.146 Safari/537.36","v1","","","","","","","","40,50,60,70,80","media/audio/stims/spherical_300cm_s20_c20_cd-full_matched_a50.wav","spherical","20","20","full","matched","50","70","1123"
"echo-presentation","135","656930","0.0-135.0","5d3b0da8a884020001881773","5fef55e628823a0076ec12ee","601f44800cd5f346d49dfd90","Mozilla/5.0 (Windows NT 10.0; Win64; x64) AppleWebKit/537.36 (KHTML, like Gecko) Chrome/88.0.4324.146 Safari/537.36","v1","","","","","","","","40,50,60,70,80","media/audio/stims/spherical_300cm_s20_c20_cd-full_matched_a60.wav","spherical","20","20","full","matched","60","70","1802"
"echo-presentation","136","658881","0.0-136.0","5d3b0da8a884020001881773","5fef55e628823a0076ec12ee","601f44800cd5f346d49dfd90","Mozilla/5.0 (Windows NT 10.0; Win64; x64) AppleWebKit/537.36 (KHTML, like Gecko) Chrome/88.0.4324.146 Safari/537.36","v1","","","","","","","","40,50,60,70,80","media/audio/stims/spherical_300cm_s20_c20_cd-full_matched_a40.wav","spherical","20","20","full","matched","40","70","1059"
"echo-presentation","137","660854","0.0-137.0","5d3b0da8a884020001881773","5fef55e628823a0076ec12ee","601f44800cd5f346d49dfd90","Mozilla/5.0 (Windows NT 10.0; Win64; x64) AppleWebKit/537.36 (KHTML, like Gecko) Chrome/88.0.4324.146 Safari/537.36","v1","","","","","","","","40,50,60,70,80","media/audio/stims/spherical_300cm_s20_c20_cd-full_matched_a40.wav","spherical","20","20","full","matched","40","70","1132"
"block-bookend","138","662517","0.0-138.0","5d3b0da8a884020001881773","5fef55e628823a0076ec12ee","601f44800cd5f346d49dfd90","Mozilla/5.0 (Windows NT 10.0; Win64; x64) AppleWebKit/537.36 (KHTML, like Gecko) Chrome/88.0.4324.146 Safari/537.36","v1","","","","","","","","","","","","","","","","",""
