"trial_type","trial_index","time_elapsed","internal_node_id","prolificPid","studyId","sessionId","userAgent","version","rt","stimulus","key_press","chosenKeyset","failureCount","testIndex","globalVolume","choices","filename","modelName","slowdown","compensation","compensationDescriptor","receiverOrientationType","azimuth","responseAzimuth","responseDelay"
"pavlovia","0","3","0.0-0.0","5c9536793ae6fe0015ad8f0b","60242478c74f84097a222710","60242620be52460970dfba39","Mozilla/5.0 (Windows NT 10.0; Win64; x64; rv:85.0) Gecko/20100101 Firefox/85.0","v1-up-stims","","","","","","","","","","","","","","","","",""
"html-keyboard-response","1","4411","0.0-1.0","5c9536793ae6fe0015ad8f0b","60242478c74f84097a222710","60242620be52460970dfba39","Mozilla/5.0 (Windows NT 10.0; Win64; x64; rv:85.0) Gecko/20100101 Firefox/85.0","v1-up-stims","4408","<div><h1>Welcome!</h1><p>Press any key to continue.</p></div>","13","","","","","","","","","","","","","",""
"consent-form","2","36940","0.0-2.0","5c9536793ae6fe0015ad8f0b","60242478c74f84097a222710","60242620be52460970dfba39","Mozilla/5.0 (Windows NT 10.0; Win64; x64; rv:85.0) Gecko/20100101 Firefox/85.0","v1-up-stims","","","","","","","","","","","","","","","","",""
"keyset-select","3","105428","0.0-3.0","5c9536793ae6fe0015ad8f0b","60242478c74f84097a222710","60242620be52460970dfba39","Mozilla/5.0 (Windows NT 10.0; Win64; x64; rv:85.0) Gecko/20100101 Firefox/85.0","v1-up-stims","","","","left-hand","","","","","","","","","","","","",""
"headphone-check","4","233243","0.0-4.0","5c9536793ae6fe0015ad8f0b","60242478c74f84097a222710","60242620be52460970dfba39","Mozilla/5.0 (Windows NT 10.0; Win64; x64; rv:85.0) Gecko/20100101 Firefox/85.0","v1-up-stims","","","","","0","6","0.3","","","","","","","","","",""
"headphone-backwards-check","5","307803","0.0-5.0","5c9536793ae6fe0015ad8f0b","60242478c74f84097a222710","60242620be52460970dfba39","Mozilla/5.0 (Windows NT 10.0; Win64; x64; rv:85.0) Gecko/20100101 Firefox/85.0","v1-up-stims","","","","","0","","","","","","","","","","","",""
"training","6","470675","0.0-6.0","5c9536793ae6fe0015ad8f0b","60242478c74f84097a222710","60242620be52460970dfba39","Mozilla/5.0 (Windows NT 10.0; Win64; x64; rv:85.0) Gecko/20100101 Firefox/85.0","v1-up-stims","","","","","","","","","","","","","","","","",""
"block-bookend","7","484563","0.0-7.0","5c9536793ae6fe0015ad8f0b","60242478c74f84097a222710","60242620be52460970dfba39","Mozilla/5.0 (Windows NT 10.0; Win64; x64; rv:85.0) Gecko/20100101 Firefox/85.0","v1-up-stims","","","","","","","","","","","","","","","","",""
"echo-presentation","8","497789","0.0-8.0","5c9536793ae6fe0015ad8f0b","60242478c74f84097a222710","60242620be52460970dfba39","Mozilla/5.0 (Windows NT 10.0; Win64; x64; rv:85.0) Gecko/20100101 Firefox/85.0","v1-up-stims","","","","","","","","40,50,60,70,80","media/audio/stims/spherical_300cm_s20_c10_cd-half_matched_a50.wav","spherical","20","10","half","matched","50","70","9872"
"echo-presentation","9","502390","0.0-9.0","5c9536793ae6fe0015ad8f0b","60242478c74f84097a222710","60242620be52460970dfba39","Mozilla/5.0 (Windows NT 10.0; Win64; x64; rv:85.0) Gecko/20100101 Firefox/85.0","v1-up-stims","","","","","","","","40,50,60,70,80","media/audio/stims/spherical_300cm_s20_c10_cd-half_matched_a80.wav","spherical","20","10","half","matched","80","80","1288"
"echo-presentation","10","505139","0.0-10.0","5c9536793ae6fe0015ad8f0b","60242478c74f84097a222710","60242620be52460970dfba39","Mozilla/5.0 (Windows NT 10.0; Win64; x64; rv:85.0) Gecko/20100101 Firefox/85.0","v1-up-stims","","","","","","","","40,50,60,70,80","media/audio/stims/spherical_300cm_s20_c10_cd-half_matched_a40.wav","spherical","20","10","half","matched","40","60","1535"
"echo-presentation","11","508648","0.0-11.0","5c9536793ae6fe0015ad8f0b","60242478c74f84097a222710","60242620be52460970dfba39","Mozilla/5.0 (Windows NT 10.0; Win64; x64; rv:85.0) Gecko/20100101 Firefox/85.0","v1-up-stims","","","","","","","","40,50,60,70,80","media/audio/stims/spherical_300cm_s20_c10_cd-half_matched_a60.wav","spherical","20","10","half","matched","60","70","1446"
"echo-presentation","12","510841","0.0-12.0","5c9536793ae6fe0015ad8f0b","60242478c74f84097a222710","60242620be52460970dfba39","Mozilla/5.0 (Windows NT 10.0; Win64; x64; rv:85.0) Gecko/20100101 Firefox/85.0","v1-up-stims","","","","","","","","40,50,60,70,80","media/audio/stims/spherical_300cm_s20_c10_cd-half_matched_a60.wav","spherical","20","10","half","matched","60","80","928"
"echo-presentation","13","515183","0.0-13.0","5c9536793ae6fe0015ad8f0b","60242478c74f84097a222710","60242620be52460970dfba39","Mozilla/5.0 (Windows NT 10.0; Win64; x64; rv:85.0) Gecko/20100101 Firefox/85.0","v1-up-stims","","","","","","","","40,50,60,70,80","media/audio/stims/spherical_300cm_s20_c10_cd-half_matched_a50.wav","spherical","20","10","half","matched","50","60","1192"
"echo-presentation","14","517568","0.0-14.0","5c9536793ae6fe0015ad8f0b","60242478c74f84097a222710","60242620be52460970dfba39","Mozilla/5.0 (Windows NT 10.0; Win64; x64; rv:85.0) Gecko/20100101 Firefox/85.0","v1-up-stims","","","","","","","","40,50,60,70,80","media/audio/stims/spherical_300cm_s20_c10_cd-half_matched_a70.wav","spherical","20","10","half","matched","70","80","1087"
"echo-presentation","15","520010","0.0-15.0","5c9536793ae6fe0015ad8f0b","60242478c74f84097a222710","60242620be52460970dfba39","Mozilla/5.0 (Windows NT 10.0; Win64; x64; rv:85.0) Gecko/20100101 Firefox/85.0","v1-up-stims","","","","","","","","40,50,60,70,80","media/audio/stims/spherical_300cm_s20_c10_cd-half_matched_a50.wav","spherical","20","10","half","matched","50","70","1134"
"echo-presentation","16","522286","0.0-16.0","5c9536793ae6fe0015ad8f0b","60242478c74f84097a222710","60242620be52460970dfba39","Mozilla/5.0 (Windows NT 10.0; Win64; x64; rv:85.0) Gecko/20100101 Firefox/85.0","v1-up-stims","","","","","","","","40,50,60,70,80","media/audio/stims/spherical_300cm_s20_c10_cd-half_matched_a40.wav","spherical","20","10","half","matched","40","60","824"
"echo-presentation","17","525951","0.0-17.0","5c9536793ae6fe0015ad8f0b","60242478c74f84097a222710","60242620be52460970dfba39","Mozilla/5.0 (Windows NT 10.0; Win64; x64; rv:85.0) Gecko/20100101 Firefox/85.0","v1-up-stims","","","","","","","","40,50,60,70,80","media/audio/stims/spherical_300cm_s20_c10_cd-half_matched_a60.wav","spherical","20","10","half","matched","60","80","2215"
"echo-presentation","18","528238","0.0-18.0","5c9536793ae6fe0015ad8f0b","60242478c74f84097a222710","60242620be52460970dfba39","Mozilla/5.0 (Windows NT 10.0; Win64; x64; rv:85.0) Gecko/20100101 Firefox/85.0","v1-up-stims","","","","","","","","40,50,60,70,80","media/audio/stims/spherical_300cm_s20_c10_cd-half_matched_a80.wav","spherical","20","10","half","matched","80","70","896"
"echo-presentation","19","530407","0.0-19.0","5c9536793ae6fe0015ad8f0b","60242478c74f84097a222710","60242620be52460970dfba39","Mozilla/5.0 (Windows NT 10.0; Win64; x64; rv:85.0) Gecko/20100101 Firefox/85.0","v1-up-stims","","","","","","","","40,50,60,70,80","media/audio/stims/spherical_300cm_s20_c10_cd-half_matched_a50.wav","spherical","20","10","half","matched","50","80","1039"
"echo-presentation","20","532211","0.0-20.0","5c9536793ae6fe0015ad8f0b","60242478c74f84097a222710","60242620be52460970dfba39","Mozilla/5.0 (Windows NT 10.0; Win64; x64; rv:85.0) Gecko/20100101 Firefox/85.0","v1-up-stims","","","","","","","","40,50,60,70,80","media/audio/stims/spherical_300cm_s20_c10_cd-half_matched_a40.wav","spherical","20","10","half","matched","40","60","807"
"echo-presentation","21","534698","0.0-21.0","5c9536793ae6fe0015ad8f0b","60242478c74f84097a222710","60242620be52460970dfba39","Mozilla/5.0 (Windows NT 10.0; Win64; x64; rv:85.0) Gecko/20100101 Firefox/85.0","v1-up-stims","","","","","","","","40,50,60,70,80","media/audio/stims/spherical_300cm_s20_c10_cd-half_matched_a80.wav","spherical","20","10","half","matched","80","80","1224"
"echo-presentation","22","537191","0.0-22.0","5c9536793ae6fe0015ad8f0b","60242478c74f84097a222710","60242620be52460970dfba39","Mozilla/5.0 (Windows NT 10.0; Win64; x64; rv:85.0) Gecko/20100101 Firefox/85.0","v1-up-stims","","","","","","","","40,50,60,70,80","media/audio/stims/spherical_300cm_s20_c10_cd-half_matched_a70.wav","spherical","20","10","half","matched","70","70","1560"
"echo-presentation","23","539548","0.0-23.0","5c9536793ae6fe0015ad8f0b","60242478c74f84097a222710","60242620be52460970dfba39","Mozilla/5.0 (Windows NT 10.0; Win64; x64; rv:85.0) Gecko/20100101 Firefox/85.0","v1-up-stims","","","","","","","","40,50,60,70,80","media/audio/stims/spherical_300cm_s20_c10_cd-half_matched_a60.wav","spherical","20","10","half","matched","60","50","1487"
"echo-presentation","24","542352","0.0-24.0","5c9536793ae6fe0015ad8f0b","60242478c74f84097a222710","60242620be52460970dfba39","Mozilla/5.0 (Windows NT 10.0; Win64; x64; rv:85.0) Gecko/20100101 Firefox/85.0","v1-up-stims","","","","","","","","40,50,60,70,80","media/audio/stims/spherical_300cm_s20_c10_cd-half_matched_a80.wav","spherical","20","10","half","matched","80","80","1247"
"echo-presentation","25","544397","0.0-25.0","5c9536793ae6fe0015ad8f0b","60242478c74f84097a222710","60242620be52460970dfba39","Mozilla/5.0 (Windows NT 10.0; Win64; x64; rv:85.0) Gecko/20100101 Firefox/85.0","v1-up-stims","","","","","","","","40,50,60,70,80","media/audio/stims/spherical_300cm_s20_c10_cd-half_matched_a40.wav","spherical","20","10","half","matched","40","60","935"
"echo-presentation","26","547658","0.0-26.0","5c9536793ae6fe0015ad8f0b","60242478c74f84097a222710","60242620be52460970dfba39","Mozilla/5.0 (Windows NT 10.0; Win64; x64; rv:85.0) Gecko/20100101 Firefox/85.0","v1-up-stims","","","","","","","","40,50,60,70,80","media/audio/stims/spherical_300cm_s20_c10_cd-half_matched_a70.wav","spherical","20","10","half","matched","70","70","790"
"echo-presentation","27","549670","0.0-27.0","5c9536793ae6fe0015ad8f0b","60242478c74f84097a222710","60242620be52460970dfba39","Mozilla/5.0 (Windows NT 10.0; Win64; x64; rv:85.0) Gecko/20100101 Firefox/85.0","v1-up-stims","","","","","","","","40,50,60,70,80","media/audio/stims/spherical_300cm_s20_c10_cd-half_matched_a70.wav","spherical","20","10","half","matched","70","50","880"
"block-bookend","28","553867","0.0-28.0","5c9536793ae6fe0015ad8f0b","60242478c74f84097a222710","60242620be52460970dfba39","Mozilla/5.0 (Windows NT 10.0; Win64; x64; rv:85.0) Gecko/20100101 Firefox/85.0","v1-up-stims","","","","","","","","","","","","","","","","",""
"block-bookend","29","566763","0.0-29.0","5c9536793ae6fe0015ad8f0b","60242478c74f84097a222710","60242620be52460970dfba39","Mozilla/5.0 (Windows NT 10.0; Win64; x64; rv:85.0) Gecko/20100101 Firefox/85.0","v1-up-stims","","","","","","","","","","","","","","","","",""
"echo-presentation","30","569416","0.0-30.0","5c9536793ae6fe0015ad8f0b","60242478c74f84097a222710","60242620be52460970dfba39","Mozilla/5.0 (Windows NT 10.0; Win64; x64; rv:85.0) Gecko/20100101 Firefox/85.0","v1-up-stims","","","","","","","","40,50,60,70,80","media/audio/stims/spherical_300cm_s20_c10_cd-half_matched_a80.wav","spherical","20","10","half","matched","80","60","1016"
"echo-presentation","31","570920","0.0-31.0","5c9536793ae6fe0015ad8f0b","60242478c74f84097a222710","60242620be52460970dfba39","Mozilla/5.0 (Windows NT 10.0; Win64; x64; rv:85.0) Gecko/20100101 Firefox/85.0","v1-up-stims","","","","","","","","40,50,60,70,80","media/audio/stims/spherical_300cm_s20_c10_cd-half_matched_a50.wav","spherical","20","10","half","matched","50","50","640"
"echo-presentation","32","572412","0.0-32.0","5c9536793ae6fe0015ad8f0b","60242478c74f84097a222710","60242620be52460970dfba39","Mozilla/5.0 (Windows NT 10.0; Win64; x64; rv:85.0) Gecko/20100101 Firefox/85.0","v1-up-stims","","","","","","","","40,50,60,70,80","media/audio/stims/spherical_300cm_s20_c10_cd-half_matched_a60.wav","spherical","20","10","half","matched","60","70","615"
"echo-presentation","33","574825","0.0-33.0","5c9536793ae6fe0015ad8f0b","60242478c74f84097a222710","60242620be52460970dfba39","Mozilla/5.0 (Windows NT 10.0; Win64; x64; rv:85.0) Gecko/20100101 Firefox/85.0","v1-up-stims","","","","","","","","40,50,60,70,80","media/audio/stims/spherical_300cm_s20_c10_cd-half_matched_a50.wav","spherical","20","10","half","matched","50","80","911"
"echo-presentation","34","576449","0.0-34.0","5c9536793ae6fe0015ad8f0b","60242478c74f84097a222710","60242620be52460970dfba39","Mozilla/5.0 (Windows NT 10.0; Win64; x64; rv:85.0) Gecko/20100101 Firefox/85.0","v1-up-stims","","","","","","","","40,50,60,70,80","media/audio/stims/spherical_300cm_s20_c10_cd-half_matched_a40.wav","spherical","20","10","half","matched","40","60","735"
"echo-presentation","35","578151","0.0-35.0","5c9536793ae6fe0015ad8f0b","60242478c74f84097a222710","60242620be52460970dfba39","Mozilla/5.0 (Windows NT 10.0; Win64; x64; rv:85.0) Gecko/20100101 Firefox/85.0","v1-up-stims","","","","","","","","40,50,60,70,80","media/audio/stims/spherical_300cm_s20_c10_cd-half_matched_a60.wav","spherical","20","10","half","matched","60","50","879"
"echo-presentation","36","580060","0.0-36.0","5c9536793ae6fe0015ad8f0b","60242478c74f84097a222710","60242620be52460970dfba39","Mozilla/5.0 (Windows NT 10.0; Win64; x64; rv:85.0) Gecko/20100101 Firefox/85.0","v1-up-stims","","","","","","","","40,50,60,70,80","media/audio/stims/spherical_300cm_s20_c10_cd-half_matched_a60.wav","spherical","20","10","half","matched","60","70","872"
"echo-presentation","37","581978","0.0-37.0","5c9536793ae6fe0015ad8f0b","60242478c74f84097a222710","60242620be52460970dfba39","Mozilla/5.0 (Windows NT 10.0; Win64; x64; rv:85.0) Gecko/20100101 Firefox/85.0","v1-up-stims","","","","","","","","40,50,60,70,80","media/audio/stims/spherical_300cm_s20_c10_cd-half_matched_a50.wav","spherical","20","10","half","matched","50","60","967"
"echo-presentation","38","583731","0.0-38.0","5c9536793ae6fe0015ad8f0b","60242478c74f84097a222710","60242620be52460970dfba39","Mozilla/5.0 (Windows NT 10.0; Win64; x64; rv:85.0) Gecko/20100101 Firefox/85.0","v1-up-stims","","","","","","","","40,50,60,70,80","media/audio/stims/spherical_300cm_s20_c10_cd-half_matched_a70.wav","spherical","20","10","half","matched","70","80","911"
"echo-presentation","39","585373","0.0-39.0","5c9536793ae6fe0015ad8f0b","60242478c74f84097a222710","60242620be52460970dfba39","Mozilla/5.0 (Windows NT 10.0; Win64; x64; rv:85.0) Gecko/20100101 Firefox/85.0","v1-up-stims","","","","","","","","40,50,60,70,80","media/audio/stims/spherical_300cm_s20_c10_cd-half_matched_a60.wav","spherical","20","10","half","matched","60","60","735"
"echo-presentation","40","587161","0.0-40.0","5c9536793ae6fe0015ad8f0b","60242478c74f84097a222710","60242620be52460970dfba39","Mozilla/5.0 (Windows NT 10.0; Win64; x64; rv:85.0) Gecko/20100101 Firefox/85.0","v1-up-stims","","","","","","","","40,50,60,70,80","media/audio/stims/spherical_300cm_s20_c10_cd-half_matched_a80.wav","spherical","20","10","half","matched","80","70","919"
"echo-presentation","41","589006","0.0-41.0","5c9536793ae6fe0015ad8f0b","60242478c74f84097a222710","60242620be52460970dfba39","Mozilla/5.0 (Windows NT 10.0; Win64; x64; rv:85.0) Gecko/20100101 Firefox/85.0","v1-up-stims","","","","","","","","40,50,60,70,80","media/audio/stims/spherical_300cm_s20_c10_cd-half_matched_a70.wav","spherical","20","10","half","matched","70","50","920"
"echo-presentation","42","590714","0.0-42.0","5c9536793ae6fe0015ad8f0b","60242478c74f84097a222710","60242620be52460970dfba39","Mozilla/5.0 (Windows NT 10.0; Win64; x64; rv:85.0) Gecko/20100101 Firefox/85.0","v1-up-stims","","","","","","","","40,50,60,70,80","media/audio/stims/spherical_300cm_s20_c10_cd-half_matched_a80.wav","spherical","20","10","half","matched","80","70","848"
"echo-presentation","43","592410","0.0-43.0","5c9536793ae6fe0015ad8f0b","60242478c74f84097a222710","60242620be52460970dfba39","Mozilla/5.0 (Windows NT 10.0; Win64; x64; rv:85.0) Gecko/20100101 Firefox/85.0","v1-up-stims","","","","","","","","40,50,60,70,80","media/audio/stims/spherical_300cm_s20_c10_cd-half_matched_a50.wav","spherical","20","10","half","matched","50","80","815"
"echo-presentation","44","594149","0.0-44.0","5c9536793ae6fe0015ad8f0b","60242478c74f84097a222710","60242620be52460970dfba39","Mozilla/5.0 (Windows NT 10.0; Win64; x64; rv:85.0) Gecko/20100101 Firefox/85.0","v1-up-stims","","","","","","","","40,50,60,70,80","media/audio/stims/spherical_300cm_s20_c10_cd-half_matched_a40.wav","spherical","20","10","half","matched","40","60","911"
"echo-presentation","45","596505","0.0-45.0","5c9536793ae6fe0015ad8f0b","60242478c74f84097a222710","60242620be52460970dfba39","Mozilla/5.0 (Windows NT 10.0; Win64; x64; rv:85.0) Gecko/20100101 Firefox/85.0","v1-up-stims","","","","","","","","40,50,60,70,80","media/audio/stims/spherical_300cm_s20_c10_cd-half_matched_a40.wav","spherical","20","10","half","matched","40","40","1512"
"echo-presentation","46","598289","0.0-46.0","5c9536793ae6fe0015ad8f0b","60242478c74f84097a222710","60242620be52460970dfba39","Mozilla/5.0 (Windows NT 10.0; Win64; x64; rv:85.0) Gecko/20100101 Firefox/85.0","v1-up-stims","","","","","","","","40,50,60,70,80","media/audio/stims/spherical_300cm_s20_c10_cd-half_matched_a70.wav","spherical","20","10","half","matched","70","40","983"
"echo-presentation","47","599729","0.0-47.0","5c9536793ae6fe0015ad8f0b","60242478c74f84097a222710","60242620be52460970dfba39","Mozilla/5.0 (Windows NT 10.0; Win64; x64; rv:85.0) Gecko/20100101 Firefox/85.0","v1-up-stims","","","","","","","","40,50,60,70,80","media/audio/stims/spherical_300cm_s20_c10_cd-half_matched_a40.wav","spherical","20","10","half","matched","40","50","638"
"echo-presentation","48","601381","0.0-48.0","5c9536793ae6fe0015ad8f0b","60242478c74f84097a222710","60242620be52460970dfba39","Mozilla/5.0 (Windows NT 10.0; Win64; x64; rv:85.0) Gecko/20100101 Firefox/85.0","v1-up-stims","","","","","","","","40,50,60,70,80","media/audio/stims/spherical_300cm_s20_c10_cd-half_matched_a70.wav","spherical","20","10","half","matched","70","60","799"
"echo-presentation","49","604999","0.0-49.0","5c9536793ae6fe0015ad8f0b","60242478c74f84097a222710","60242620be52460970dfba39","Mozilla/5.0 (Windows NT 10.0; Win64; x64; rv:85.0) Gecko/20100101 Firefox/85.0","v1-up-stims","","","","","","","","40,50,60,70,80","media/audio/stims/spherical_300cm_s20_c10_cd-half_matched_a80.wav","spherical","20","10","half","matched","80","70","2423"
"block-bookend","50","608234","0.0-50.0","5c9536793ae6fe0015ad8f0b","60242478c74f84097a222710","60242620be52460970dfba39","Mozilla/5.0 (Windows NT 10.0; Win64; x64; rv:85.0) Gecko/20100101 Firefox/85.0","v1-up-stims","","","","","","","","","","","","","","","","",""
"block-bookend","51","618899","0.0-51.0","5c9536793ae6fe0015ad8f0b","60242478c74f84097a222710","60242620be52460970dfba39","Mozilla/5.0 (Windows NT 10.0; Win64; x64; rv:85.0) Gecko/20100101 Firefox/85.0","v1-up-stims","","","","","","","","","","","","","","","","",""
"echo-presentation","52","622699","0.0-52.0","5c9536793ae6fe0015ad8f0b","60242478c74f84097a222710","60242620be52460970dfba39","Mozilla/5.0 (Windows NT 10.0; Win64; x64; rv:85.0) Gecko/20100101 Firefox/85.0","v1-up-stims","","","","","","","","-80,-70,-60,-50,-40","media/audio/stims/spherical_300cm_s20_c10_cd-half_matched_a-70.wav","spherical","20","10","half","matched","-70","-80","1096"
"echo-presentation","53","624146","0.0-53.0","5c9536793ae6fe0015ad8f0b","60242478c74f84097a222710","60242620be52460970dfba39","Mozilla/5.0 (Windows NT 10.0; Win64; x64; rv:85.0) Gecko/20100101 Firefox/85.0","v1-up-stims","","","","","","","","-80,-70,-60,-50,-40","media/audio/stims/spherical_300cm_s20_c10_cd-half_matched_a-50.wav","spherical","20","10","half","matched","-50","-70","606"
"echo-presentation","54","625378","0.0-54.0","5c9536793ae6fe0015ad8f0b","60242478c74f84097a222710","60242620be52460970dfba39","Mozilla/5.0 (Windows NT 10.0; Win64; x64; rv:85.0) Gecko/20100101 Firefox/85.0","v1-up-stims","","","","","","","","-80,-70,-60,-50,-40","media/audio/stims/spherical_300cm_s20_c10_cd-half_matched_a-60.wav","spherical","20","10","half","matched","-60","-60","655"
"echo-presentation","55","627322","0.0-55.0","5c9536793ae6fe0015ad8f0b","60242478c74f84097a222710","60242620be52460970dfba39","Mozilla/5.0 (Windows NT 10.0; Win64; x64; rv:85.0) Gecko/20100101 Firefox/85.0","v1-up-stims","","","","","","","","-80,-70,-60,-50,-40","media/audio/stims/spherical_300cm_s20_c10_cd-half_matched_a-40.wav","spherical","20","10","half","matched","-40","-70","816"
"echo-presentation","56","629018","0.0-56.0","5c9536793ae6fe0015ad8f0b","60242478c74f84097a222710","60242620be52460970dfba39","Mozilla/5.0 (Windows NT 10.0; Win64; x64; rv:85.0) Gecko/20100101 Firefox/85.0","v1-up-stims","","","","","","","","-80,-70,-60,-50,-40","media/audio/stims/spherical_300cm_s20_c10_cd-half_matched_a-70.wav","spherical","20","10","half","matched","-70","-60","823"
"echo-presentation","57","630602","0.0-57.0","5c9536793ae6fe0015ad8f0b","60242478c74f84097a222710","60242620be52460970dfba39","Mozilla/5.0 (Windows NT 10.0; Win64; x64; rv:85.0) Gecko/20100101 Firefox/85.0","v1-up-stims","","","","","","","","-80,-70,-60,-50,-40","media/audio/stims/spherical_300cm_s20_c10_cd-half_matched_a-80.wav","spherical","20","10","half","matched","-80","-80","800"
"echo-presentation","58","632081","0.0-58.0","5c9536793ae6fe0015ad8f0b","60242478c74f84097a222710","60242620be52460970dfba39","Mozilla/5.0 (Windows NT 10.0; Win64; x64; rv:85.0) Gecko/20100101 Firefox/85.0","v1-up-stims","","","","","","","","-80,-70,-60,-50,-40","media/audio/stims/spherical_300cm_s20_c10_cd-half_matched_a-50.wav","spherical","20","10","half","matched","-50","-60","687"
"echo-presentation","59","633769","0.0-59.0","5c9536793ae6fe0015ad8f0b","60242478c74f84097a222710","60242620be52460970dfba39","Mozilla/5.0 (Windows NT 10.0; Win64; x64; rv:85.0) Gecko/20100101 Firefox/85.0","v1-up-stims","","","","","","","","-80,-70,-60,-50,-40","media/audio/stims/spherical_300cm_s20_c10_cd-half_matched_a-70.wav","spherical","20","10","half","matched","-70","-80","752"
"echo-presentation","60","635390","0.0-60.0","5c9536793ae6fe0015ad8f0b","60242478c74f84097a222710","60242620be52460970dfba39","Mozilla/5.0 (Windows NT 10.0; Win64; x64; rv:85.0) Gecko/20100101 Firefox/85.0","v1-up-stims","","","","","","","","-80,-70,-60,-50,-40","media/audio/stims/spherical_300cm_s20_c10_cd-half_matched_a-80.wav","spherical","20","10","half","matched","-80","-60","728"
"echo-presentation","61","636962","0.0-61.0","5c9536793ae6fe0015ad8f0b","60242478c74f84097a222710","60242620be52460970dfba39","Mozilla/5.0 (Windows NT 10.0; Win64; x64; rv:85.0) Gecko/20100101 Firefox/85.0","v1-up-stims","","","","","","","","-80,-70,-60,-50,-40","media/audio/stims/spherical_300cm_s20_c10_cd-half_matched_a-50.wav","spherical","20","10","half","matched","-50","-50","648"
"echo-presentation","62","638576","0.0-62.0","5c9536793ae6fe0015ad8f0b","60242478c74f84097a222710","60242620be52460970dfba39","Mozilla/5.0 (Windows NT 10.0; Win64; x64; rv:85.0) Gecko/20100101 Firefox/85.0","v1-up-stims","","","","","","","","-80,-70,-60,-50,-40","media/audio/stims/spherical_300cm_s20_c10_cd-half_matched_a-60.wav","spherical","20","10","half","matched","-60","-60","784"
"echo-presentation","63","639935","0.0-63.0","5c9536793ae6fe0015ad8f0b","60242478c74f84097a222710","60242620be52460970dfba39","Mozilla/5.0 (Windows NT 10.0; Win64; x64; rv:85.0) Gecko/20100101 Firefox/85.0","v1-up-stims","","","","","","","","-80,-70,-60,-50,-40","media/audio/stims/spherical_300cm_s20_c10_cd-half_matched_a-40.wav","spherical","20","10","half","matched","-40","-70","599"
"echo-presentation","64","641472","0.0-64.0","5c9536793ae6fe0015ad8f0b","60242478c74f84097a222710","60242620be52460970dfba39","Mozilla/5.0 (Windows NT 10.0; Win64; x64; rv:85.0) Gecko/20100101 Firefox/85.0","v1-up-stims","","","","","","","","-80,-70,-60,-50,-40","media/audio/stims/spherical_300cm_s20_c10_cd-half_matched_a-80.wav","spherical","20","10","half","matched","-80","-60","751"
"echo-presentation","65","643065","0.0-65.0","5c9536793ae6fe0015ad8f0b","60242478c74f84097a222710","60242620be52460970dfba39","Mozilla/5.0 (Windows NT 10.0; Win64; x64; rv:85.0) Gecko/20100101 Firefox/85.0","v1-up-stims","","","","","","","","-80,-70,-60,-50,-40","media/audio/stims/spherical_300cm_s20_c10_cd-half_matched_a-60.wav","spherical","20","10","half","matched","-60","-70","750"
"echo-presentation","66","644592","0.0-66.0","5c9536793ae6fe0015ad8f0b","60242478c74f84097a222710","60242620be52460970dfba39","Mozilla/5.0 (Windows NT 10.0; Win64; x64; rv:85.0) Gecko/20100101 Firefox/85.0","v1-up-stims","","","","","","","","-80,-70,-60,-50,-40","media/audio/stims/spherical_300cm_s20_c10_cd-half_matched_a-70.wav","spherical","20","10","half","matched","-70","-50","695"
"echo-presentation","67","645846","0.0-67.0","5c9536793ae6fe0015ad8f0b","60242478c74f84097a222710","60242620be52460970dfba39","Mozilla/5.0 (Windows NT 10.0; Win64; x64; rv:85.0) Gecko/20100101 Firefox/85.0","v1-up-stims","","","","","","","","-80,-70,-60,-50,-40","media/audio/stims/spherical_300cm_s20_c10_cd-half_matched_a-40.wav","spherical","20","10","half","matched","-40","-70","655"
"echo-presentation","68","647019","0.0-68.0","5c9536793ae6fe0015ad8f0b","60242478c74f84097a222710","60242620be52460970dfba39","Mozilla/5.0 (Windows NT 10.0; Win64; x64; rv:85.0) Gecko/20100101 Firefox/85.0","v1-up-stims","","","","","","","","-80,-70,-60,-50,-40","media/audio/stims/spherical_300cm_s20_c10_cd-half_matched_a-50.wav","spherical","20","10","half","matched","-50","-60","591"
"echo-presentation","69","648535","0.0-69.0","5c9536793ae6fe0015ad8f0b","60242478c74f84097a222710","60242620be52460970dfba39","Mozilla/5.0 (Windows NT 10.0; Win64; x64; rv:85.0) Gecko/20100101 Firefox/85.0","v1-up-stims","","","","","","","","-80,-70,-60,-50,-40","media/audio/stims/spherical_300cm_s20_c10_cd-half_matched_a-40.wav","spherical","20","10","half","matched","-40","-50","768"
"echo-presentation","70","650002","0.0-70.0","5c9536793ae6fe0015ad8f0b","60242478c74f84097a222710","60242620be52460970dfba39","Mozilla/5.0 (Windows NT 10.0; Win64; x64; rv:85.0) Gecko/20100101 Firefox/85.0","v1-up-stims","","","","","","","","-80,-70,-60,-50,-40","media/audio/stims/spherical_300cm_s20_c10_cd-half_matched_a-80.wav","spherical","20","10","half","matched","-80","-70","767"
"echo-presentation","71","652396","0.0-71.0","5c9536793ae6fe0015ad8f0b","60242478c74f84097a222710","60242620be52460970dfba39","Mozilla/5.0 (Windows NT 10.0; Win64; x64; rv:85.0) Gecko/20100101 Firefox/85.0","v1-up-stims","","","","","","","","-80,-70,-60,-50,-40","media/audio/stims/spherical_300cm_s20_c10_cd-half_matched_a-60.wav","spherical","20","10","half","matched","-60","-50","672"
"block-bookend","72","656114","0.0-72.0","5c9536793ae6fe0015ad8f0b","60242478c74f84097a222710","60242620be52460970dfba39","Mozilla/5.0 (Windows NT 10.0; Win64; x64; rv:85.0) Gecko/20100101 Firefox/85.0","v1-up-stims","","","","","","","","","","","","","","","","",""
"block-bookend","73","662427","0.0-73.0","5c9536793ae6fe0015ad8f0b","60242478c74f84097a222710","60242620be52460970dfba39","Mozilla/5.0 (Windows NT 10.0; Win64; x64; rv:85.0) Gecko/20100101 Firefox/85.0","v1-up-stims","","","","","","","","","","","","","","","","",""
"echo-presentation","74","665349","0.0-74.0","5c9536793ae6fe0015ad8f0b","60242478c74f84097a222710","60242620be52460970dfba39","Mozilla/5.0 (Windows NT 10.0; Win64; x64; rv:85.0) Gecko/20100101 Firefox/85.0","v1-up-stims","","","","","","","","-80,-70,-60,-50,-40","media/audio/stims/spherical_300cm_s20_c10_cd-half_matched_a-40.wav","spherical","20","10","half","matched","-40","-60","1279"
"echo-presentation","75","667365","0.0-75.0","5c9536793ae6fe0015ad8f0b","60242478c74f84097a222710","60242620be52460970dfba39","Mozilla/5.0 (Windows NT 10.0; Win64; x64; rv:85.0) Gecko/20100101 Firefox/85.0","v1-up-stims","","","","","","","","-80,-70,-60,-50,-40","media/audio/stims/spherical_300cm_s20_c10_cd-half_matched_a-60.wav","spherical","20","10","half","matched","-60","-70","681"
"echo-presentation","76","668869","0.0-76.0","5c9536793ae6fe0015ad8f0b","60242478c74f84097a222710","60242620be52460970dfba39","Mozilla/5.0 (Windows NT 10.0; Win64; x64; rv:85.0) Gecko/20100101 Firefox/85.0","v1-up-stims","","","","","","","","-80,-70,-60,-50,-40","media/audio/stims/spherical_300cm_s20_c10_cd-half_matched_a-40.wav","spherical","20","10","half","matched","-40","-50","631"
"echo-presentation","77","670460","0.0-77.0","5c9536793ae6fe0015ad8f0b","60242478c74f84097a222710","60242620be52460970dfba39","Mozilla/5.0 (Windows NT 10.0; Win64; x64; rv:85.0) Gecko/20100101 Firefox/85.0","v1-up-stims","","","","","","","","-80,-70,-60,-50,-40","media/audio/stims/spherical_300cm_s20_c10_cd-half_matched_a-70.wav","spherical","20","10","half","matched","-70","-60","742"
"echo-presentation","78","671601","0.0-78.0","5c9536793ae6fe0015ad8f0b","60242478c74f84097a222710","60242620be52460970dfba39","Mozilla/5.0 (Windows NT 10.0; Win64; x64; rv:85.0) Gecko/20100101 Firefox/85.0","v1-up-stims","","","","","","","","-80,-70,-60,-50,-40","media/audio/stims/spherical_300cm_s20_c10_cd-half_matched_a-50.wav","spherical","20","10","half","matched","-50","-70","583"
"echo-presentation","79","672825","0.0-79.0","5c9536793ae6fe0015ad8f0b","60242478c74f84097a222710","60242620be52460970dfba39","Mozilla/5.0 (Windows NT 10.0; Win64; x64; rv:85.0) Gecko/20100101 Firefox/85.0","v1-up-stims","","","","","","","","-80,-70,-60,-50,-40","media/audio/stims/spherical_300cm_s20_c10_cd-half_matched_a-80.wav","spherical","20","10","half","matched","-80","-50","624"
"echo-presentation","80","675163","0.0-80.0","5c9536793ae6fe0015ad8f0b","60242478c74f84097a222710","60242620be52460970dfba39","Mozilla/5.0 (Windows NT 10.0; Win64; x64; rv:85.0) Gecko/20100101 Firefox/85.0","v1-up-stims","","","","","","","","-80,-70,-60,-50,-40","media/audio/stims/spherical_300cm_s20_c10_cd-half_matched_a-70.wav","spherical","20","10","half","matched","-70","-60","688"
"echo-presentation","81","676770","0.0-81.0","5c9536793ae6fe0015ad8f0b","60242478c74f84097a222710","60242620be52460970dfba39","Mozilla/5.0 (Windows NT 10.0; Win64; x64; rv:85.0) Gecko/20100101 Firefox/85.0","v1-up-stims","","","","","","","","-80,-70,-60,-50,-40","media/audio/stims/spherical_300cm_s20_c10_cd-half_matched_a-70.wav","spherical","20","10","half","matched","-70","-50","712"
"echo-presentation","82","678070","0.0-82.0","5c9536793ae6fe0015ad8f0b","60242478c74f84097a222710","60242620be52460970dfba39","Mozilla/5.0 (Windows NT 10.0; Win64; x64; rv:85.0) Gecko/20100101 Firefox/85.0","v1-up-stims","","","","","","","","-80,-70,-60,-50,-40","media/audio/stims/spherical_300cm_s20_c10_cd-half_matched_a-60.wav","spherical","20","10","half","matched","-60","-70","646"
"echo-presentation","83","679596","0.0-83.0","5c9536793ae6fe0015ad8f0b","60242478c74f84097a222710","60242620be52460970dfba39","Mozilla/5.0 (Windows NT 10.0; Win64; x64; rv:85.0) Gecko/20100101 Firefox/85.0","v1-up-stims","","","","","","","","-80,-70,-60,-50,-40","media/audio/stims/spherical_300cm_s20_c10_cd-half_matched_a-60.wav","spherical","20","10","half","matched","-60","-50","719"
"echo-presentation","84","681049","0.0-84.0","5c9536793ae6fe0015ad8f0b","60242478c74f84097a222710","60242620be52460970dfba39","Mozilla/5.0 (Windows NT 10.0; Win64; x64; rv:85.0) Gecko/20100101 Firefox/85.0","v1-up-stims","","","","","","","","-80,-70,-60,-50,-40","media/audio/stims/spherical_300cm_s20_c10_cd-half_matched_a-60.wav","spherical","20","10","half","matched","-60","-60","590"
"echo-presentation","85","682539","0.0-85.0","5c9536793ae6fe0015ad8f0b","60242478c74f84097a222710","60242620be52460970dfba39","Mozilla/5.0 (Windows NT 10.0; Win64; x64; rv:85.0) Gecko/20100101 Firefox/85.0","v1-up-stims","","","","","","","","-80,-70,-60,-50,-40","media/audio/stims/spherical_300cm_s20_c10_cd-half_matched_a-80.wav","spherical","20","10","half","matched","-80","-50","672"
"echo-presentation","86","684510","0.0-86.0","5c9536793ae6fe0015ad8f0b","60242478c74f84097a222710","60242620be52460970dfba39","Mozilla/5.0 (Windows NT 10.0; Win64; x64; rv:85.0) Gecko/20100101 Firefox/85.0","v1-up-stims","","","","","","","","-80,-70,-60,-50,-40","media/audio/stims/spherical_300cm_s20_c10_cd-half_matched_a-80.wav","spherical","20","10","half","matched","-80","-80","775"
"echo-presentation","87","686023","0.0-87.0","5c9536793ae6fe0015ad8f0b","60242478c74f84097a222710","60242620be52460970dfba39","Mozilla/5.0 (Windows NT 10.0; Win64; x64; rv:85.0) Gecko/20100101 Firefox/85.0","v1-up-stims","","","","","","","","-80,-70,-60,-50,-40","media/audio/stims/spherical_300cm_s20_c10_cd-half_matched_a-50.wav","spherical","20","10","half","matched","-50","-70","599"
"echo-presentation","88","687692","0.0-88.0","5c9536793ae6fe0015ad8f0b","60242478c74f84097a222710","60242620be52460970dfba39","Mozilla/5.0 (Windows NT 10.0; Win64; x64; rv:85.0) Gecko/20100101 Firefox/85.0","v1-up-stims","","","","","","","","-80,-70,-60,-50,-40","media/audio/stims/spherical_300cm_s20_c10_cd-half_matched_a-70.wav","spherical","20","10","half","matched","-70","-80","623"
"echo-presentation","89","689322","0.0-89.0","5c9536793ae6fe0015ad8f0b","60242478c74f84097a222710","60242620be52460970dfba39","Mozilla/5.0 (Windows NT 10.0; Win64; x64; rv:85.0) Gecko/20100101 Firefox/85.0","v1-up-stims","","","","","","","","-80,-70,-60,-50,-40","media/audio/stims/spherical_300cm_s20_c10_cd-half_matched_a-40.wav","spherical","20","10","half","matched","-40","-60","607"
"echo-presentation","90","691041","0.0-90.0","5c9536793ae6fe0015ad8f0b","60242478c74f84097a222710","60242620be52460970dfba39","Mozilla/5.0 (Windows NT 10.0; Win64; x64; rv:85.0) Gecko/20100101 Firefox/85.0","v1-up-stims","","","","","","","","-80,-70,-60,-50,-40","media/audio/stims/spherical_300cm_s20_c10_cd-half_matched_a-50.wav","spherical","20","10","half","matched","-50","-80","800"
"echo-presentation","91","693147","0.0-91.0","5c9536793ae6fe0015ad8f0b","60242478c74f84097a222710","60242620be52460970dfba39","Mozilla/5.0 (Windows NT 10.0; Win64; x64; rv:85.0) Gecko/20100101 Firefox/85.0","v1-up-stims","","","","","","","","-80,-70,-60,-50,-40","media/audio/stims/spherical_300cm_s20_c10_cd-half_matched_a-40.wav","spherical","20","10","half","matched","-40","-70","823"
"echo-presentation","92","694995","0.0-92.0","5c9536793ae6fe0015ad8f0b","60242478c74f84097a222710","60242620be52460970dfba39","Mozilla/5.0 (Windows NT 10.0; Win64; x64; rv:85.0) Gecko/20100101 Firefox/85.0","v1-up-stims","","","","","","","","-80,-70,-60,-50,-40","media/audio/stims/spherical_300cm_s20_c10_cd-half_matched_a-80.wav","spherical","20","10","half","matched","-80","-60","752"
"echo-presentation","93","697273","0.0-93.0","5c9536793ae6fe0015ad8f0b","60242478c74f84097a222710","60242620be52460970dfba39","Mozilla/5.0 (Windows NT 10.0; Win64; x64; rv:85.0) Gecko/20100101 Firefox/85.0","v1-up-stims","","","","","","","","-80,-70,-60,-50,-40","media/audio/stims/spherical_300cm_s20_c10_cd-half_matched_a-50.wav","spherical","20","10","half","matched","-50","-50","944"
"block-bookend","94","698963","0.0-94.0","5c9536793ae6fe0015ad8f0b","60242478c74f84097a222710","60242620be52460970dfba39","Mozilla/5.0 (Windows NT 10.0; Win64; x64; rv:85.0) Gecko/20100101 Firefox/85.0","v1-up-stims","","","","","","","","","","","","","","","","",""
"block-bookend","95","712979","0.0-95.0","5c9536793ae6fe0015ad8f0b","60242478c74f84097a222710","60242620be52460970dfba39","Mozilla/5.0 (Windows NT 10.0; Win64; x64; rv:85.0) Gecko/20100101 Firefox/85.0","v1-up-stims","","","","","","","","","","","","","","","","",""
"echo-presentation","96","715564","0.0-96.0","5c9536793ae6fe0015ad8f0b","60242478c74f84097a222710","60242620be52460970dfba39","Mozilla/5.0 (Windows NT 10.0; Win64; x64; rv:85.0) Gecko/20100101 Firefox/85.0","v1-up-stims","","","","","","","","-20,-10,0,10,20","media/audio/stims/spherical_300cm_s20_c10_cd-half_matched_a10.wav","spherical","20","10","half","matched","10","10","1215"
"echo-presentation","97","717850","0.0-97.0","5c9536793ae6fe0015ad8f0b","60242478c74f84097a222710","60242620be52460970dfba39","Mozilla/5.0 (Windows NT 10.0; Win64; x64; rv:85.0) Gecko/20100101 Firefox/85.0","v1-up-stims","","","","","","","","-20,-10,0,10,20","media/audio/stims/spherical_300cm_s20_c10_cd-half_matched_a-20.wav","spherical","20","10","half","matched","-20","-20","1024"
"echo-presentation","98","720667","0.0-98.0","5c9536793ae6fe0015ad8f0b","60242478c74f84097a222710","60242620be52460970dfba39","Mozilla/5.0 (Windows NT 10.0; Win64; x64; rv:85.0) Gecko/20100101 Firefox/85.0","v1-up-stims","","","","","","","","-20,-10,0,10,20","media/audio/stims/spherical_300cm_s20_c10_cd-half_matched_a0.wav","spherical","20","10","half","matched","0","10","1823"
"echo-presentation","99","722932","0.0-99.0","5c9536793ae6fe0015ad8f0b","60242478c74f84097a222710","60242620be52460970dfba39","Mozilla/5.0 (Windows NT 10.0; Win64; x64; rv:85.0) Gecko/20100101 Firefox/85.0","v1-up-stims","","","","","","","","-20,-10,0,10,20","media/audio/stims/spherical_300cm_s20_c10_cd-half_matched_a0.wav","spherical","20","10","half","matched","0","-10","1119"
"echo-presentation","100","725092","0.0-100.0","5c9536793ae6fe0015ad8f0b","60242478c74f84097a222710","60242620be52460970dfba39","Mozilla/5.0 (Windows NT 10.0; Win64; x64; rv:85.0) Gecko/20100101 Firefox/85.0","v1-up-stims","","","","","","","","-20,-10,0,10,20","media/audio/stims/spherical_300cm_s20_c10_cd-half_matched_a10.wav","spherical","20","10","half","matched","10","10","1190"
"echo-presentation","101","727050","0.0-101.0","5c9536793ae6fe0015ad8f0b","60242478c74f84097a222710","60242620be52460970dfba39","Mozilla/5.0 (Windows NT 10.0; Win64; x64; rv:85.0) Gecko/20100101 Firefox/85.0","v1-up-stims","","","","","","","","-20,-10,0,10,20","media/audio/stims/spherical_300cm_s20_c10_cd-half_matched_a-10.wav","spherical","20","10","half","matched","-10","-10","1182"
"echo-presentation","102","729018","0.0-102.0","5c9536793ae6fe0015ad8f0b","60242478c74f84097a222710","60242620be52460970dfba39","Mozilla/5.0 (Windows NT 10.0; Win64; x64; rv:85.0) Gecko/20100101 Firefox/85.0","v1-up-stims","","","","","","","","-20,-10,0,10,20","media/audio/stims/spherical_300cm_s20_c10_cd-half_matched_a20.wav","spherical","20","10","half","matched","20","20","880"
"echo-presentation","103","731706","0.0-103.0","5c9536793ae6fe0015ad8f0b","60242478c74f84097a222710","60242620be52460970dfba39","Mozilla/5.0 (Windows NT 10.0; Win64; x64; rv:85.0) Gecko/20100101 Firefox/85.0","v1-up-stims","","","","","","","","-20,-10,0,10,20","media/audio/stims/spherical_300cm_s20_c10_cd-half_matched_a10.wav","spherical","20","10","half","matched","10","20","1415"
"echo-presentation","104","733957","0.0-104.0","5c9536793ae6fe0015ad8f0b","60242478c74f84097a222710","60242620be52460970dfba39","Mozilla/5.0 (Windows NT 10.0; Win64; x64; rv:85.0) Gecko/20100101 Firefox/85.0","v1-up-stims","","","","","","","","-20,-10,0,10,20","media/audio/stims/spherical_300cm_s20_c10_cd-half_matched_a10.wav","spherical","20","10","half","matched","10","-20","1223"
"echo-presentation","105","735479","0.0-105.0","5c9536793ae6fe0015ad8f0b","60242478c74f84097a222710","60242620be52460970dfba39","Mozilla/5.0 (Windows NT 10.0; Win64; x64; rv:85.0) Gecko/20100101 Firefox/85.0","v1-up-stims","","","","","","","","-20,-10,0,10,20","media/audio/stims/spherical_300cm_s20_c10_cd-half_matched_a20.wav","spherical","20","10","half","matched","20","-10","631"
"echo-presentation","106","737064","0.0-106.0","5c9536793ae6fe0015ad8f0b","60242478c74f84097a222710","60242620be52460970dfba39","Mozilla/5.0 (Windows NT 10.0; Win64; x64; rv:85.0) Gecko/20100101 Firefox/85.0","v1-up-stims","","","","","","","","-20,-10,0,10,20","media/audio/stims/spherical_300cm_s20_c10_cd-half_matched_a-20.wav","spherical","20","10","half","matched","-20","10","639"
"echo-presentation","107","738844","0.0-107.0","5c9536793ae6fe0015ad8f0b","60242478c74f84097a222710","60242620be52460970dfba39","Mozilla/5.0 (Windows NT 10.0; Win64; x64; rv:85.0) Gecko/20100101 Firefox/85.0","v1-up-stims","","","","","","","","-20,-10,0,10,20","media/audio/stims/spherical_300cm_s20_c10_cd-half_matched_a-20.wav","spherical","20","10","half","matched","-20","-10","585"
"echo-presentation","108","740427","0.0-108.0","5c9536793ae6fe0015ad8f0b","60242478c74f84097a222710","60242620be52460970dfba39","Mozilla/5.0 (Windows NT 10.0; Win64; x64; rv:85.0) Gecko/20100101 Firefox/85.0","v1-up-stims","","","","","","","","-20,-10,0,10,20","media/audio/stims/spherical_300cm_s20_c10_cd-half_matched_a0.wav","spherical","20","10","half","matched","0","10","663"
"echo-presentation","109","741697","0.0-109.0","5c9536793ae6fe0015ad8f0b","60242478c74f84097a222710","60242620be52460970dfba39","Mozilla/5.0 (Windows NT 10.0; Win64; x64; rv:85.0) Gecko/20100101 Firefox/85.0","v1-up-stims","","","","","","","","-20,-10,0,10,20","media/audio/stims/spherical_300cm_s20_c10_cd-half_matched_a-20.wav","spherical","20","10","half","matched","-20","10","583"
"echo-presentation","110","743795","0.0-110.0","5c9536793ae6fe0015ad8f0b","60242478c74f84097a222710","60242620be52460970dfba39","Mozilla/5.0 (Windows NT 10.0; Win64; x64; rv:85.0) Gecko/20100101 Firefox/85.0","v1-up-stims","","","","","","","","-20,-10,0,10,20","media/audio/stims/spherical_300cm_s20_c10_cd-half_matched_a0.wav","spherical","20","10","half","matched","0","-10","607"
"echo-presentation","111","745347","0.0-111.0","5c9536793ae6fe0015ad8f0b","60242478c74f84097a222710","60242620be52460970dfba39","Mozilla/5.0 (Windows NT 10.0; Win64; x64; rv:85.0) Gecko/20100101 Firefox/85.0","v1-up-stims","","","","","","","","-20,-10,0,10,20","media/audio/stims/spherical_300cm_s20_c10_cd-half_matched_a-10.wav","spherical","20","10","half","matched","-10","0","664"
"echo-presentation","112","747123","0.0-112.0","5c9536793ae6fe0015ad8f0b","60242478c74f84097a222710","60242620be52460970dfba39","Mozilla/5.0 (Windows NT 10.0; Win64; x64; rv:85.0) Gecko/20100101 Firefox/85.0","v1-up-stims","","","","","","","","-20,-10,0,10,20","media/audio/stims/spherical_300cm_s20_c10_cd-half_matched_a-10.wav","spherical","20","10","half","matched","-10","0","599"
"echo-presentation","113","749007","0.0-113.0","5c9536793ae6fe0015ad8f0b","60242478c74f84097a222710","60242620be52460970dfba39","Mozilla/5.0 (Windows NT 10.0; Win64; x64; rv:85.0) Gecko/20100101 Firefox/85.0","v1-up-stims","","","","","","","","-20,-10,0,10,20","media/audio/stims/spherical_300cm_s20_c10_cd-half_matched_a-10.wav","spherical","20","10","half","matched","-10","-10","864"
"echo-presentation","114","750788","0.0-114.0","5c9536793ae6fe0015ad8f0b","60242478c74f84097a222710","60242620be52460970dfba39","Mozilla/5.0 (Windows NT 10.0; Win64; x64; rv:85.0) Gecko/20100101 Firefox/85.0","v1-up-stims","","","","","","","","-20,-10,0,10,20","media/audio/stims/spherical_300cm_s20_c10_cd-half_matched_a20.wav","spherical","20","10","half","matched","20","10","838"
"echo-presentation","115","752374","0.0-115.0","5c9536793ae6fe0015ad8f0b","60242478c74f84097a222710","60242620be52460970dfba39","Mozilla/5.0 (Windows NT 10.0; Win64; x64; rv:85.0) Gecko/20100101 Firefox/85.0","v1-up-stims","","","","","","","","-20,-10,0,10,20","media/audio/stims/spherical_300cm_s20_c10_cd-half_matched_a20.wav","spherical","20","10","half","matched","20","-10","743"
"block-bookend","116","753442","0.0-116.0","5c9536793ae6fe0015ad8f0b","60242478c74f84097a222710","60242620be52460970dfba39","Mozilla/5.0 (Windows NT 10.0; Win64; x64; rv:85.0) Gecko/20100101 Firefox/85.0","v1-up-stims","","","","","","","","","","","","","","","","",""
"block-bookend","117","757530","0.0-117.0","5c9536793ae6fe0015ad8f0b","60242478c74f84097a222710","60242620be52460970dfba39","Mozilla/5.0 (Windows NT 10.0; Win64; x64; rv:85.0) Gecko/20100101 Firefox/85.0","v1-up-stims","","","","","","","","","","","","","","","","",""
"echo-presentation","118","762104","0.0-118.0","5c9536793ae6fe0015ad8f0b","60242478c74f84097a222710","60242620be52460970dfba39","Mozilla/5.0 (Windows NT 10.0; Win64; x64; rv:85.0) Gecko/20100101 Firefox/85.0","v1-up-stims","","","","","","","","-20,-10,0,10,20","media/audio/stims/spherical_300cm_s20_c10_cd-half_matched_a-20.wav","spherical","20","10","half","matched","-20","-10","919"
"echo-presentation","119","764065","0.0-119.0","5c9536793ae6fe0015ad8f0b","60242478c74f84097a222710","60242620be52460970dfba39","Mozilla/5.0 (Windows NT 10.0; Win64; x64; rv:85.0) Gecko/20100101 Firefox/85.0","v1-up-stims","","","","","","","","-20,-10,0,10,20","media/audio/stims/spherical_300cm_s20_c10_cd-half_matched_a-20.wav","spherical","20","10","half","matched","-20","-10","831"
"echo-presentation","120","765957","0.0-120.0","5c9536793ae6fe0015ad8f0b","60242478c74f84097a222710","60242620be52460970dfba39","Mozilla/5.0 (Windows NT 10.0; Win64; x64; rv:85.0) Gecko/20100101 Firefox/85.0","v1-up-stims","","","","","","","","-20,-10,0,10,20","media/audio/stims/spherical_300cm_s20_c10_cd-half_matched_a10.wav","spherical","20","10","half","matched","10","10","975"
"echo-presentation","121","767604","0.0-121.0","5c9536793ae6fe0015ad8f0b","60242478c74f84097a222710","60242620be52460970dfba39","Mozilla/5.0 (Windows NT 10.0; Win64; x64; rv:85.0) Gecko/20100101 Firefox/85.0","v1-up-stims","","","","","","","","-20,-10,0,10,20","media/audio/stims/spherical_300cm_s20_c10_cd-half_matched_a0.wav","spherical","20","10","half","matched","0","10","1016"
"echo-presentation","122","769918","0.0-122.0","5c9536793ae6fe0015ad8f0b","60242478c74f84097a222710","60242620be52460970dfba39","Mozilla/5.0 (Windows NT 10.0; Win64; x64; rv:85.0) Gecko/20100101 Firefox/85.0","v1-up-stims","","","","","","","","-20,-10,0,10,20","media/audio/stims/spherical_300cm_s20_c10_cd-half_matched_a0.wav","spherical","20","10","half","matched","0","0","1432"
"echo-presentation","123","772705","0.0-123.0","5c9536793ae6fe0015ad8f0b","60242478c74f84097a222710","60242620be52460970dfba39","Mozilla/5.0 (Windows NT 10.0; Win64; x64; rv:85.0) Gecko/20100101 Firefox/85.0","v1-up-stims","","","","","","","","-20,-10,0,10,20","media/audio/stims/spherical_300cm_s20_c10_cd-half_matched_a0.wav","spherical","20","10","half","matched","0","-10","1984"
"echo-presentation","124","774626","0.0-124.0","5c9536793ae6fe0015ad8f0b","60242478c74f84097a222710","60242620be52460970dfba39","Mozilla/5.0 (Windows NT 10.0; Win64; x64; rv:85.0) Gecko/20100101 Firefox/85.0","v1-up-stims","","","","","","","","-20,-10,0,10,20","media/audio/stims/spherical_300cm_s20_c10_cd-half_matched_a20.wav","spherical","20","10","half","matched","20","10","824"
"echo-presentation","125","776193","0.0-125.0","5c9536793ae6fe0015ad8f0b","60242478c74f84097a222710","60242620be52460970dfba39","Mozilla/5.0 (Windows NT 10.0; Win64; x64; rv:85.0) Gecko/20100101 Firefox/85.0","v1-up-stims","","","","","","","","-20,-10,0,10,20","media/audio/stims/spherical_300cm_s20_c10_cd-half_matched_a-10.wav","spherical","20","10","half","matched","-10","-10","928"
"echo-presentation","126","777550","0.0-126.0","5c9536793ae6fe0015ad8f0b","60242478c74f84097a222710","60242620be52460970dfba39","Mozilla/5.0 (Windows NT 10.0; Win64; x64; rv:85.0) Gecko/20100101 Firefox/85.0","v1-up-stims","","","","","","","","-20,-10,0,10,20","media/audio/stims/spherical_300cm_s20_c10_cd-half_matched_a10.wav","spherical","20","10","half","matched","10","0","759"
"echo-presentation","127","779804","0.0-127.0","5c9536793ae6fe0015ad8f0b","60242478c74f84097a222710","60242620be52460970dfba39","Mozilla/5.0 (Windows NT 10.0; Win64; x64; rv:85.0) Gecko/20100101 Firefox/85.0","v1-up-stims","","","","","","","","-20,-10,0,10,20","media/audio/stims/spherical_300cm_s20_c10_cd-half_matched_a0.wav","spherical","20","10","half","matched","0","10","735"
"echo-presentation","128","781297","0.0-128.0","5c9536793ae6fe0015ad8f0b","60242478c74f84097a222710","60242620be52460970dfba39","Mozilla/5.0 (Windows NT 10.0; Win64; x64; rv:85.0) Gecko/20100101 Firefox/85.0","v1-up-stims","","","","","","","","-20,-10,0,10,20","media/audio/stims/spherical_300cm_s20_c10_cd-half_matched_a20.wav","spherical","20","10","half","matched","20","-10","592"
"echo-presentation","129","782547","0.0-129.0","5c9536793ae6fe0015ad8f0b","60242478c74f84097a222710","60242620be52460970dfba39","Mozilla/5.0 (Windows NT 10.0; Win64; x64; rv:85.0) Gecko/20100101 Firefox/85.0","v1-up-stims","","","","","","","","-20,-10,0,10,20","media/audio/stims/spherical_300cm_s20_c10_cd-half_matched_a10.wav","spherical","20","10","half","matched","10","0","679"
"echo-presentation","130","784555","0.0-130.0","5c9536793ae6fe0015ad8f0b","60242478c74f84097a222710","60242620be52460970dfba39","Mozilla/5.0 (Windows NT 10.0; Win64; x64; rv:85.0) Gecko/20100101 Firefox/85.0","v1-up-stims","","","","","","","","-20,-10,0,10,20","media/audio/stims/spherical_300cm_s20_c10_cd-half_matched_a-10.wav","spherical","20","10","half","matched","-10","10","656"
"echo-presentation","131","785809","0.0-131.0","5c9536793ae6fe0015ad8f0b","60242478c74f84097a222710","60242620be52460970dfba39","Mozilla/5.0 (Windows NT 10.0; Win64; x64; rv:85.0) Gecko/20100101 Firefox/85.0","v1-up-stims","","","","","","","","-20,-10,0,10,20","media/audio/stims/spherical_300cm_s20_c10_cd-half_matched_a-10.wav","spherical","20","10","half","matched","-10","-10","743"
"echo-presentation","132","788505","0.0-132.0","5c9536793ae6fe0015ad8f0b","60242478c74f84097a222710","60242620be52460970dfba39","Mozilla/5.0 (Windows NT 10.0; Win64; x64; rv:85.0) Gecko/20100101 Firefox/85.0","v1-up-stims","","","","","","","","-20,-10,0,10,20","media/audio/stims/spherical_300cm_s20_c10_cd-half_matched_a-20.wav","spherical","20","10","half","matched","-20","0","759"
"echo-presentation","133","789984","0.0-133.0","5c9536793ae6fe0015ad8f0b","60242478c74f84097a222710","60242620be52460970dfba39","Mozilla/5.0 (Windows NT 10.0; Win64; x64; rv:85.0) Gecko/20100101 Firefox/85.0","v1-up-stims","","","","","","","","-20,-10,0,10,20","media/audio/stims/spherical_300cm_s20_c10_cd-half_matched_a20.wav","spherical","20","10","half","matched","20","-10","743"
"echo-presentation","134","791913","0.0-134.0","5c9536793ae6fe0015ad8f0b","60242478c74f84097a222710","60242620be52460970dfba39","Mozilla/5.0 (Windows NT 10.0; Win64; x64; rv:85.0) Gecko/20100101 Firefox/85.0","v1-up-stims","","","","","","","","-20,-10,0,10,20","media/audio/stims/spherical_300cm_s20_c10_cd-half_matched_a20.wav","spherical","20","10","half","matched","20","10","799"
"echo-presentation","135","793927","0.0-135.0","5c9536793ae6fe0015ad8f0b","60242478c74f84097a222710","60242620be52460970dfba39","Mozilla/5.0 (Windows NT 10.0; Win64; x64; rv:85.0) Gecko/20100101 Firefox/85.0","v1-up-stims","","","","","","","","-20,-10,0,10,20","media/audio/stims/spherical_300cm_s20_c10_cd-half_matched_a-10.wav","spherical","20","10","half","matched","-10","0","720"
"echo-presentation","136","795891","0.0-136.0","5c9536793ae6fe0015ad8f0b","60242478c74f84097a222710","60242620be52460970dfba39","Mozilla/5.0 (Windows NT 10.0; Win64; x64; rv:85.0) Gecko/20100101 Firefox/85.0","v1-up-stims","","","","","","","","-20,-10,0,10,20","media/audio/stims/spherical_300cm_s20_c10_cd-half_matched_a-20.wav","spherical","20","10","half","matched","-20","10","744"
"echo-presentation","137","797961","0.0-137.0","5c9536793ae6fe0015ad8f0b","60242478c74f84097a222710","60242620be52460970dfba39","Mozilla/5.0 (Windows NT 10.0; Win64; x64; rv:85.0) Gecko/20100101 Firefox/85.0","v1-up-stims","","","","","","","","-20,-10,0,10,20","media/audio/stims/spherical_300cm_s20_c10_cd-half_matched_a10.wav","spherical","20","10","half","matched","10","-10","679"
"block-bookend","138","801171","0.0-138.0","5c9536793ae6fe0015ad8f0b","60242478c74f84097a222710","60242620be52460970dfba39","Mozilla/5.0 (Windows NT 10.0; Win64; x64; rv:85.0) Gecko/20100101 Firefox/85.0","v1-up-stims","","","","","","","","","","","","","","","","",""
