"trial_type","trial_index","time_elapsed","internal_node_id","prolificPid","studyId","sessionId","userAgent","version","rt","stimulus","key_press","chosenKeyset","failureCount","testIndex","globalVolume","choices","filename","modelName","slowdown","compensation","compensationDescriptor","receiverOrientationType","azimuth","responseAzimuth","responseDelay"
"pavlovia","0","3","0.0-0.0","5f6734b21949ab2fdc3bdd5a","5fef55e628823a0076ec12ee","602014e4cf8c485c8fd0cae1","Mozilla/5.0 (Windows NT 10.0; Win64; x64) AppleWebKit/537.36 (KHTML, like Gecko) Chrome/86.0.4240.198 Safari/537.36 OPR/72.0.3815.487","v1-up-stims","","","","","","","","","","","","","","","","",""
"html-keyboard-response","1","40997","0.0-1.0","5f6734b21949ab2fdc3bdd5a","5fef55e628823a0076ec12ee","602014e4cf8c485c8fd0cae1","Mozilla/5.0 (Windows NT 10.0; Win64; x64) AppleWebKit/537.36 (KHTML, like Gecko) Chrome/86.0.4240.198 Safari/537.36 OPR/72.0.3815.487","v1-up-stims","40993.08000000019","<div><h1>Welcome!</h1><p>Press any key to continue.</p></div>","32","","","","","","","","","","","","","",""
"consent-form","2","227151","0.0-2.0","5f6734b21949ab2fdc3bdd5a","5fef55e628823a0076ec12ee","602014e4cf8c485c8fd0cae1","Mozilla/5.0 (Windows NT 10.0; Win64; x64) AppleWebKit/537.36 (KHTML, like Gecko) Chrome/86.0.4240.198 Safari/537.36 OPR/72.0.3815.487","v1-up-stims","","","","","","","","","","","","","","","","",""
"keyset-select","3","255118","0.0-3.0","5f6734b21949ab2fdc3bdd5a","5fef55e628823a0076ec12ee","602014e4cf8c485c8fd0cae1","Mozilla/5.0 (Windows NT 10.0; Win64; x64) AppleWebKit/537.36 (KHTML, like Gecko) Chrome/86.0.4240.198 Safari/537.36 OPR/72.0.3815.487","v1-up-stims","","","","left-hand","","","","","","","","","","","","",""
"headphone-check","4","319523","0.0-4.0","5f6734b21949ab2fdc3bdd5a","5fef55e628823a0076ec12ee","602014e4cf8c485c8fd0cae1","Mozilla/5.0 (Windows NT 10.0; Win64; x64) AppleWebKit/537.36 (KHTML, like Gecko) Chrome/86.0.4240.198 Safari/537.36 OPR/72.0.3815.487","v1-up-stims","","","","","0","6","0.7","","","","","","","","","",""
"headphone-backwards-check","5","331876","0.0-5.0","5f6734b21949ab2fdc3bdd5a","5fef55e628823a0076ec12ee","602014e4cf8c485c8fd0cae1","Mozilla/5.0 (Windows NT 10.0; Win64; x64) AppleWebKit/537.36 (KHTML, like Gecko) Chrome/86.0.4240.198 Safari/537.36 OPR/72.0.3815.487","v1-up-stims","","","","","0","","","","","","","","","","","",""
"training","6","416242","0.0-6.0","5f6734b21949ab2fdc3bdd5a","5fef55e628823a0076ec12ee","602014e4cf8c485c8fd0cae1","Mozilla/5.0 (Windows NT 10.0; Win64; x64) AppleWebKit/537.36 (KHTML, like Gecko) Chrome/86.0.4240.198 Safari/537.36 OPR/72.0.3815.487","v1-up-stims","","","","","","","","","","","","","","","","",""
"block-bookend","7","428275","0.0-7.0","5f6734b21949ab2fdc3bdd5a","5fef55e628823a0076ec12ee","602014e4cf8c485c8fd0cae1","Mozilla/5.0 (Windows NT 10.0; Win64; x64) AppleWebKit/537.36 (KHTML, like Gecko) Chrome/86.0.4240.198 Safari/537.36 OPR/72.0.3815.487","v1-up-stims","","","","","","","","","","","","","","","","",""
"echo-presentation","8","433542","0.0-8.0","5f6734b21949ab2fdc3bdd5a","5fef55e628823a0076ec12ee","602014e4cf8c485c8fd0cae1","Mozilla/5.0 (Windows NT 10.0; Win64; x64) AppleWebKit/537.36 (KHTML, like Gecko) Chrome/86.0.4240.198 Safari/537.36 OPR/72.0.3815.487","v1-up-stims","","","","","","","","-80,-70,-60,-50,-40","media/audio/stims/spherical_300cm_s20_c20_cd-full_matched_a-80.wav","spherical","20","20","full","matched","-80","-80","2451"
"echo-presentation","9","440294","0.0-9.0","5f6734b21949ab2fdc3bdd5a","5fef55e628823a0076ec12ee","602014e4cf8c485c8fd0cae1","Mozilla/5.0 (Windows NT 10.0; Win64; x64) AppleWebKit/537.36 (KHTML, like Gecko) Chrome/86.0.4240.198 Safari/537.36 OPR/72.0.3815.487","v1-up-stims","","","","","","","","-80,-70,-60,-50,-40","media/audio/stims/spherical_300cm_s20_c20_cd-full_matched_a-80.wav","spherical","20","20","full","matched","-80","-80","5267"
"echo-presentation","10","443187","0.0-10.0","5f6734b21949ab2fdc3bdd5a","5fef55e628823a0076ec12ee","602014e4cf8c485c8fd0cae1","Mozilla/5.0 (Windows NT 10.0; Win64; x64) AppleWebKit/537.36 (KHTML, like Gecko) Chrome/86.0.4240.198 Safari/537.36 OPR/72.0.3815.487","v1-up-stims","","","","","","","","-80,-70,-60,-50,-40","media/audio/stims/spherical_300cm_s20_c20_cd-full_matched_a-40.wav","spherical","20","20","full","matched","-40","-70","1602"
"echo-presentation","11","446718","0.0-11.0","5f6734b21949ab2fdc3bdd5a","5fef55e628823a0076ec12ee","602014e4cf8c485c8fd0cae1","Mozilla/5.0 (Windows NT 10.0; Win64; x64) AppleWebKit/537.36 (KHTML, like Gecko) Chrome/86.0.4240.198 Safari/537.36 OPR/72.0.3815.487","v1-up-stims","","","","","","","","-80,-70,-60,-50,-40","media/audio/stims/spherical_300cm_s20_c20_cd-full_matched_a-70.wav","spherical","20","20","full","matched","-70","-70","2000"
"echo-presentation","12","450369","0.0-12.0","5f6734b21949ab2fdc3bdd5a","5fef55e628823a0076ec12ee","602014e4cf8c485c8fd0cae1","Mozilla/5.0 (Windows NT 10.0; Win64; x64) AppleWebKit/537.36 (KHTML, like Gecko) Chrome/86.0.4240.198 Safari/537.36 OPR/72.0.3815.487","v1-up-stims","","","","","","","","-80,-70,-60,-50,-40","media/audio/stims/spherical_300cm_s20_c20_cd-full_matched_a-50.wav","spherical","20","20","full","matched","-50","-70","2264"
"echo-presentation","13","453295","0.0-13.0","5f6734b21949ab2fdc3bdd5a","5fef55e628823a0076ec12ee","602014e4cf8c485c8fd0cae1","Mozilla/5.0 (Windows NT 10.0; Win64; x64) AppleWebKit/537.36 (KHTML, like Gecko) Chrome/86.0.4240.198 Safari/537.36 OPR/72.0.3815.487","v1-up-stims","","","","","","","","-80,-70,-60,-50,-40","media/audio/stims/spherical_300cm_s20_c20_cd-full_matched_a-40.wav","spherical","20","20","full","matched","-40","-70","1868"
"echo-presentation","14","458104","0.0-14.0","5f6734b21949ab2fdc3bdd5a","5fef55e628823a0076ec12ee","602014e4cf8c485c8fd0cae1","Mozilla/5.0 (Windows NT 10.0; Win64; x64) AppleWebKit/537.36 (KHTML, like Gecko) Chrome/86.0.4240.198 Safari/537.36 OPR/72.0.3815.487","v1-up-stims","","","","","","","","-80,-70,-60,-50,-40","media/audio/stims/spherical_300cm_s20_c20_cd-full_matched_a-70.wav","spherical","20","20","full","matched","-70","-70","3496"
"echo-presentation","15","461468","0.0-15.0","5f6734b21949ab2fdc3bdd5a","5fef55e628823a0076ec12ee","602014e4cf8c485c8fd0cae1","Mozilla/5.0 (Windows NT 10.0; Win64; x64) AppleWebKit/537.36 (KHTML, like Gecko) Chrome/86.0.4240.198 Safari/537.36 OPR/72.0.3815.487","v1-up-stims","","","","","","","","-80,-70,-60,-50,-40","media/audio/stims/spherical_300cm_s20_c20_cd-full_matched_a-70.wav","spherical","20","20","full","matched","-70","-60","2253"
"echo-presentation","16","464944","0.0-16.0","5f6734b21949ab2fdc3bdd5a","5fef55e628823a0076ec12ee","602014e4cf8c485c8fd0cae1","Mozilla/5.0 (Windows NT 10.0; Win64; x64) AppleWebKit/537.36 (KHTML, like Gecko) Chrome/86.0.4240.198 Safari/537.36 OPR/72.0.3815.487","v1-up-stims","","","","","","","","-80,-70,-60,-50,-40","media/audio/stims/spherical_300cm_s20_c20_cd-full_matched_a-40.wav","spherical","20","20","full","matched","-40","-60","2604"
"echo-presentation","17","468739","0.0-17.0","5f6734b21949ab2fdc3bdd5a","5fef55e628823a0076ec12ee","602014e4cf8c485c8fd0cae1","Mozilla/5.0 (Windows NT 10.0; Win64; x64) AppleWebKit/537.36 (KHTML, like Gecko) Chrome/86.0.4240.198 Safari/537.36 OPR/72.0.3815.487","v1-up-stims","","","","","","","","-80,-70,-60,-50,-40","media/audio/stims/spherical_300cm_s20_c20_cd-full_matched_a-60.wav","spherical","20","20","full","matched","-60","-80","2672"
"echo-presentation","18","471335","0.0-18.0","5f6734b21949ab2fdc3bdd5a","5fef55e628823a0076ec12ee","602014e4cf8c485c8fd0cae1","Mozilla/5.0 (Windows NT 10.0; Win64; x64) AppleWebKit/537.36 (KHTML, like Gecko) Chrome/86.0.4240.198 Safari/537.36 OPR/72.0.3815.487","v1-up-stims","","","","","","","","-80,-70,-60,-50,-40","media/audio/stims/spherical_300cm_s20_c20_cd-full_matched_a-50.wav","spherical","20","20","full","matched","-50","-80","1625"
"echo-presentation","19","474338","0.0-19.0","5f6734b21949ab2fdc3bdd5a","5fef55e628823a0076ec12ee","602014e4cf8c485c8fd0cae1","Mozilla/5.0 (Windows NT 10.0; Win64; x64) AppleWebKit/537.36 (KHTML, like Gecko) Chrome/86.0.4240.198 Safari/537.36 OPR/72.0.3815.487","v1-up-stims","","","","","","","","-80,-70,-60,-50,-40","media/audio/stims/spherical_300cm_s20_c20_cd-full_matched_a-60.wav","spherical","20","20","full","matched","-60","-60","2220"
"echo-presentation","20","478451","0.0-20.0","5f6734b21949ab2fdc3bdd5a","5fef55e628823a0076ec12ee","602014e4cf8c485c8fd0cae1","Mozilla/5.0 (Windows NT 10.0; Win64; x64) AppleWebKit/537.36 (KHTML, like Gecko) Chrome/86.0.4240.198 Safari/537.36 OPR/72.0.3815.487","v1-up-stims","","","","","","","","-80,-70,-60,-50,-40","media/audio/stims/spherical_300cm_s20_c20_cd-full_matched_a-80.wav","spherical","20","20","full","matched","-80","-80","1977"
"echo-presentation","21","482259","0.0-21.0","5f6734b21949ab2fdc3bdd5a","5fef55e628823a0076ec12ee","602014e4cf8c485c8fd0cae1","Mozilla/5.0 (Windows NT 10.0; Win64; x64) AppleWebKit/537.36 (KHTML, like Gecko) Chrome/86.0.4240.198 Safari/537.36 OPR/72.0.3815.487","v1-up-stims","","","","","","","","-80,-70,-60,-50,-40","media/audio/stims/spherical_300cm_s20_c20_cd-full_matched_a-70.wav","spherical","20","20","full","matched","-70","-70","2077"
"echo-presentation","22","484841","0.0-22.0","5f6734b21949ab2fdc3bdd5a","5fef55e628823a0076ec12ee","602014e4cf8c485c8fd0cae1","Mozilla/5.0 (Windows NT 10.0; Win64; x64) AppleWebKit/537.36 (KHTML, like Gecko) Chrome/86.0.4240.198 Safari/537.36 OPR/72.0.3815.487","v1-up-stims","","","","","","","","-80,-70,-60,-50,-40","media/audio/stims/spherical_300cm_s20_c20_cd-full_matched_a-50.wav","spherical","20","20","full","matched","-50","-80","1724"
"echo-presentation","23","487602","0.0-23.0","5f6734b21949ab2fdc3bdd5a","5fef55e628823a0076ec12ee","602014e4cf8c485c8fd0cae1","Mozilla/5.0 (Windows NT 10.0; Win64; x64) AppleWebKit/537.36 (KHTML, like Gecko) Chrome/86.0.4240.198 Safari/537.36 OPR/72.0.3815.487","v1-up-stims","","","","","","","","-80,-70,-60,-50,-40","media/audio/stims/spherical_300cm_s20_c20_cd-full_matched_a-40.wav","spherical","20","20","full","matched","-40","-80","1583"
"echo-presentation","24","489891","0.0-24.0","5f6734b21949ab2fdc3bdd5a","5fef55e628823a0076ec12ee","602014e4cf8c485c8fd0cae1","Mozilla/5.0 (Windows NT 10.0; Win64; x64) AppleWebKit/537.36 (KHTML, like Gecko) Chrome/86.0.4240.198 Safari/537.36 OPR/72.0.3815.487","v1-up-stims","","","","","","","","-80,-70,-60,-50,-40","media/audio/stims/spherical_300cm_s20_c20_cd-full_matched_a-80.wav","spherical","20","20","full","matched","-80","-70","1473"
"echo-presentation","25","492598","0.0-25.0","5f6734b21949ab2fdc3bdd5a","5fef55e628823a0076ec12ee","602014e4cf8c485c8fd0cae1","Mozilla/5.0 (Windows NT 10.0; Win64; x64) AppleWebKit/537.36 (KHTML, like Gecko) Chrome/86.0.4240.198 Safari/537.36 OPR/72.0.3815.487","v1-up-stims","","","","","","","","-80,-70,-60,-50,-40","media/audio/stims/spherical_300cm_s20_c20_cd-full_matched_a-50.wav","spherical","20","20","full","matched","-50","-70","1878"
"echo-presentation","26","495126","0.0-26.0","5f6734b21949ab2fdc3bdd5a","5fef55e628823a0076ec12ee","602014e4cf8c485c8fd0cae1","Mozilla/5.0 (Windows NT 10.0; Win64; x64) AppleWebKit/537.36 (KHTML, like Gecko) Chrome/86.0.4240.198 Safari/537.36 OPR/72.0.3815.487","v1-up-stims","","","","","","","","-80,-70,-60,-50,-40","media/audio/stims/spherical_300cm_s20_c20_cd-full_matched_a-60.wav","spherical","20","20","full","matched","-60","-70","1583"
"echo-presentation","27","497416","0.0-27.0","5f6734b21949ab2fdc3bdd5a","5fef55e628823a0076ec12ee","602014e4cf8c485c8fd0cae1","Mozilla/5.0 (Windows NT 10.0; Win64; x64) AppleWebKit/537.36 (KHTML, like Gecko) Chrome/86.0.4240.198 Safari/537.36 OPR/72.0.3815.487","v1-up-stims","","","","","","","","-80,-70,-60,-50,-40","media/audio/stims/spherical_300cm_s20_c20_cd-full_matched_a-60.wav","spherical","20","20","full","matched","-60","-80","1385"
"block-bookend","28","538218","0.0-28.0","5f6734b21949ab2fdc3bdd5a","5fef55e628823a0076ec12ee","602014e4cf8c485c8fd0cae1","Mozilla/5.0 (Windows NT 10.0; Win64; x64) AppleWebKit/537.36 (KHTML, like Gecko) Chrome/86.0.4240.198 Safari/537.36 OPR/72.0.3815.487","v1-up-stims","","","","","","","","","","","","","","","","",""
"block-bookend","29","551979","0.0-29.0","5f6734b21949ab2fdc3bdd5a","5fef55e628823a0076ec12ee","602014e4cf8c485c8fd0cae1","Mozilla/5.0 (Windows NT 10.0; Win64; x64) AppleWebKit/537.36 (KHTML, like Gecko) Chrome/86.0.4240.198 Safari/537.36 OPR/72.0.3815.487","v1-up-stims","","","","","","","","","","","","","","","","",""
"echo-presentation","30","555196","0.0-30.0","5f6734b21949ab2fdc3bdd5a","5fef55e628823a0076ec12ee","602014e4cf8c485c8fd0cae1","Mozilla/5.0 (Windows NT 10.0; Win64; x64) AppleWebKit/537.36 (KHTML, like Gecko) Chrome/86.0.4240.198 Safari/537.36 OPR/72.0.3815.487","v1-up-stims","","","","","","","","-80,-70,-60,-50,-40","media/audio/stims/spherical_300cm_s20_c20_cd-full_matched_a-50.wav","spherical","20","20","full","matched","-50","-80","1174"
"echo-presentation","31","557617","0.0-31.0","5f6734b21949ab2fdc3bdd5a","5fef55e628823a0076ec12ee","602014e4cf8c485c8fd0cae1","Mozilla/5.0 (Windows NT 10.0; Win64; x64) AppleWebKit/537.36 (KHTML, like Gecko) Chrome/86.0.4240.198 Safari/537.36 OPR/72.0.3815.487","v1-up-stims","","","","","","","","-80,-70,-60,-50,-40","media/audio/stims/spherical_300cm_s20_c20_cd-full_matched_a-40.wav","spherical","20","20","full","matched","-40","-70","1241"
"echo-presentation","32","560785","0.0-32.0","5f6734b21949ab2fdc3bdd5a","5fef55e628823a0076ec12ee","602014e4cf8c485c8fd0cae1","Mozilla/5.0 (Windows NT 10.0; Win64; x64) AppleWebKit/537.36 (KHTML, like Gecko) Chrome/86.0.4240.198 Safari/537.36 OPR/72.0.3815.487","v1-up-stims","","","","","","","","-80,-70,-60,-50,-40","media/audio/stims/spherical_300cm_s20_c20_cd-full_matched_a-50.wav","spherical","20","20","full","matched","-50","-80","1506"
"echo-presentation","33","563303","0.0-33.0","5f6734b21949ab2fdc3bdd5a","5fef55e628823a0076ec12ee","602014e4cf8c485c8fd0cae1","Mozilla/5.0 (Windows NT 10.0; Win64; x64) AppleWebKit/537.36 (KHTML, like Gecko) Chrome/86.0.4240.198 Safari/537.36 OPR/72.0.3815.487","v1-up-stims","","","","","","","","-80,-70,-60,-50,-40","media/audio/stims/spherical_300cm_s20_c20_cd-full_matched_a-70.wav","spherical","20","20","full","matched","-70","-70","1549"
"echo-presentation","34","565713","0.0-34.0","5f6734b21949ab2fdc3bdd5a","5fef55e628823a0076ec12ee","602014e4cf8c485c8fd0cae1","Mozilla/5.0 (Windows NT 10.0; Win64; x64) AppleWebKit/537.36 (KHTML, like Gecko) Chrome/86.0.4240.198 Safari/537.36 OPR/72.0.3815.487","v1-up-stims","","","","","","","","-80,-70,-60,-50,-40","media/audio/stims/spherical_300cm_s20_c20_cd-full_matched_a-80.wav","spherical","20","20","full","matched","-80","-70","1406"
"echo-presentation","35","567649","0.0-35.0","5f6734b21949ab2fdc3bdd5a","5fef55e628823a0076ec12ee","602014e4cf8c485c8fd0cae1","Mozilla/5.0 (Windows NT 10.0; Win64; x64) AppleWebKit/537.36 (KHTML, like Gecko) Chrome/86.0.4240.198 Safari/537.36 OPR/72.0.3815.487","v1-up-stims","","","","","","","","-80,-70,-60,-50,-40","media/audio/stims/spherical_300cm_s20_c20_cd-full_matched_a-70.wav","spherical","20","20","full","matched","-70","-70","1241"
"echo-presentation","36","569607","0.0-36.0","5f6734b21949ab2fdc3bdd5a","5fef55e628823a0076ec12ee","602014e4cf8c485c8fd0cae1","Mozilla/5.0 (Windows NT 10.0; Win64; x64) AppleWebKit/537.36 (KHTML, like Gecko) Chrome/86.0.4240.198 Safari/537.36 OPR/72.0.3815.487","v1-up-stims","","","","","","","","-80,-70,-60,-50,-40","media/audio/stims/spherical_300cm_s20_c20_cd-full_matched_a-40.wav","spherical","20","20","full","matched","-40","-80","1054"
"echo-presentation","37","571796","0.0-37.0","5f6734b21949ab2fdc3bdd5a","5fef55e628823a0076ec12ee","602014e4cf8c485c8fd0cae1","Mozilla/5.0 (Windows NT 10.0; Win64; x64) AppleWebKit/537.36 (KHTML, like Gecko) Chrome/86.0.4240.198 Safari/537.36 OPR/72.0.3815.487","v1-up-stims","","","","","","","","-80,-70,-60,-50,-40","media/audio/stims/spherical_300cm_s20_c20_cd-full_matched_a-40.wav","spherical","20","20","full","matched","-40","-80","1242"
"echo-presentation","38","573731","0.0-38.0","5f6734b21949ab2fdc3bdd5a","5fef55e628823a0076ec12ee","602014e4cf8c485c8fd0cae1","Mozilla/5.0 (Windows NT 10.0; Win64; x64) AppleWebKit/537.36 (KHTML, like Gecko) Chrome/86.0.4240.198 Safari/537.36 OPR/72.0.3815.487","v1-up-stims","","","","","","","","-80,-70,-60,-50,-40","media/audio/stims/spherical_300cm_s20_c20_cd-full_matched_a-50.wav","spherical","20","20","full","matched","-50","-80","1098"
"echo-presentation","39","575679","0.0-39.0","5f6734b21949ab2fdc3bdd5a","5fef55e628823a0076ec12ee","602014e4cf8c485c8fd0cae1","Mozilla/5.0 (Windows NT 10.0; Win64; x64) AppleWebKit/537.36 (KHTML, like Gecko) Chrome/86.0.4240.198 Safari/537.36 OPR/72.0.3815.487","v1-up-stims","","","","","","","","-80,-70,-60,-50,-40","media/audio/stims/spherical_300cm_s20_c20_cd-full_matched_a-60.wav","spherical","20","20","full","matched","-60","-70","988"
"echo-presentation","40","577670","0.0-40.0","5f6734b21949ab2fdc3bdd5a","5fef55e628823a0076ec12ee","602014e4cf8c485c8fd0cae1","Mozilla/5.0 (Windows NT 10.0; Win64; x64) AppleWebKit/537.36 (KHTML, like Gecko) Chrome/86.0.4240.198 Safari/537.36 OPR/72.0.3815.487","v1-up-stims","","","","","","","","-80,-70,-60,-50,-40","media/audio/stims/spherical_300cm_s20_c20_cd-full_matched_a-60.wav","spherical","20","20","full","matched","-60","-80","1110"
"echo-presentation","41","579594","0.0-41.0","5f6734b21949ab2fdc3bdd5a","5fef55e628823a0076ec12ee","602014e4cf8c485c8fd0cae1","Mozilla/5.0 (Windows NT 10.0; Win64; x64) AppleWebKit/537.36 (KHTML, like Gecko) Chrome/86.0.4240.198 Safari/537.36 OPR/72.0.3815.487","v1-up-stims","","","","","","","","-80,-70,-60,-50,-40","media/audio/stims/spherical_300cm_s20_c20_cd-full_matched_a-80.wav","spherical","20","20","full","matched","-80","-70","1055"
"echo-presentation","42","581398","0.0-42.0","5f6734b21949ab2fdc3bdd5a","5fef55e628823a0076ec12ee","602014e4cf8c485c8fd0cae1","Mozilla/5.0 (Windows NT 10.0; Win64; x64) AppleWebKit/537.36 (KHTML, like Gecko) Chrome/86.0.4240.198 Safari/537.36 OPR/72.0.3815.487","v1-up-stims","","","","","","","","-80,-70,-60,-50,-40","media/audio/stims/spherical_300cm_s20_c20_cd-full_matched_a-40.wav","spherical","20","20","full","matched","-40","-80","988"
"echo-presentation","43","583653","0.0-43.0","5f6734b21949ab2fdc3bdd5a","5fef55e628823a0076ec12ee","602014e4cf8c485c8fd0cae1","Mozilla/5.0 (Windows NT 10.0; Win64; x64) AppleWebKit/537.36 (KHTML, like Gecko) Chrome/86.0.4240.198 Safari/537.36 OPR/72.0.3815.487","v1-up-stims","","","","","","","","-80,-70,-60,-50,-40","media/audio/stims/spherical_300cm_s20_c20_cd-full_matched_a-60.wav","spherical","20","20","full","matched","-60","-80","1439"
"echo-presentation","44","585338","0.0-44.0","5f6734b21949ab2fdc3bdd5a","5fef55e628823a0076ec12ee","602014e4cf8c485c8fd0cae1","Mozilla/5.0 (Windows NT 10.0; Win64; x64) AppleWebKit/537.36 (KHTML, like Gecko) Chrome/86.0.4240.198 Safari/537.36 OPR/72.0.3815.487","v1-up-stims","","","","","","","","-80,-70,-60,-50,-40","media/audio/stims/spherical_300cm_s20_c20_cd-full_matched_a-70.wav","spherical","20","20","full","matched","-70","-70","1066"
"echo-presentation","45","587151","0.0-45.0","5f6734b21949ab2fdc3bdd5a","5fef55e628823a0076ec12ee","602014e4cf8c485c8fd0cae1","Mozilla/5.0 (Windows NT 10.0; Win64; x64) AppleWebKit/537.36 (KHTML, like Gecko) Chrome/86.0.4240.198 Safari/537.36 OPR/72.0.3815.487","v1-up-stims","","","","","","","","-80,-70,-60,-50,-40","media/audio/stims/spherical_300cm_s20_c20_cd-full_matched_a-70.wav","spherical","20","20","full","matched","-70","-70","1066"
"echo-presentation","46","589164","0.0-46.0","5f6734b21949ab2fdc3bdd5a","5fef55e628823a0076ec12ee","602014e4cf8c485c8fd0cae1","Mozilla/5.0 (Windows NT 10.0; Win64; x64) AppleWebKit/537.36 (KHTML, like Gecko) Chrome/86.0.4240.198 Safari/537.36 OPR/72.0.3815.487","v1-up-stims","","","","","","","","-80,-70,-60,-50,-40","media/audio/stims/spherical_300cm_s20_c20_cd-full_matched_a-80.wav","spherical","20","20","full","matched","-80","-80","1099"
"echo-presentation","47","591155","0.0-47.0","5f6734b21949ab2fdc3bdd5a","5fef55e628823a0076ec12ee","602014e4cf8c485c8fd0cae1","Mozilla/5.0 (Windows NT 10.0; Win64; x64) AppleWebKit/537.36 (KHTML, like Gecko) Chrome/86.0.4240.198 Safari/537.36 OPR/72.0.3815.487","v1-up-stims","","","","","","","","-80,-70,-60,-50,-40","media/audio/stims/spherical_300cm_s20_c20_cd-full_matched_a-50.wav","spherical","20","20","full","matched","-50","-80","1141"
"echo-presentation","48","593552","0.0-48.0","5f6734b21949ab2fdc3bdd5a","5fef55e628823a0076ec12ee","602014e4cf8c485c8fd0cae1","Mozilla/5.0 (Windows NT 10.0; Win64; x64) AppleWebKit/537.36 (KHTML, like Gecko) Chrome/86.0.4240.198 Safari/537.36 OPR/72.0.3815.487","v1-up-stims","","","","","","","","-80,-70,-60,-50,-40","media/audio/stims/spherical_300cm_s20_c20_cd-full_matched_a-60.wav","spherical","20","20","full","matched","-60","-70","1285"
"echo-presentation","49","596049","0.0-49.0","5f6734b21949ab2fdc3bdd5a","5fef55e628823a0076ec12ee","602014e4cf8c485c8fd0cae1","Mozilla/5.0 (Windows NT 10.0; Win64; x64) AppleWebKit/537.36 (KHTML, like Gecko) Chrome/86.0.4240.198 Safari/537.36 OPR/72.0.3815.487","v1-up-stims","","","","","","","","-80,-70,-60,-50,-40","media/audio/stims/spherical_300cm_s20_c20_cd-full_matched_a-80.wav","spherical","20","20","full","matched","-80","-70","1120"
"block-bookend","50","597330","0.0-50.0","5f6734b21949ab2fdc3bdd5a","5fef55e628823a0076ec12ee","602014e4cf8c485c8fd0cae1","Mozilla/5.0 (Windows NT 10.0; Win64; x64) AppleWebKit/537.36 (KHTML, like Gecko) Chrome/86.0.4240.198 Safari/537.36 OPR/72.0.3815.487","v1-up-stims","","","","","","","","","","","","","","","","",""
"block-bookend","51","609309","0.0-51.0","5f6734b21949ab2fdc3bdd5a","5fef55e628823a0076ec12ee","602014e4cf8c485c8fd0cae1","Mozilla/5.0 (Windows NT 10.0; Win64; x64) AppleWebKit/537.36 (KHTML, like Gecko) Chrome/86.0.4240.198 Safari/537.36 OPR/72.0.3815.487","v1-up-stims","","","","","","","","","","","","","","","","",""
"echo-presentation","52","613824","0.0-52.0","5f6734b21949ab2fdc3bdd5a","5fef55e628823a0076ec12ee","602014e4cf8c485c8fd0cae1","Mozilla/5.0 (Windows NT 10.0; Win64; x64) AppleWebKit/537.36 (KHTML, like Gecko) Chrome/86.0.4240.198 Safari/537.36 OPR/72.0.3815.487","v1-up-stims","","","","","","","","-20,-10,0,10,20","media/audio/stims/spherical_300cm_s20_c20_cd-full_matched_a10.wav","spherical","20","20","full","matched","10","10","2956"
"echo-presentation","53","616091","0.0-53.0","5f6734b21949ab2fdc3bdd5a","5fef55e628823a0076ec12ee","602014e4cf8c485c8fd0cae1","Mozilla/5.0 (Windows NT 10.0; Win64; x64) AppleWebKit/537.36 (KHTML, like Gecko) Chrome/86.0.4240.198 Safari/537.36 OPR/72.0.3815.487","v1-up-stims","","","","","","","","-20,-10,0,10,20","media/audio/stims/spherical_300cm_s20_c20_cd-full_matched_a0.wav","spherical","20","20","full","matched","0","0","1352"
"echo-presentation","54","620117","0.0-54.0","5f6734b21949ab2fdc3bdd5a","5fef55e628823a0076ec12ee","602014e4cf8c485c8fd0cae1","Mozilla/5.0 (Windows NT 10.0; Win64; x64) AppleWebKit/537.36 (KHTML, like Gecko) Chrome/86.0.4240.198 Safari/537.36 OPR/72.0.3815.487","v1-up-stims","","","","","","","","-20,-10,0,10,20","media/audio/stims/spherical_300cm_s20_c20_cd-full_matched_a10.wav","spherical","20","20","full","matched","10","10","2374"
"echo-presentation","55","622075","0.0-55.0","5f6734b21949ab2fdc3bdd5a","5fef55e628823a0076ec12ee","602014e4cf8c485c8fd0cae1","Mozilla/5.0 (Windows NT 10.0; Win64; x64) AppleWebKit/537.36 (KHTML, like Gecko) Chrome/86.0.4240.198 Safari/537.36 OPR/72.0.3815.487","v1-up-stims","","","","","","","","-20,-10,0,10,20","media/audio/stims/spherical_300cm_s20_c20_cd-full_matched_a0.wav","spherical","20","20","full","matched","0","10","1132"
"echo-presentation","56","624540","0.0-56.0","5f6734b21949ab2fdc3bdd5a","5fef55e628823a0076ec12ee","602014e4cf8c485c8fd0cae1","Mozilla/5.0 (Windows NT 10.0; Win64; x64) AppleWebKit/537.36 (KHTML, like Gecko) Chrome/86.0.4240.198 Safari/537.36 OPR/72.0.3815.487","v1-up-stims","","","","","","","","-20,-10,0,10,20","media/audio/stims/spherical_300cm_s20_c20_cd-full_matched_a20.wav","spherical","20","20","full","matched","20","10","1660"
"echo-presentation","57","627048","0.0-57.0","5f6734b21949ab2fdc3bdd5a","5fef55e628823a0076ec12ee","602014e4cf8c485c8fd0cae1","Mozilla/5.0 (Windows NT 10.0; Win64; x64) AppleWebKit/537.36 (KHTML, like Gecko) Chrome/86.0.4240.198 Safari/537.36 OPR/72.0.3815.487","v1-up-stims","","","","","","","","-20,-10,0,10,20","media/audio/stims/spherical_300cm_s20_c20_cd-full_matched_a-20.wav","spherical","20","20","full","matched","-20","-10","1746"
"echo-presentation","58","629720","0.0-58.0","5f6734b21949ab2fdc3bdd5a","5fef55e628823a0076ec12ee","602014e4cf8c485c8fd0cae1","Mozilla/5.0 (Windows NT 10.0; Win64; x64) AppleWebKit/537.36 (KHTML, like Gecko) Chrome/86.0.4240.198 Safari/537.36 OPR/72.0.3815.487","v1-up-stims","","","","","","","","-20,-10,0,10,20","media/audio/stims/spherical_300cm_s20_c20_cd-full_matched_a-10.wav","spherical","20","20","full","matched","-10","0","1846"
"echo-presentation","59","631766","0.0-59.0","5f6734b21949ab2fdc3bdd5a","5fef55e628823a0076ec12ee","602014e4cf8c485c8fd0cae1","Mozilla/5.0 (Windows NT 10.0; Win64; x64) AppleWebKit/537.36 (KHTML, like Gecko) Chrome/86.0.4240.198 Safari/537.36 OPR/72.0.3815.487","v1-up-stims","","","","","","","","-20,-10,0,10,20","media/audio/stims/spherical_300cm_s20_c20_cd-full_matched_a-10.wav","spherical","20","20","full","matched","-10","0","1308"
"echo-presentation","60","633680","0.0-60.0","5f6734b21949ab2fdc3bdd5a","5fef55e628823a0076ec12ee","602014e4cf8c485c8fd0cae1","Mozilla/5.0 (Windows NT 10.0; Win64; x64) AppleWebKit/537.36 (KHTML, like Gecko) Chrome/86.0.4240.198 Safari/537.36 OPR/72.0.3815.487","v1-up-stims","","","","","","","","-20,-10,0,10,20","media/audio/stims/spherical_300cm_s20_c20_cd-full_matched_a10.wav","spherical","20","20","full","matched","10","10","1130"
"echo-presentation","61","636023","0.0-61.0","5f6734b21949ab2fdc3bdd5a","5fef55e628823a0076ec12ee","602014e4cf8c485c8fd0cae1","Mozilla/5.0 (Windows NT 10.0; Win64; x64) AppleWebKit/537.36 (KHTML, like Gecko) Chrome/86.0.4240.198 Safari/537.36 OPR/72.0.3815.487","v1-up-stims","","","","","","","","-20,-10,0,10,20","media/audio/stims/spherical_300cm_s20_c20_cd-full_matched_a20.wav","spherical","20","20","full","matched","20","0","1582"
"echo-presentation","62","638278","0.0-62.0","5f6734b21949ab2fdc3bdd5a","5fef55e628823a0076ec12ee","602014e4cf8c485c8fd0cae1","Mozilla/5.0 (Windows NT 10.0; Win64; x64) AppleWebKit/537.36 (KHTML, like Gecko) Chrome/86.0.4240.198 Safari/537.36 OPR/72.0.3815.487","v1-up-stims","","","","","","","","-20,-10,0,10,20","media/audio/stims/spherical_300cm_s20_c20_cd-full_matched_a0.wav","spherical","20","20","full","matched","0","0","1451"
"echo-presentation","63","640674","0.0-63.0","5f6734b21949ab2fdc3bdd5a","5fef55e628823a0076ec12ee","602014e4cf8c485c8fd0cae1","Mozilla/5.0 (Windows NT 10.0; Win64; x64) AppleWebKit/537.36 (KHTML, like Gecko) Chrome/86.0.4240.198 Safari/537.36 OPR/72.0.3815.487","v1-up-stims","","","","","","","","-20,-10,0,10,20","media/audio/stims/spherical_300cm_s20_c20_cd-full_matched_a20.wav","spherical","20","20","full","matched","20","10","1637"
"echo-presentation","64","642721","0.0-64.0","5f6734b21949ab2fdc3bdd5a","5fef55e628823a0076ec12ee","602014e4cf8c485c8fd0cae1","Mozilla/5.0 (Windows NT 10.0; Win64; x64) AppleWebKit/537.36 (KHTML, like Gecko) Chrome/86.0.4240.198 Safari/537.36 OPR/72.0.3815.487","v1-up-stims","","","","","","","","-20,-10,0,10,20","media/audio/stims/spherical_300cm_s20_c20_cd-full_matched_a-10.wav","spherical","20","20","full","matched","-10","-10","1285"
"echo-presentation","65","644933","0.0-65.0","5f6734b21949ab2fdc3bdd5a","5fef55e628823a0076ec12ee","602014e4cf8c485c8fd0cae1","Mozilla/5.0 (Windows NT 10.0; Win64; x64) AppleWebKit/537.36 (KHTML, like Gecko) Chrome/86.0.4240.198 Safari/537.36 OPR/72.0.3815.487","v1-up-stims","","","","","","","","-20,-10,0,10,20","media/audio/stims/spherical_300cm_s20_c20_cd-full_matched_a-20.wav","spherical","20","20","full","matched","-20","0","1384"
"echo-presentation","66","647101","0.0-66.0","5f6734b21949ab2fdc3bdd5a","5fef55e628823a0076ec12ee","602014e4cf8c485c8fd0cae1","Mozilla/5.0 (Windows NT 10.0; Win64; x64) AppleWebKit/537.36 (KHTML, like Gecko) Chrome/86.0.4240.198 Safari/537.36 OPR/72.0.3815.487","v1-up-stims","","","","","","","","-20,-10,0,10,20","media/audio/stims/spherical_300cm_s20_c20_cd-full_matched_a10.wav","spherical","20","20","full","matched","10","0","1340"
"echo-presentation","67","649410","0.0-67.0","5f6734b21949ab2fdc3bdd5a","5fef55e628823a0076ec12ee","602014e4cf8c485c8fd0cae1","Mozilla/5.0 (Windows NT 10.0; Win64; x64) AppleWebKit/537.36 (KHTML, like Gecko) Chrome/86.0.4240.198 Safari/537.36 OPR/72.0.3815.487","v1-up-stims","","","","","","","","-20,-10,0,10,20","media/audio/stims/spherical_300cm_s20_c20_cd-full_matched_a-20.wav","spherical","20","20","full","matched","-20","-10","1517"
"echo-presentation","68","651554","0.0-68.0","5f6734b21949ab2fdc3bdd5a","5fef55e628823a0076ec12ee","602014e4cf8c485c8fd0cae1","Mozilla/5.0 (Windows NT 10.0; Win64; x64) AppleWebKit/537.36 (KHTML, like Gecko) Chrome/86.0.4240.198 Safari/537.36 OPR/72.0.3815.487","v1-up-stims","","","","","","","","-20,-10,0,10,20","media/audio/stims/spherical_300cm_s20_c20_cd-full_matched_a-20.wav","spherical","20","20","full","matched","-20","0","1395"
"echo-presentation","69","654327","0.0-69.0","5f6734b21949ab2fdc3bdd5a","5fef55e628823a0076ec12ee","602014e4cf8c485c8fd0cae1","Mozilla/5.0 (Windows NT 10.0; Win64; x64) AppleWebKit/537.36 (KHTML, like Gecko) Chrome/86.0.4240.198 Safari/537.36 OPR/72.0.3815.487","v1-up-stims","","","","","","","","-20,-10,0,10,20","media/audio/stims/spherical_300cm_s20_c20_cd-full_matched_a-10.wav","spherical","20","20","full","matched","-10","0","2001"
"echo-presentation","70","656174","0.0-70.0","5f6734b21949ab2fdc3bdd5a","5fef55e628823a0076ec12ee","602014e4cf8c485c8fd0cae1","Mozilla/5.0 (Windows NT 10.0; Win64; x64) AppleWebKit/537.36 (KHTML, like Gecko) Chrome/86.0.4240.198 Safari/537.36 OPR/72.0.3815.487","v1-up-stims","","","","","","","","-20,-10,0,10,20","media/audio/stims/spherical_300cm_s20_c20_cd-full_matched_a20.wav","spherical","20","20","full","matched","20","10","1121"
"echo-presentation","71","658649","0.0-71.0","5f6734b21949ab2fdc3bdd5a","5fef55e628823a0076ec12ee","602014e4cf8c485c8fd0cae1","Mozilla/5.0 (Windows NT 10.0; Win64; x64) AppleWebKit/537.36 (KHTML, like Gecko) Chrome/86.0.4240.198 Safari/537.36 OPR/72.0.3815.487","v1-up-stims","","","","","","","","-20,-10,0,10,20","media/audio/stims/spherical_300cm_s20_c20_cd-full_matched_a0.wav","spherical","20","20","full","matched","0","0","1319"
"block-bookend","72","676429","0.0-72.0","5f6734b21949ab2fdc3bdd5a","5fef55e628823a0076ec12ee","602014e4cf8c485c8fd0cae1","Mozilla/5.0 (Windows NT 10.0; Win64; x64) AppleWebKit/537.36 (KHTML, like Gecko) Chrome/86.0.4240.198 Safari/537.36 OPR/72.0.3815.487","v1-up-stims","","","","","","","","","","","","","","","","",""
"block-bookend","73","681424","0.0-73.0","5f6734b21949ab2fdc3bdd5a","5fef55e628823a0076ec12ee","602014e4cf8c485c8fd0cae1","Mozilla/5.0 (Windows NT 10.0; Win64; x64) AppleWebKit/537.36 (KHTML, like Gecko) Chrome/86.0.4240.198 Safari/537.36 OPR/72.0.3815.487","v1-up-stims","","","","","","","","","","","","","","","","",""
"echo-presentation","74","684487","0.0-74.0","5f6734b21949ab2fdc3bdd5a","5fef55e628823a0076ec12ee","602014e4cf8c485c8fd0cae1","Mozilla/5.0 (Windows NT 10.0; Win64; x64) AppleWebKit/537.36 (KHTML, like Gecko) Chrome/86.0.4240.198 Safari/537.36 OPR/72.0.3815.487","v1-up-stims","","","","","","","","-20,-10,0,10,20","media/audio/stims/spherical_300cm_s20_c20_cd-full_matched_a-10.wav","spherical","20","20","full","matched","-10","-10","1945"
"echo-presentation","75","690922","0.0-75.0","5f6734b21949ab2fdc3bdd5a","5fef55e628823a0076ec12ee","602014e4cf8c485c8fd0cae1","Mozilla/5.0 (Windows NT 10.0; Win64; x64) AppleWebKit/537.36 (KHTML, like Gecko) Chrome/86.0.4240.198 Safari/537.36 OPR/72.0.3815.487","v1-up-stims","","","","","","","","-20,-10,0,10,20","media/audio/stims/spherical_300cm_s20_c20_cd-full_matched_a-10.wav","spherical","20","20","full","matched","-10","0","3892"
"echo-presentation","76","693035","0.0-76.0","5f6734b21949ab2fdc3bdd5a","5fef55e628823a0076ec12ee","602014e4cf8c485c8fd0cae1","Mozilla/5.0 (Windows NT 10.0; Win64; x64) AppleWebKit/537.36 (KHTML, like Gecko) Chrome/86.0.4240.198 Safari/537.36 OPR/72.0.3815.487","v1-up-stims","","","","","","","","-20,-10,0,10,20","media/audio/stims/spherical_300cm_s20_c20_cd-full_matched_a20.wav","spherical","20","20","full","matched","20","10","1131"
"echo-presentation","77","696181","0.0-77.0","5f6734b21949ab2fdc3bdd5a","5fef55e628823a0076ec12ee","602014e4cf8c485c8fd0cae1","Mozilla/5.0 (Windows NT 10.0; Win64; x64) AppleWebKit/537.36 (KHTML, like Gecko) Chrome/86.0.4240.198 Safari/537.36 OPR/72.0.3815.487","v1-up-stims","","","","","","","","-20,-10,0,10,20","media/audio/stims/spherical_300cm_s20_c20_cd-full_matched_a-20.wav","spherical","20","20","full","matched","-20","0","1549"
"echo-presentation","78","700667","0.0-78.0","5f6734b21949ab2fdc3bdd5a","5fef55e628823a0076ec12ee","602014e4cf8c485c8fd0cae1","Mozilla/5.0 (Windows NT 10.0; Win64; x64) AppleWebKit/537.36 (KHTML, like Gecko) Chrome/86.0.4240.198 Safari/537.36 OPR/72.0.3815.487","v1-up-stims","","","","","","","","-20,-10,0,10,20","media/audio/stims/spherical_300cm_s20_c20_cd-full_matched_a0.wav","spherical","20","20","full","matched","0","10","3002"
"echo-presentation","79","702582","0.0-79.0","5f6734b21949ab2fdc3bdd5a","5fef55e628823a0076ec12ee","602014e4cf8c485c8fd0cae1","Mozilla/5.0 (Windows NT 10.0; Win64; x64) AppleWebKit/537.36 (KHTML, like Gecko) Chrome/86.0.4240.198 Safari/537.36 OPR/72.0.3815.487","v1-up-stims","","","","","","","","-20,-10,0,10,20","media/audio/stims/spherical_300cm_s20_c20_cd-full_matched_a10.wav","spherical","20","20","full","matched","10","10","1131"
"echo-presentation","80","704550","0.0-80.0","5f6734b21949ab2fdc3bdd5a","5fef55e628823a0076ec12ee","602014e4cf8c485c8fd0cae1","Mozilla/5.0 (Windows NT 10.0; Win64; x64) AppleWebKit/537.36 (KHTML, like Gecko) Chrome/86.0.4240.198 Safari/537.36 OPR/72.0.3815.487","v1-up-stims","","","","","","","","-20,-10,0,10,20","media/audio/stims/spherical_300cm_s20_c20_cd-full_matched_a20.wav","spherical","20","20","full","matched","20","10","1086"
"echo-presentation","81","706421","0.0-81.0","5f6734b21949ab2fdc3bdd5a","5fef55e628823a0076ec12ee","602014e4cf8c485c8fd0cae1","Mozilla/5.0 (Windows NT 10.0; Win64; x64) AppleWebKit/537.36 (KHTML, like Gecko) Chrome/86.0.4240.198 Safari/537.36 OPR/72.0.3815.487","v1-up-stims","","","","","","","","-20,-10,0,10,20","media/audio/stims/spherical_300cm_s20_c20_cd-full_matched_a-10.wav","spherical","20","20","full","matched","-10","0","1143"
"echo-presentation","82","708733","0.0-82.0","5f6734b21949ab2fdc3bdd5a","5fef55e628823a0076ec12ee","602014e4cf8c485c8fd0cae1","Mozilla/5.0 (Windows NT 10.0; Win64; x64) AppleWebKit/537.36 (KHTML, like Gecko) Chrome/86.0.4240.198 Safari/537.36 OPR/72.0.3815.487","v1-up-stims","","","","","","","","-20,-10,0,10,20","media/audio/stims/spherical_300cm_s20_c20_cd-full_matched_a-20.wav","spherical","20","20","full","matched","-20","0","1583"
"echo-presentation","83","710832","0.0-83.0","5f6734b21949ab2fdc3bdd5a","5fef55e628823a0076ec12ee","602014e4cf8c485c8fd0cae1","Mozilla/5.0 (Windows NT 10.0; Win64; x64) AppleWebKit/537.36 (KHTML, like Gecko) Chrome/86.0.4240.198 Safari/537.36 OPR/72.0.3815.487","v1-up-stims","","","","","","","","-20,-10,0,10,20","media/audio/stims/spherical_300cm_s20_c20_cd-full_matched_a-20.wav","spherical","20","20","full","matched","-20","0","1517"
"echo-presentation","84","712636","0.0-84.0","5f6734b21949ab2fdc3bdd5a","5fef55e628823a0076ec12ee","602014e4cf8c485c8fd0cae1","Mozilla/5.0 (Windows NT 10.0; Win64; x64) AppleWebKit/537.36 (KHTML, like Gecko) Chrome/86.0.4240.198 Safari/537.36 OPR/72.0.3815.487","v1-up-stims","","","","","","","","-20,-10,0,10,20","media/audio/stims/spherical_300cm_s20_c20_cd-full_matched_a20.wav","spherical","20","20","full","matched","20","10","1207"
"echo-presentation","85","715013","0.0-85.0","5f6734b21949ab2fdc3bdd5a","5fef55e628823a0076ec12ee","602014e4cf8c485c8fd0cae1","Mozilla/5.0 (Windows NT 10.0; Win64; x64) AppleWebKit/537.36 (KHTML, like Gecko) Chrome/86.0.4240.198 Safari/537.36 OPR/72.0.3815.487","v1-up-stims","","","","","","","","-20,-10,0,10,20","media/audio/stims/spherical_300cm_s20_c20_cd-full_matched_a10.wav","spherical","20","20","full","matched","10","0","1737"
"echo-presentation","86","716947","0.0-86.0","5f6734b21949ab2fdc3bdd5a","5fef55e628823a0076ec12ee","602014e4cf8c485c8fd0cae1","Mozilla/5.0 (Windows NT 10.0; Win64; x64) AppleWebKit/537.36 (KHTML, like Gecko) Chrome/86.0.4240.198 Safari/537.36 OPR/72.0.3815.487","v1-up-stims","","","","","","","","-20,-10,0,10,20","media/audio/stims/spherical_300cm_s20_c20_cd-full_matched_a0.wav","spherical","20","20","full","matched","0","0","1396"
"echo-presentation","87","720412","0.0-87.0","5f6734b21949ab2fdc3bdd5a","5fef55e628823a0076ec12ee","602014e4cf8c485c8fd0cae1","Mozilla/5.0 (Windows NT 10.0; Win64; x64) AppleWebKit/537.36 (KHTML, like Gecko) Chrome/86.0.4240.198 Safari/537.36 OPR/72.0.3815.487","v1-up-stims","","","","","","","","-20,-10,0,10,20","media/audio/stims/spherical_300cm_s20_c20_cd-full_matched_a0.wav","spherical","20","20","full","matched","0","10","1207"
"echo-presentation","88","722920","0.0-88.0","5f6734b21949ab2fdc3bdd5a","5fef55e628823a0076ec12ee","602014e4cf8c485c8fd0cae1","Mozilla/5.0 (Windows NT 10.0; Win64; x64) AppleWebKit/537.36 (KHTML, like Gecko) Chrome/86.0.4240.198 Safari/537.36 OPR/72.0.3815.487","v1-up-stims","","","","","","","","-20,-10,0,10,20","media/audio/stims/spherical_300cm_s20_c20_cd-full_matched_a10.wav","spherical","20","20","full","matched","10","10","1242"
"echo-presentation","89","725296","0.0-89.0","5f6734b21949ab2fdc3bdd5a","5fef55e628823a0076ec12ee","602014e4cf8c485c8fd0cae1","Mozilla/5.0 (Windows NT 10.0; Win64; x64) AppleWebKit/537.36 (KHTML, like Gecko) Chrome/86.0.4240.198 Safari/537.36 OPR/72.0.3815.487","v1-up-stims","","","","","","","","-20,-10,0,10,20","media/audio/stims/spherical_300cm_s20_c20_cd-full_matched_a10.wav","spherical","20","20","full","matched","10","0","1450"
"echo-presentation","90","727442","0.0-90.0","5f6734b21949ab2fdc3bdd5a","5fef55e628823a0076ec12ee","602014e4cf8c485c8fd0cae1","Mozilla/5.0 (Windows NT 10.0; Win64; x64) AppleWebKit/537.36 (KHTML, like Gecko) Chrome/86.0.4240.198 Safari/537.36 OPR/72.0.3815.487","v1-up-stims","","","","","","","","-20,-10,0,10,20","media/audio/stims/spherical_300cm_s20_c20_cd-full_matched_a0.wav","spherical","20","20","full","matched","0","10","1186"
"echo-presentation","91","729576","0.0-91.0","5f6734b21949ab2fdc3bdd5a","5fef55e628823a0076ec12ee","602014e4cf8c485c8fd0cae1","Mozilla/5.0 (Windows NT 10.0; Win64; x64) AppleWebKit/537.36 (KHTML, like Gecko) Chrome/86.0.4240.198 Safari/537.36 OPR/72.0.3815.487","v1-up-stims","","","","","","","","-20,-10,0,10,20","media/audio/stims/spherical_300cm_s20_c20_cd-full_matched_a20.wav","spherical","20","20","full","matched","20","10","1099"
"echo-presentation","92","731457","0.0-92.0","5f6734b21949ab2fdc3bdd5a","5fef55e628823a0076ec12ee","602014e4cf8c485c8fd0cae1","Mozilla/5.0 (Windows NT 10.0; Win64; x64) AppleWebKit/537.36 (KHTML, like Gecko) Chrome/86.0.4240.198 Safari/537.36 OPR/72.0.3815.487","v1-up-stims","","","","","","","","-20,-10,0,10,20","media/audio/stims/spherical_300cm_s20_c20_cd-full_matched_a-20.wav","spherical","20","20","full","matched","-20","-10","1066"
"echo-presentation","93","733623","0.0-93.0","5f6734b21949ab2fdc3bdd5a","5fef55e628823a0076ec12ee","602014e4cf8c485c8fd0cae1","Mozilla/5.0 (Windows NT 10.0; Win64; x64) AppleWebKit/537.36 (KHTML, like Gecko) Chrome/86.0.4240.198 Safari/537.36 OPR/72.0.3815.487","v1-up-stims","","","","","","","","-20,-10,0,10,20","media/audio/stims/spherical_300cm_s20_c20_cd-full_matched_a-10.wav","spherical","20","20","full","matched","-10","-10","1341"
"block-bookend","94","745465","0.0-94.0","5f6734b21949ab2fdc3bdd5a","5fef55e628823a0076ec12ee","602014e4cf8c485c8fd0cae1","Mozilla/5.0 (Windows NT 10.0; Win64; x64) AppleWebKit/537.36 (KHTML, like Gecko) Chrome/86.0.4240.198 Safari/537.36 OPR/72.0.3815.487","v1-up-stims","","","","","","","","","","","","","","","","",""
"block-bookend","95","754099","0.0-95.0","5f6734b21949ab2fdc3bdd5a","5fef55e628823a0076ec12ee","602014e4cf8c485c8fd0cae1","Mozilla/5.0 (Windows NT 10.0; Win64; x64) AppleWebKit/537.36 (KHTML, like Gecko) Chrome/86.0.4240.198 Safari/537.36 OPR/72.0.3815.487","v1-up-stims","","","","","","","","","","","","","","","","",""
"echo-presentation","96","758935","0.0-96.0","5f6734b21949ab2fdc3bdd5a","5fef55e628823a0076ec12ee","602014e4cf8c485c8fd0cae1","Mozilla/5.0 (Windows NT 10.0; Win64; x64) AppleWebKit/537.36 (KHTML, like Gecko) Chrome/86.0.4240.198 Safari/537.36 OPR/72.0.3815.487","v1-up-stims","","","","","","","","40,50,60,70,80","media/audio/stims/spherical_300cm_s20_c20_cd-full_matched_a60.wav","spherical","20","20","full","matched","60","80","3629"
"echo-presentation","97","761617","0.0-97.0","5f6734b21949ab2fdc3bdd5a","5fef55e628823a0076ec12ee","602014e4cf8c485c8fd0cae1","Mozilla/5.0 (Windows NT 10.0; Win64; x64) AppleWebKit/537.36 (KHTML, like Gecko) Chrome/86.0.4240.198 Safari/537.36 OPR/72.0.3815.487","v1-up-stims","","","","","","","","40,50,60,70,80","media/audio/stims/spherical_300cm_s20_c20_cd-full_matched_a70.wav","spherical","20","20","full","matched","70","80","1406"
"echo-presentation","98","763907","0.0-98.0","5f6734b21949ab2fdc3bdd5a","5fef55e628823a0076ec12ee","602014e4cf8c485c8fd0cae1","Mozilla/5.0 (Windows NT 10.0; Win64; x64) AppleWebKit/537.36 (KHTML, like Gecko) Chrome/86.0.4240.198 Safari/537.36 OPR/72.0.3815.487","v1-up-stims","","","","","","","","40,50,60,70,80","media/audio/stims/spherical_300cm_s20_c20_cd-full_matched_a50.wav","spherical","20","20","full","matched","50","80","1263"
"echo-presentation","99","766183","0.0-99.0","5f6734b21949ab2fdc3bdd5a","5fef55e628823a0076ec12ee","602014e4cf8c485c8fd0cae1","Mozilla/5.0 (Windows NT 10.0; Win64; x64) AppleWebKit/537.36 (KHTML, like Gecko) Chrome/86.0.4240.198 Safari/537.36 OPR/72.0.3815.487","v1-up-stims","","","","","","","","40,50,60,70,80","media/audio/stims/spherical_300cm_s20_c20_cd-full_matched_a40.wav","spherical","20","20","full","matched","40","80","1230"
"echo-presentation","100","768691","0.0-100.0","5f6734b21949ab2fdc3bdd5a","5fef55e628823a0076ec12ee","602014e4cf8c485c8fd0cae1","Mozilla/5.0 (Windows NT 10.0; Win64; x64) AppleWebKit/537.36 (KHTML, like Gecko) Chrome/86.0.4240.198 Safari/537.36 OPR/72.0.3815.487","v1-up-stims","","","","","","","","40,50,60,70,80","media/audio/stims/spherical_300cm_s20_c20_cd-full_matched_a60.wav","spherical","20","20","full","matched","60","70","1339"
"echo-presentation","101","770550","0.0-101.0","5f6734b21949ab2fdc3bdd5a","5fef55e628823a0076ec12ee","602014e4cf8c485c8fd0cae1","Mozilla/5.0 (Windows NT 10.0; Win64; x64) AppleWebKit/537.36 (KHTML, like Gecko) Chrome/86.0.4240.198 Safari/537.36 OPR/72.0.3815.487","v1-up-stims","","","","","","","","40,50,60,70,80","media/audio/stims/spherical_300cm_s20_c20_cd-full_matched_a80.wav","spherical","20","20","full","matched","80","80","1032"
"echo-presentation","102","772420","0.0-102.0","5f6734b21949ab2fdc3bdd5a","5fef55e628823a0076ec12ee","602014e4cf8c485c8fd0cae1","Mozilla/5.0 (Windows NT 10.0; Win64; x64) AppleWebKit/537.36 (KHTML, like Gecko) Chrome/86.0.4240.198 Safari/537.36 OPR/72.0.3815.487","v1-up-stims","","","","","","","","40,50,60,70,80","media/audio/stims/spherical_300cm_s20_c20_cd-full_matched_a80.wav","spherical","20","20","full","matched","80","80","1032"
"echo-presentation","103","774411","0.0-103.0","5f6734b21949ab2fdc3bdd5a","5fef55e628823a0076ec12ee","602014e4cf8c485c8fd0cae1","Mozilla/5.0 (Windows NT 10.0; Win64; x64) AppleWebKit/537.36 (KHTML, like Gecko) Chrome/86.0.4240.198 Safari/537.36 OPR/72.0.3815.487","v1-up-stims","","","","","","","","40,50,60,70,80","media/audio/stims/spherical_300cm_s20_c20_cd-full_matched_a70.wav","spherical","20","20","full","matched","70","80","1241"
"echo-presentation","104","777326","0.0-104.0","5f6734b21949ab2fdc3bdd5a","5fef55e628823a0076ec12ee","602014e4cf8c485c8fd0cae1","Mozilla/5.0 (Windows NT 10.0; Win64; x64) AppleWebKit/537.36 (KHTML, like Gecko) Chrome/86.0.4240.198 Safari/537.36 OPR/72.0.3815.487","v1-up-stims","","","","","","","","40,50,60,70,80","media/audio/stims/spherical_300cm_s20_c20_cd-full_matched_a50.wav","spherical","20","20","full","matched","50","80","1957"
"echo-presentation","105","779295","0.0-105.0","5f6734b21949ab2fdc3bdd5a","5fef55e628823a0076ec12ee","602014e4cf8c485c8fd0cae1","Mozilla/5.0 (Windows NT 10.0; Win64; x64) AppleWebKit/537.36 (KHTML, like Gecko) Chrome/86.0.4240.198 Safari/537.36 OPR/72.0.3815.487","v1-up-stims","","","","","","","","40,50,60,70,80","media/audio/stims/spherical_300cm_s20_c20_cd-full_matched_a50.wav","spherical","20","20","full","matched","50","80","1241"
"echo-presentation","106","781033","0.0-106.0","5f6734b21949ab2fdc3bdd5a","5fef55e628823a0076ec12ee","602014e4cf8c485c8fd0cae1","Mozilla/5.0 (Windows NT 10.0; Win64; x64) AppleWebKit/537.36 (KHTML, like Gecko) Chrome/86.0.4240.198 Safari/537.36 OPR/72.0.3815.487","v1-up-stims","","","","","","","","40,50,60,70,80","media/audio/stims/spherical_300cm_s20_c20_cd-full_matched_a60.wav","spherical","20","20","full","matched","60","70","999"
"echo-presentation","107","783134","0.0-107.0","5f6734b21949ab2fdc3bdd5a","5fef55e628823a0076ec12ee","602014e4cf8c485c8fd0cae1","Mozilla/5.0 (Windows NT 10.0; Win64; x64) AppleWebKit/537.36 (KHTML, like Gecko) Chrome/86.0.4240.198 Safari/537.36 OPR/72.0.3815.487","v1-up-stims","","","","","","","","40,50,60,70,80","media/audio/stims/spherical_300cm_s20_c20_cd-full_matched_a40.wav","spherical","20","20","full","matched","40","80","1053"
"echo-presentation","108","785246","0.0-108.0","5f6734b21949ab2fdc3bdd5a","5fef55e628823a0076ec12ee","602014e4cf8c485c8fd0cae1","Mozilla/5.0 (Windows NT 10.0; Win64; x64) AppleWebKit/537.36 (KHTML, like Gecko) Chrome/86.0.4240.198 Safari/537.36 OPR/72.0.3815.487","v1-up-stims","","","","","","","","40,50,60,70,80","media/audio/stims/spherical_300cm_s20_c20_cd-full_matched_a80.wav","spherical","20","20","full","matched","80","70","1253"
"echo-presentation","109","787259","0.0-109.0","5f6734b21949ab2fdc3bdd5a","5fef55e628823a0076ec12ee","602014e4cf8c485c8fd0cae1","Mozilla/5.0 (Windows NT 10.0; Win64; x64) AppleWebKit/537.36 (KHTML, like Gecko) Chrome/86.0.4240.198 Safari/537.36 OPR/72.0.3815.487","v1-up-stims","","","","","","","","40,50,60,70,80","media/audio/stims/spherical_300cm_s20_c20_cd-full_matched_a50.wav","spherical","20","20","full","matched","50","80","1099"
"echo-presentation","110","789582","0.0-110.0","5f6734b21949ab2fdc3bdd5a","5fef55e628823a0076ec12ee","602014e4cf8c485c8fd0cae1","Mozilla/5.0 (Windows NT 10.0; Win64; x64) AppleWebKit/537.36 (KHTML, like Gecko) Chrome/86.0.4240.198 Safari/537.36 OPR/72.0.3815.487","v1-up-stims","","","","","","","","40,50,60,70,80","media/audio/stims/spherical_300cm_s20_c20_cd-full_matched_a40.wav","spherical","20","20","full","matched","40","80","1165"
"echo-presentation","111","791669","0.0-111.0","5f6734b21949ab2fdc3bdd5a","5fef55e628823a0076ec12ee","602014e4cf8c485c8fd0cae1","Mozilla/5.0 (Windows NT 10.0; Win64; x64) AppleWebKit/537.36 (KHTML, like Gecko) Chrome/86.0.4240.198 Safari/537.36 OPR/72.0.3815.487","v1-up-stims","","","","","","","","40,50,60,70,80","media/audio/stims/spherical_300cm_s20_c20_cd-full_matched_a60.wav","spherical","20","20","full","matched","60","80","1263"
"echo-presentation","112","793573","0.0-112.0","5f6734b21949ab2fdc3bdd5a","5fef55e628823a0076ec12ee","602014e4cf8c485c8fd0cae1","Mozilla/5.0 (Windows NT 10.0; Win64; x64) AppleWebKit/537.36 (KHTML, like Gecko) Chrome/86.0.4240.198 Safari/537.36 OPR/72.0.3815.487","v1-up-stims","","","","","","","","40,50,60,70,80","media/audio/stims/spherical_300cm_s20_c20_cd-full_matched_a80.wav","spherical","20","20","full","matched","80","70","1000"
"echo-presentation","113","795608","0.0-113.0","5f6734b21949ab2fdc3bdd5a","5fef55e628823a0076ec12ee","602014e4cf8c485c8fd0cae1","Mozilla/5.0 (Windows NT 10.0; Win64; x64) AppleWebKit/537.36 (KHTML, like Gecko) Chrome/86.0.4240.198 Safari/537.36 OPR/72.0.3815.487","v1-up-stims","","","","","","","","40,50,60,70,80","media/audio/stims/spherical_300cm_s20_c20_cd-full_matched_a70.wav","spherical","20","20","full","matched","70","70","1153"
"echo-presentation","114","798005","0.0-114.0","5f6734b21949ab2fdc3bdd5a","5fef55e628823a0076ec12ee","602014e4cf8c485c8fd0cae1","Mozilla/5.0 (Windows NT 10.0; Win64; x64) AppleWebKit/537.36 (KHTML, like Gecko) Chrome/86.0.4240.198 Safari/537.36 OPR/72.0.3815.487","v1-up-stims","","","","","","","","40,50,60,70,80","media/audio/stims/spherical_300cm_s20_c20_cd-full_matched_a70.wav","spherical","20","20","full","matched","70","80","1616"
"echo-presentation","115","800106","0.0-115.0","5f6734b21949ab2fdc3bdd5a","5fef55e628823a0076ec12ee","602014e4cf8c485c8fd0cae1","Mozilla/5.0 (Windows NT 10.0; Win64; x64) AppleWebKit/537.36 (KHTML, like Gecko) Chrome/86.0.4240.198 Safari/537.36 OPR/72.0.3815.487","v1-up-stims","","","","","","","","40,50,60,70,80","media/audio/stims/spherical_300cm_s20_c20_cd-full_matched_a40.wav","spherical","20","20","full","matched","40","80","1076"
"block-bookend","116","826907","0.0-116.0","5f6734b21949ab2fdc3bdd5a","5fef55e628823a0076ec12ee","602014e4cf8c485c8fd0cae1","Mozilla/5.0 (Windows NT 10.0; Win64; x64) AppleWebKit/537.36 (KHTML, like Gecko) Chrome/86.0.4240.198 Safari/537.36 OPR/72.0.3815.487","v1-up-stims","","","","","","","","","","","","","","","","",""
"block-bookend","117","898196","0.0-117.0","5f6734b21949ab2fdc3bdd5a","5fef55e628823a0076ec12ee","602014e4cf8c485c8fd0cae1","Mozilla/5.0 (Windows NT 10.0; Win64; x64) AppleWebKit/537.36 (KHTML, like Gecko) Chrome/86.0.4240.198 Safari/537.36 OPR/72.0.3815.487","v1-up-stims","","","","","","","","","","","","","","","","",""
"echo-presentation","118","900886","0.0-118.0","5f6734b21949ab2fdc3bdd5a","5fef55e628823a0076ec12ee","602014e4cf8c485c8fd0cae1","Mozilla/5.0 (Windows NT 10.0; Win64; x64) AppleWebKit/537.36 (KHTML, like Gecko) Chrome/86.0.4240.198 Safari/537.36 OPR/72.0.3815.487","v1-up-stims","","","","","","","","40,50,60,70,80","media/audio/stims/spherical_300cm_s20_c20_cd-full_matched_a80.wav","spherical","20","20","full","matched","80","80","1120"
"echo-presentation","119","902987","0.0-119.0","5f6734b21949ab2fdc3bdd5a","5fef55e628823a0076ec12ee","602014e4cf8c485c8fd0cae1","Mozilla/5.0 (Windows NT 10.0; Win64; x64) AppleWebKit/537.36 (KHTML, like Gecko) Chrome/86.0.4240.198 Safari/537.36 OPR/72.0.3815.487","v1-up-stims","","","","","","","","40,50,60,70,80","media/audio/stims/spherical_300cm_s20_c20_cd-full_matched_a80.wav","spherical","20","20","full","matched","80","80","1252"
"echo-presentation","120","904878","0.0-120.0","5f6734b21949ab2fdc3bdd5a","5fef55e628823a0076ec12ee","602014e4cf8c485c8fd0cae1","Mozilla/5.0 (Windows NT 10.0; Win64; x64) AppleWebKit/537.36 (KHTML, like Gecko) Chrome/86.0.4240.198 Safari/537.36 OPR/72.0.3815.487","v1-up-stims","","","","","","","","40,50,60,70,80","media/audio/stims/spherical_300cm_s20_c20_cd-full_matched_a70.wav","spherical","20","20","full","matched","70","80","1120"
"echo-presentation","121","906474","0.0-121.0","5f6734b21949ab2fdc3bdd5a","5fef55e628823a0076ec12ee","602014e4cf8c485c8fd0cae1","Mozilla/5.0 (Windows NT 10.0; Win64; x64) AppleWebKit/537.36 (KHTML, like Gecko) Chrome/86.0.4240.198 Safari/537.36 OPR/72.0.3815.487","v1-up-stims","","","","","","","","40,50,60,70,80","media/audio/stims/spherical_300cm_s20_c20_cd-full_matched_a60.wav","spherical","20","20","full","matched","60","80","989"
"echo-presentation","122","908277","0.0-122.0","5f6734b21949ab2fdc3bdd5a","5fef55e628823a0076ec12ee","602014e4cf8c485c8fd0cae1","Mozilla/5.0 (Windows NT 10.0; Win64; x64) AppleWebKit/537.36 (KHTML, like Gecko) Chrome/86.0.4240.198 Safari/537.36 OPR/72.0.3815.487","v1-up-stims","","","","","","","","40,50,60,70,80","media/audio/stims/spherical_300cm_s20_c20_cd-full_matched_a70.wav","spherical","20","20","full","matched","70","70","1209"
"echo-presentation","123","912206","0.0-123.0","5f6734b21949ab2fdc3bdd5a","5fef55e628823a0076ec12ee","602014e4cf8c485c8fd0cae1","Mozilla/5.0 (Windows NT 10.0; Win64; x64) AppleWebKit/537.36 (KHTML, like Gecko) Chrome/86.0.4240.198 Safari/537.36 OPR/72.0.3815.487","v1-up-stims","","","","","","","","40,50,60,70,80","media/audio/stims/spherical_300cm_s20_c20_cd-full_matched_a40.wav","spherical","20","20","full","matched","40","80","1285"
"echo-presentation","124","913998","0.0-124.0","5f6734b21949ab2fdc3bdd5a","5fef55e628823a0076ec12ee","602014e4cf8c485c8fd0cae1","Mozilla/5.0 (Windows NT 10.0; Win64; x64) AppleWebKit/537.36 (KHTML, like Gecko) Chrome/86.0.4240.198 Safari/537.36 OPR/72.0.3815.487","v1-up-stims","","","","","","","","40,50,60,70,80","media/audio/stims/spherical_300cm_s20_c20_cd-full_matched_a60.wav","spherical","20","20","full","matched","60","80","999"
"echo-presentation","125","915692","0.0-125.0","5f6734b21949ab2fdc3bdd5a","5fef55e628823a0076ec12ee","602014e4cf8c485c8fd0cae1","Mozilla/5.0 (Windows NT 10.0; Win64; x64) AppleWebKit/537.36 (KHTML, like Gecko) Chrome/86.0.4240.198 Safari/537.36 OPR/72.0.3815.487","v1-up-stims","","","","","","","","40,50,60,70,80","media/audio/stims/spherical_300cm_s20_c20_cd-full_matched_a50.wav","spherical","20","20","full","matched","50","80","956"
"echo-presentation","126","917496","0.0-126.0","5f6734b21949ab2fdc3bdd5a","5fef55e628823a0076ec12ee","602014e4cf8c485c8fd0cae1","Mozilla/5.0 (Windows NT 10.0; Win64; x64) AppleWebKit/537.36 (KHTML, like Gecko) Chrome/86.0.4240.198 Safari/537.36 OPR/72.0.3815.487","v1-up-stims","","","","","","","","40,50,60,70,80","media/audio/stims/spherical_300cm_s20_c20_cd-full_matched_a80.wav","spherical","20","20","full","matched","80","70","934"
"echo-presentation","127","919343","0.0-127.0","5f6734b21949ab2fdc3bdd5a","5fef55e628823a0076ec12ee","602014e4cf8c485c8fd0cae1","Mozilla/5.0 (Windows NT 10.0; Win64; x64) AppleWebKit/537.36 (KHTML, like Gecko) Chrome/86.0.4240.198 Safari/537.36 OPR/72.0.3815.487","v1-up-stims","","","","","","","","40,50,60,70,80","media/audio/stims/spherical_300cm_s20_c20_cd-full_matched_a70.wav","spherical","20","20","full","matched","70","70","1088"
"echo-presentation","128","921290","0.0-128.0","5f6734b21949ab2fdc3bdd5a","5fef55e628823a0076ec12ee","602014e4cf8c485c8fd0cae1","Mozilla/5.0 (Windows NT 10.0; Win64; x64) AppleWebKit/537.36 (KHTML, like Gecko) Chrome/86.0.4240.198 Safari/537.36 OPR/72.0.3815.487","v1-up-stims","","","","","","","","40,50,60,70,80","media/audio/stims/spherical_300cm_s20_c20_cd-full_matched_a50.wav","spherical","20","20","full","matched","50","80","1252"
"echo-presentation","129","922963","0.0-129.0","5f6734b21949ab2fdc3bdd5a","5fef55e628823a0076ec12ee","602014e4cf8c485c8fd0cae1","Mozilla/5.0 (Windows NT 10.0; Win64; x64) AppleWebKit/537.36 (KHTML, like Gecko) Chrome/86.0.4240.198 Safari/537.36 OPR/72.0.3815.487","v1-up-stims","","","","","","","","40,50,60,70,80","media/audio/stims/spherical_300cm_s20_c20_cd-full_matched_a70.wav","spherical","20","20","full","matched","70","80","956"
"echo-presentation","130","924811","0.0-130.0","5f6734b21949ab2fdc3bdd5a","5fef55e628823a0076ec12ee","602014e4cf8c485c8fd0cae1","Mozilla/5.0 (Windows NT 10.0; Win64; x64) AppleWebKit/537.36 (KHTML, like Gecko) Chrome/86.0.4240.198 Safari/537.36 OPR/72.0.3815.487","v1-up-stims","","","","","","","","40,50,60,70,80","media/audio/stims/spherical_300cm_s20_c20_cd-full_matched_a50.wav","spherical","20","20","full","matched","50","80","1000"
"echo-presentation","131","926856","0.0-131.0","5f6734b21949ab2fdc3bdd5a","5fef55e628823a0076ec12ee","602014e4cf8c485c8fd0cae1","Mozilla/5.0 (Windows NT 10.0; Win64; x64) AppleWebKit/537.36 (KHTML, like Gecko) Chrome/86.0.4240.198 Safari/537.36 OPR/72.0.3815.487","v1-up-stims","","","","","","","","40,50,60,70,80","media/audio/stims/spherical_300cm_s20_c20_cd-full_matched_a60.wav","spherical","20","20","full","matched","60","80","1208"
"echo-presentation","132","928462","0.0-132.0","5f6734b21949ab2fdc3bdd5a","5fef55e628823a0076ec12ee","602014e4cf8c485c8fd0cae1","Mozilla/5.0 (Windows NT 10.0; Win64; x64) AppleWebKit/537.36 (KHTML, like Gecko) Chrome/86.0.4240.198 Safari/537.36 OPR/72.0.3815.487","v1-up-stims","","","","","","","","40,50,60,70,80","media/audio/stims/spherical_300cm_s20_c20_cd-full_matched_a40.wav","spherical","20","20","full","matched","40","80","889"
"echo-presentation","133","930145","0.0-133.0","5f6734b21949ab2fdc3bdd5a","5fef55e628823a0076ec12ee","602014e4cf8c485c8fd0cae1","Mozilla/5.0 (Windows NT 10.0; Win64; x64) AppleWebKit/537.36 (KHTML, like Gecko) Chrome/86.0.4240.198 Safari/537.36 OPR/72.0.3815.487","v1-up-stims","","","","","","","","40,50,60,70,80","media/audio/stims/spherical_300cm_s20_c20_cd-full_matched_a80.wav","spherical","20","20","full","matched","80","80","922"
"echo-presentation","134","932278","0.0-134.0","5f6734b21949ab2fdc3bdd5a","5fef55e628823a0076ec12ee","602014e4cf8c485c8fd0cae1","Mozilla/5.0 (Windows NT 10.0; Win64; x64) AppleWebKit/537.36 (KHTML, like Gecko) Chrome/86.0.4240.198 Safari/537.36 OPR/72.0.3815.487","v1-up-stims","","","","","","","","40,50,60,70,80","media/audio/stims/spherical_300cm_s20_c20_cd-full_matched_a50.wav","spherical","20","20","full","matched","50","80","1164"
"echo-presentation","135","934018","0.0-135.0","5f6734b21949ab2fdc3bdd5a","5fef55e628823a0076ec12ee","602014e4cf8c485c8fd0cae1","Mozilla/5.0 (Windows NT 10.0; Win64; x64) AppleWebKit/537.36 (KHTML, like Gecko) Chrome/86.0.4240.198 Safari/537.36 OPR/72.0.3815.487","v1-up-stims","","","","","","","","40,50,60,70,80","media/audio/stims/spherical_300cm_s20_c20_cd-full_matched_a40.wav","spherical","20","20","full","matched","40","80","1010"
"echo-presentation","136","935756","0.0-136.0","5f6734b21949ab2fdc3bdd5a","5fef55e628823a0076ec12ee","602014e4cf8c485c8fd0cae1","Mozilla/5.0 (Windows NT 10.0; Win64; x64) AppleWebKit/537.36 (KHTML, like Gecko) Chrome/86.0.4240.198 Safari/537.36 OPR/72.0.3815.487","v1-up-stims","","","","","","","","40,50,60,70,80","media/audio/stims/spherical_300cm_s20_c20_cd-full_matched_a60.wav","spherical","20","20","full","matched","60","80","1021"
"echo-presentation","137","937637","0.0-137.0","5f6734b21949ab2fdc3bdd5a","5fef55e628823a0076ec12ee","602014e4cf8c485c8fd0cae1","Mozilla/5.0 (Windows NT 10.0; Win64; x64) AppleWebKit/537.36 (KHTML, like Gecko) Chrome/86.0.4240.198 Safari/537.36 OPR/72.0.3815.487","v1-up-stims","","","","","","","","40,50,60,70,80","media/audio/stims/spherical_300cm_s20_c20_cd-full_matched_a40.wav","spherical","20","20","full","matched","40","80","1164"
"block-bookend","138","938905","0.0-138.0","5f6734b21949ab2fdc3bdd5a","5fef55e628823a0076ec12ee","602014e4cf8c485c8fd0cae1","Mozilla/5.0 (Windows NT 10.0; Win64; x64) AppleWebKit/537.36 (KHTML, like Gecko) Chrome/86.0.4240.198 Safari/537.36 OPR/72.0.3815.487","v1-up-stims","","","","","","","","","","","","","","","","",""
