"trial_type","trial_index","time_elapsed","internal_node_id","prolificPid","studyId","sessionId","userAgent","version","rt","stimulus","key_press","chosenKeyset","failureCount","testIndex","globalVolume","choices","filename","modelName","slowdown","compensation","compensationDescriptor","receiverOrientationType","azimuth","responseAzimuth","responseDelay"
"pavlovia","0","3","0.0-0.0","5ff2473e351a26264ff42e0e","5fef55e628823a0076ec12ee","601f4b0fc0e6634ab7a8d5f4","Mozilla/5.0 (Windows NT 10.0; Win64; x64) AppleWebKit/537.36 (KHTML, like Gecko) Chrome/88.0.4324.150 Safari/537.36","v1","","","","","","","","","","","","","","","","",""
"html-keyboard-response","1","1468","0.0-1.0","5ff2473e351a26264ff42e0e","5fef55e628823a0076ec12ee","601f4b0fc0e6634ab7a8d5f4","Mozilla/5.0 (Windows NT 10.0; Win64; x64) AppleWebKit/537.36 (KHTML, like Gecko) Chrome/88.0.4324.150 Safari/537.36","v1","1463.9050000114366","<div><h1>Welcome!</h1><p>Press any key to continue.</p></div>","32","","","","","","","","","","","","","",""
"consent-form","2","5907","0.0-2.0","5ff2473e351a26264ff42e0e","5fef55e628823a0076ec12ee","601f4b0fc0e6634ab7a8d5f4","Mozilla/5.0 (Windows NT 10.0; Win64; x64) AppleWebKit/537.36 (KHTML, like Gecko) Chrome/88.0.4324.150 Safari/537.36","v1","","","","","","","","","","","","","","","","",""
"keyset-select","3","8785","0.0-3.0","5ff2473e351a26264ff42e0e","5fef55e628823a0076ec12ee","601f4b0fc0e6634ab7a8d5f4","Mozilla/5.0 (Windows NT 10.0; Win64; x64) AppleWebKit/537.36 (KHTML, like Gecko) Chrome/88.0.4324.150 Safari/537.36","v1","","","","right-hand","","","","","","","","","","","","",""
"headphone-check","4","48367","0.0-4.0","5ff2473e351a26264ff42e0e","5fef55e628823a0076ec12ee","601f4b0fc0e6634ab7a8d5f4","Mozilla/5.0 (Windows NT 10.0; Win64; x64) AppleWebKit/537.36 (KHTML, like Gecko) Chrome/88.0.4324.150 Safari/537.36","v1","","","","","0","6","0.7","","","","","","","","","",""
"headphone-backwards-check","5","56240","0.0-5.0","5ff2473e351a26264ff42e0e","5fef55e628823a0076ec12ee","601f4b0fc0e6634ab7a8d5f4","Mozilla/5.0 (Windows NT 10.0; Win64; x64) AppleWebKit/537.36 (KHTML, like Gecko) Chrome/88.0.4324.150 Safari/537.36","v1","","","","","0","","","","","","","","","","","",""
"training","6","115522","0.0-6.0","5ff2473e351a26264ff42e0e","5fef55e628823a0076ec12ee","601f4b0fc0e6634ab7a8d5f4","Mozilla/5.0 (Windows NT 10.0; Win64; x64) AppleWebKit/537.36 (KHTML, like Gecko) Chrome/88.0.4324.150 Safari/537.36","v1","","","","","","","","","","","","","","","","",""
"block-bookend","7","125986","0.0-7.0","5ff2473e351a26264ff42e0e","5fef55e628823a0076ec12ee","601f4b0fc0e6634ab7a8d5f4","Mozilla/5.0 (Windows NT 10.0; Win64; x64) AppleWebKit/537.36 (KHTML, like Gecko) Chrome/88.0.4324.150 Safari/537.36","v1","","","","","","","","","","","","","","","","",""
"echo-presentation","8","132617","0.0-8.0","5ff2473e351a26264ff42e0e","5fef55e628823a0076ec12ee","601f4b0fc0e6634ab7a8d5f4","Mozilla/5.0 (Windows NT 10.0; Win64; x64) AppleWebKit/537.36 (KHTML, like Gecko) Chrome/88.0.4324.150 Safari/537.36","v1","","","","","","","","40,50,60,70,80","media/audio/stims/spherical_300cm_s20_c20_cd-full_matched_a80.wav","spherical","20","20","full","matched","80","70","3025"
"echo-presentation","9","136522","0.0-9.0","5ff2473e351a26264ff42e0e","5fef55e628823a0076ec12ee","601f4b0fc0e6634ab7a8d5f4","Mozilla/5.0 (Windows NT 10.0; Win64; x64) AppleWebKit/537.36 (KHTML, like Gecko) Chrome/88.0.4324.150 Safari/537.36","v1","","","","","","","","40,50,60,70,80","media/audio/stims/spherical_300cm_s20_c20_cd-full_matched_a40.wav","spherical","20","20","full","matched","40","80","1851"
"echo-presentation","10","141109","0.0-10.0","5ff2473e351a26264ff42e0e","5fef55e628823a0076ec12ee","601f4b0fc0e6634ab7a8d5f4","Mozilla/5.0 (Windows NT 10.0; Win64; x64) AppleWebKit/537.36 (KHTML, like Gecko) Chrome/88.0.4324.150 Safari/537.36","v1","","","","","","","","40,50,60,70,80","media/audio/stims/spherical_300cm_s20_c20_cd-full_matched_a80.wav","spherical","20","20","full","matched","80","70","2748"
"echo-presentation","11","147876","0.0-11.0","5ff2473e351a26264ff42e0e","5fef55e628823a0076ec12ee","601f4b0fc0e6634ab7a8d5f4","Mozilla/5.0 (Windows NT 10.0; Win64; x64) AppleWebKit/537.36 (KHTML, like Gecko) Chrome/88.0.4324.150 Safari/537.36","v1","","","","","","","","40,50,60,70,80","media/audio/stims/spherical_300cm_s20_c20_cd-full_matched_a80.wav","spherical","20","20","full","matched","80","70","5478"
"echo-presentation","12","153374","0.0-12.0","5ff2473e351a26264ff42e0e","5fef55e628823a0076ec12ee","601f4b0fc0e6634ab7a8d5f4","Mozilla/5.0 (Windows NT 10.0; Win64; x64) AppleWebKit/537.36 (KHTML, like Gecko) Chrome/88.0.4324.150 Safari/537.36","v1","","","","","","","","40,50,60,70,80","media/audio/stims/spherical_300cm_s20_c20_cd-full_matched_a60.wav","spherical","20","20","full","matched","60","80","4326"
"echo-presentation","13","157659","0.0-13.0","5ff2473e351a26264ff42e0e","5fef55e628823a0076ec12ee","601f4b0fc0e6634ab7a8d5f4","Mozilla/5.0 (Windows NT 10.0; Win64; x64) AppleWebKit/537.36 (KHTML, like Gecko) Chrome/88.0.4324.150 Safari/537.36","v1","","","","","","","","40,50,60,70,80","media/audio/stims/spherical_300cm_s20_c20_cd-full_matched_a60.wav","spherical","20","20","full","matched","60","80","3113"
"echo-presentation","14","160253","0.0-14.0","5ff2473e351a26264ff42e0e","5fef55e628823a0076ec12ee","601f4b0fc0e6634ab7a8d5f4","Mozilla/5.0 (Windows NT 10.0; Win64; x64) AppleWebKit/537.36 (KHTML, like Gecko) Chrome/88.0.4324.150 Safari/537.36","v1","","","","","","","","40,50,60,70,80","media/audio/stims/spherical_300cm_s20_c20_cd-full_matched_a60.wav","spherical","20","20","full","matched","60","80","1608"
"echo-presentation","15","162799","0.0-15.0","5ff2473e351a26264ff42e0e","5fef55e628823a0076ec12ee","601f4b0fc0e6634ab7a8d5f4","Mozilla/5.0 (Windows NT 10.0; Win64; x64) AppleWebKit/537.36 (KHTML, like Gecko) Chrome/88.0.4324.150 Safari/537.36","v1","","","","","","","","40,50,60,70,80","media/audio/stims/spherical_300cm_s20_c20_cd-full_matched_a40.wav","spherical","20","20","full","matched","40","80","1684"
"echo-presentation","16","166796","0.0-16.0","5ff2473e351a26264ff42e0e","5fef55e628823a0076ec12ee","601f4b0fc0e6634ab7a8d5f4","Mozilla/5.0 (Windows NT 10.0; Win64; x64) AppleWebKit/537.36 (KHTML, like Gecko) Chrome/88.0.4324.150 Safari/537.36","v1","","","","","","","","40,50,60,70,80","media/audio/stims/spherical_300cm_s20_c20_cd-full_matched_a50.wav","spherical","20","20","full","matched","50","80","2828"
"echo-presentation","17","170244","0.0-17.0","5ff2473e351a26264ff42e0e","5fef55e628823a0076ec12ee","601f4b0fc0e6634ab7a8d5f4","Mozilla/5.0 (Windows NT 10.0; Win64; x64) AppleWebKit/537.36 (KHTML, like Gecko) Chrome/88.0.4324.150 Safari/537.36","v1","","","","","","","","40,50,60,70,80","media/audio/stims/spherical_300cm_s20_c20_cd-full_matched_a70.wav","spherical","20","20","full","matched","70","70","2591"
"echo-presentation","18","172801","0.0-18.0","5ff2473e351a26264ff42e0e","5fef55e628823a0076ec12ee","601f4b0fc0e6634ab7a8d5f4","Mozilla/5.0 (Windows NT 10.0; Win64; x64) AppleWebKit/537.36 (KHTML, like Gecko) Chrome/88.0.4324.150 Safari/537.36","v1","","","","","","","","40,50,60,70,80","media/audio/stims/spherical_300cm_s20_c20_cd-full_matched_a70.wav","spherical","20","20","full","matched","70","80","1490"
"echo-presentation","19","177300","0.0-19.0","5ff2473e351a26264ff42e0e","5fef55e628823a0076ec12ee","601f4b0fc0e6634ab7a8d5f4","Mozilla/5.0 (Windows NT 10.0; Win64; x64) AppleWebKit/537.36 (KHTML, like Gecko) Chrome/88.0.4324.150 Safari/537.36","v1","","","","","","","","40,50,60,70,80","media/audio/stims/spherical_300cm_s20_c20_cd-full_matched_a70.wav","spherical","20","20","full","matched","70","80","3641"
"echo-presentation","20","180288","0.0-20.0","5ff2473e351a26264ff42e0e","5fef55e628823a0076ec12ee","601f4b0fc0e6634ab7a8d5f4","Mozilla/5.0 (Windows NT 10.0; Win64; x64) AppleWebKit/537.36 (KHTML, like Gecko) Chrome/88.0.4324.150 Safari/537.36","v1","","","","","","","","40,50,60,70,80","media/audio/stims/spherical_300cm_s20_c20_cd-full_matched_a40.wav","spherical","20","20","full","matched","40","70","2098"
"echo-presentation","21","199169","0.0-21.0","5ff2473e351a26264ff42e0e","5fef55e628823a0076ec12ee","601f4b0fc0e6634ab7a8d5f4","Mozilla/5.0 (Windows NT 10.0; Win64; x64) AppleWebKit/537.36 (KHTML, like Gecko) Chrome/88.0.4324.150 Safari/537.36","v1","","","","","","","","40,50,60,70,80","media/audio/stims/spherical_300cm_s20_c20_cd-full_matched_a70.wav","spherical","20","20","full","matched","70","70","8733"
"echo-presentation","22","202684","0.0-22.0","5ff2473e351a26264ff42e0e","5fef55e628823a0076ec12ee","601f4b0fc0e6634ab7a8d5f4","Mozilla/5.0 (Windows NT 10.0; Win64; x64) AppleWebKit/537.36 (KHTML, like Gecko) Chrome/88.0.4324.150 Safari/537.36","v1","","","","","","","","40,50,60,70,80","media/audio/stims/spherical_300cm_s20_c20_cd-full_matched_a50.wav","spherical","20","20","full","matched","50","80","1780"
"echo-presentation","23","204936","0.0-23.0","5ff2473e351a26264ff42e0e","5fef55e628823a0076ec12ee","601f4b0fc0e6634ab7a8d5f4","Mozilla/5.0 (Windows NT 10.0; Win64; x64) AppleWebKit/537.36 (KHTML, like Gecko) Chrome/88.0.4324.150 Safari/537.36","v1","","","","","","","","40,50,60,70,80","media/audio/stims/spherical_300cm_s20_c20_cd-full_matched_a60.wav","spherical","20","20","full","matched","60","80","1313"
"echo-presentation","24","208376","0.0-24.0","5ff2473e351a26264ff42e0e","5fef55e628823a0076ec12ee","601f4b0fc0e6634ab7a8d5f4","Mozilla/5.0 (Windows NT 10.0; Win64; x64) AppleWebKit/537.36 (KHTML, like Gecko) Chrome/88.0.4324.150 Safari/537.36","v1","","","","","","","","40,50,60,70,80","media/audio/stims/spherical_300cm_s20_c20_cd-full_matched_a50.wav","spherical","20","20","full","matched","50","80","2574"
"echo-presentation","25","210598","0.0-25.0","5ff2473e351a26264ff42e0e","5fef55e628823a0076ec12ee","601f4b0fc0e6634ab7a8d5f4","Mozilla/5.0 (Windows NT 10.0; Win64; x64) AppleWebKit/537.36 (KHTML, like Gecko) Chrome/88.0.4324.150 Safari/537.36","v1","","","","","","","","40,50,60,70,80","media/audio/stims/spherical_300cm_s20_c20_cd-full_matched_a50.wav","spherical","20","20","full","matched","50","80","1347"
"echo-presentation","26","212448","0.0-26.0","5ff2473e351a26264ff42e0e","5fef55e628823a0076ec12ee","601f4b0fc0e6634ab7a8d5f4","Mozilla/5.0 (Windows NT 10.0; Win64; x64) AppleWebKit/537.36 (KHTML, like Gecko) Chrome/88.0.4324.150 Safari/537.36","v1","","","","","","","","40,50,60,70,80","media/audio/stims/spherical_300cm_s20_c20_cd-full_matched_a80.wav","spherical","20","20","full","matched","80","80","915"
"echo-presentation","27","215246","0.0-27.0","5ff2473e351a26264ff42e0e","5fef55e628823a0076ec12ee","601f4b0fc0e6634ab7a8d5f4","Mozilla/5.0 (Windows NT 10.0; Win64; x64) AppleWebKit/537.36 (KHTML, like Gecko) Chrome/88.0.4324.150 Safari/537.36","v1","","","","","","","","40,50,60,70,80","media/audio/stims/spherical_300cm_s20_c20_cd-full_matched_a40.wav","spherical","20","20","full","matched","40","80","1564"
"block-bookend","28","218291","0.0-28.0","5ff2473e351a26264ff42e0e","5fef55e628823a0076ec12ee","601f4b0fc0e6634ab7a8d5f4","Mozilla/5.0 (Windows NT 10.0; Win64; x64) AppleWebKit/537.36 (KHTML, like Gecko) Chrome/88.0.4324.150 Safari/537.36","v1","","","","","","","","","","","","","","","","",""
"block-bookend","29","231715","0.0-29.0","5ff2473e351a26264ff42e0e","5fef55e628823a0076ec12ee","601f4b0fc0e6634ab7a8d5f4","Mozilla/5.0 (Windows NT 10.0; Win64; x64) AppleWebKit/537.36 (KHTML, like Gecko) Chrome/88.0.4324.150 Safari/537.36","v1","","","","","","","","","","","","","","","","",""
"echo-presentation","30","236492","0.0-30.0","5ff2473e351a26264ff42e0e","5fef55e628823a0076ec12ee","601f4b0fc0e6634ab7a8d5f4","Mozilla/5.0 (Windows NT 10.0; Win64; x64) AppleWebKit/537.36 (KHTML, like Gecko) Chrome/88.0.4324.150 Safari/537.36","v1","","","","","","","","40,50,60,70,80","media/audio/stims/spherical_300cm_s20_c20_cd-full_matched_a70.wav","spherical","20","20","full","matched","70","60","3089"
"echo-presentation","31","241107","0.0-31.0","5ff2473e351a26264ff42e0e","5fef55e628823a0076ec12ee","601f4b0fc0e6634ab7a8d5f4","Mozilla/5.0 (Windows NT 10.0; Win64; x64) AppleWebKit/537.36 (KHTML, like Gecko) Chrome/88.0.4324.150 Safari/537.36","v1","","","","","","","","40,50,60,70,80","media/audio/stims/spherical_300cm_s20_c20_cd-full_matched_a70.wav","spherical","20","20","full","matched","70","70","3574"
"echo-presentation","32","244656","0.0-32.0","5ff2473e351a26264ff42e0e","5fef55e628823a0076ec12ee","601f4b0fc0e6634ab7a8d5f4","Mozilla/5.0 (Windows NT 10.0; Win64; x64) AppleWebKit/537.36 (KHTML, like Gecko) Chrome/88.0.4324.150 Safari/537.36","v1","","","","","","","","40,50,60,70,80","media/audio/stims/spherical_300cm_s20_c20_cd-full_matched_a40.wav","spherical","20","20","full","matched","40","80","2516"
"echo-presentation","33","248329","0.0-33.0","5ff2473e351a26264ff42e0e","5fef55e628823a0076ec12ee","601f4b0fc0e6634ab7a8d5f4","Mozilla/5.0 (Windows NT 10.0; Win64; x64) AppleWebKit/537.36 (KHTML, like Gecko) Chrome/88.0.4324.150 Safari/537.36","v1","","","","","","","","40,50,60,70,80","media/audio/stims/spherical_300cm_s20_c20_cd-full_matched_a80.wav","spherical","20","20","full","matched","80","80","1971"
"echo-presentation","34","251327","0.0-34.0","5ff2473e351a26264ff42e0e","5fef55e628823a0076ec12ee","601f4b0fc0e6634ab7a8d5f4","Mozilla/5.0 (Windows NT 10.0; Win64; x64) AppleWebKit/537.36 (KHTML, like Gecko) Chrome/88.0.4324.150 Safari/537.36","v1","","","","","","","","40,50,60,70,80","media/audio/stims/spherical_300cm_s20_c20_cd-full_matched_a60.wav","spherical","20","20","full","matched","60","80","1577"
"echo-presentation","35","257817","0.0-35.0","5ff2473e351a26264ff42e0e","5fef55e628823a0076ec12ee","601f4b0fc0e6634ab7a8d5f4","Mozilla/5.0 (Windows NT 10.0; Win64; x64) AppleWebKit/537.36 (KHTML, like Gecko) Chrome/88.0.4324.150 Safari/537.36","v1","","","","","","","","40,50,60,70,80","media/audio/stims/spherical_300cm_s20_c20_cd-full_matched_a40.wav","spherical","20","20","full","matched","40","80","5329"
"echo-presentation","36","260076","0.0-36.0","5ff2473e351a26264ff42e0e","5fef55e628823a0076ec12ee","601f4b0fc0e6634ab7a8d5f4","Mozilla/5.0 (Windows NT 10.0; Win64; x64) AppleWebKit/537.36 (KHTML, like Gecko) Chrome/88.0.4324.150 Safari/537.36","v1","","","","","","","","40,50,60,70,80","media/audio/stims/spherical_300cm_s20_c20_cd-full_matched_a80.wav","spherical","20","20","full","matched","80","70","1534"
"echo-presentation","37","262967","0.0-37.0","5ff2473e351a26264ff42e0e","5fef55e628823a0076ec12ee","601f4b0fc0e6634ab7a8d5f4","Mozilla/5.0 (Windows NT 10.0; Win64; x64) AppleWebKit/537.36 (KHTML, like Gecko) Chrome/88.0.4324.150 Safari/537.36","v1","","","","","","","","40,50,60,70,80","media/audio/stims/spherical_300cm_s20_c20_cd-full_matched_a70.wav","spherical","20","20","full","matched","70","70","2042"
"echo-presentation","38","266096","0.0-38.0","5ff2473e351a26264ff42e0e","5fef55e628823a0076ec12ee","601f4b0fc0e6634ab7a8d5f4","Mozilla/5.0 (Windows NT 10.0; Win64; x64) AppleWebKit/537.36 (KHTML, like Gecko) Chrome/88.0.4324.150 Safari/537.36","v1","","","","","","","","40,50,60,70,80","media/audio/stims/spherical_300cm_s20_c20_cd-full_matched_a50.wav","spherical","20","20","full","matched","50","80","2225"
"echo-presentation","39","269274","0.0-39.0","5ff2473e351a26264ff42e0e","5fef55e628823a0076ec12ee","601f4b0fc0e6634ab7a8d5f4","Mozilla/5.0 (Windows NT 10.0; Win64; x64) AppleWebKit/537.36 (KHTML, like Gecko) Chrome/88.0.4324.150 Safari/537.36","v1","","","","","","","","40,50,60,70,80","media/audio/stims/spherical_300cm_s20_c20_cd-full_matched_a60.wav","spherical","20","20","full","matched","60","70","2273"
"echo-presentation","40","271630","0.0-40.0","5ff2473e351a26264ff42e0e","5fef55e628823a0076ec12ee","601f4b0fc0e6634ab7a8d5f4","Mozilla/5.0 (Windows NT 10.0; Win64; x64) AppleWebKit/537.36 (KHTML, like Gecko) Chrome/88.0.4324.150 Safari/537.36","v1","","","","","","","","40,50,60,70,80","media/audio/stims/spherical_300cm_s20_c20_cd-full_matched_a80.wav","spherical","20","20","full","matched","80","80","1489"
"echo-presentation","41","274180","0.0-41.0","5ff2473e351a26264ff42e0e","5fef55e628823a0076ec12ee","601f4b0fc0e6634ab7a8d5f4","Mozilla/5.0 (Windows NT 10.0; Win64; x64) AppleWebKit/537.36 (KHTML, like Gecko) Chrome/88.0.4324.150 Safari/537.36","v1","","","","","","","","40,50,60,70,80","media/audio/stims/spherical_300cm_s20_c20_cd-full_matched_a80.wav","spherical","20","20","full","matched","80","80","1446"
"echo-presentation","42","276121","0.0-42.0","5ff2473e351a26264ff42e0e","5fef55e628823a0076ec12ee","601f4b0fc0e6634ab7a8d5f4","Mozilla/5.0 (Windows NT 10.0; Win64; x64) AppleWebKit/537.36 (KHTML, like Gecko) Chrome/88.0.4324.150 Safari/537.36","v1","","","","","","","","40,50,60,70,80","media/audio/stims/spherical_300cm_s20_c20_cd-full_matched_a50.wav","spherical","20","20","full","matched","50","80","1080"
"echo-presentation","43","278227","0.0-43.0","5ff2473e351a26264ff42e0e","5fef55e628823a0076ec12ee","601f4b0fc0e6634ab7a8d5f4","Mozilla/5.0 (Windows NT 10.0; Win64; x64) AppleWebKit/537.36 (KHTML, like Gecko) Chrome/88.0.4324.150 Safari/537.36","v1","","","","","","","","40,50,60,70,80","media/audio/stims/spherical_300cm_s20_c20_cd-full_matched_a60.wav","spherical","20","20","full","matched","60","80","1276"
"echo-presentation","44","280053","0.0-44.0","5ff2473e351a26264ff42e0e","5fef55e628823a0076ec12ee","601f4b0fc0e6634ab7a8d5f4","Mozilla/5.0 (Windows NT 10.0; Win64; x64) AppleWebKit/537.36 (KHTML, like Gecko) Chrome/88.0.4324.150 Safari/537.36","v1","","","","","","","","40,50,60,70,80","media/audio/stims/spherical_300cm_s20_c20_cd-full_matched_a60.wav","spherical","20","20","full","matched","60","80","1288"
"echo-presentation","45","282033","0.0-45.0","5ff2473e351a26264ff42e0e","5fef55e628823a0076ec12ee","601f4b0fc0e6634ab7a8d5f4","Mozilla/5.0 (Windows NT 10.0; Win64; x64) AppleWebKit/537.36 (KHTML, like Gecko) Chrome/88.0.4324.150 Safari/537.36","v1","","","","","","","","40,50,60,70,80","media/audio/stims/spherical_300cm_s20_c20_cd-full_matched_a50.wav","spherical","20","20","full","matched","50","80","1089"
"echo-presentation","46","284153","0.0-46.0","5ff2473e351a26264ff42e0e","5fef55e628823a0076ec12ee","601f4b0fc0e6634ab7a8d5f4","Mozilla/5.0 (Windows NT 10.0; Win64; x64) AppleWebKit/537.36 (KHTML, like Gecko) Chrome/88.0.4324.150 Safari/537.36","v1","","","","","","","","40,50,60,70,80","media/audio/stims/spherical_300cm_s20_c20_cd-full_matched_a50.wav","spherical","20","20","full","matched","50","80","1256"
"echo-presentation","47","286113","0.0-47.0","5ff2473e351a26264ff42e0e","5fef55e628823a0076ec12ee","601f4b0fc0e6634ab7a8d5f4","Mozilla/5.0 (Windows NT 10.0; Win64; x64) AppleWebKit/537.36 (KHTML, like Gecko) Chrome/88.0.4324.150 Safari/537.36","v1","","","","","","","","40,50,60,70,80","media/audio/stims/spherical_300cm_s20_c20_cd-full_matched_a40.wav","spherical","20","20","full","matched","40","80","1123"
"echo-presentation","48","288020","0.0-48.0","5ff2473e351a26264ff42e0e","5fef55e628823a0076ec12ee","601f4b0fc0e6634ab7a8d5f4","Mozilla/5.0 (Windows NT 10.0; Win64; x64) AppleWebKit/537.36 (KHTML, like Gecko) Chrome/88.0.4324.150 Safari/537.36","v1","","","","","","","","40,50,60,70,80","media/audio/stims/spherical_300cm_s20_c20_cd-full_matched_a40.wav","spherical","20","20","full","matched","40","80","1071"
"echo-presentation","49","290033","0.0-49.0","5ff2473e351a26264ff42e0e","5fef55e628823a0076ec12ee","601f4b0fc0e6634ab7a8d5f4","Mozilla/5.0 (Windows NT 10.0; Win64; x64) AppleWebKit/537.36 (KHTML, like Gecko) Chrome/88.0.4324.150 Safari/537.36","v1","","","","","","","","40,50,60,70,80","media/audio/stims/spherical_300cm_s20_c20_cd-full_matched_a70.wav","spherical","20","20","full","matched","70","80","917"
"block-bookend","50","292448","0.0-50.0","5ff2473e351a26264ff42e0e","5fef55e628823a0076ec12ee","601f4b0fc0e6634ab7a8d5f4","Mozilla/5.0 (Windows NT 10.0; Win64; x64) AppleWebKit/537.36 (KHTML, like Gecko) Chrome/88.0.4324.150 Safari/537.36","v1","","","","","","","","","","","","","","","","",""
"block-bookend","51","310733","0.0-51.0","5ff2473e351a26264ff42e0e","5fef55e628823a0076ec12ee","601f4b0fc0e6634ab7a8d5f4","Mozilla/5.0 (Windows NT 10.0; Win64; x64) AppleWebKit/537.36 (KHTML, like Gecko) Chrome/88.0.4324.150 Safari/537.36","v1","","","","","","","","","","","","","","","","",""
"echo-presentation","52","315293","0.0-52.0","5ff2473e351a26264ff42e0e","5fef55e628823a0076ec12ee","601f4b0fc0e6634ab7a8d5f4","Mozilla/5.0 (Windows NT 10.0; Win64; x64) AppleWebKit/537.36 (KHTML, like Gecko) Chrome/88.0.4324.150 Safari/537.36","v1","","","","","","","","-80,-70,-60,-50,-40","media/audio/stims/spherical_300cm_s20_c20_cd-full_matched_a-70.wav","spherical","20","20","full","matched","-70","-60","2500"
"echo-presentation","53","322079","0.0-53.0","5ff2473e351a26264ff42e0e","5fef55e628823a0076ec12ee","601f4b0fc0e6634ab7a8d5f4","Mozilla/5.0 (Windows NT 10.0; Win64; x64) AppleWebKit/537.36 (KHTML, like Gecko) Chrome/88.0.4324.150 Safari/537.36","v1","","","","","","","","-80,-70,-60,-50,-40","media/audio/stims/spherical_300cm_s20_c20_cd-full_matched_a-40.wav","spherical","20","20","full","matched","-40","-50","4787"
"echo-presentation","54","327970","0.0-54.0","5ff2473e351a26264ff42e0e","5fef55e628823a0076ec12ee","601f4b0fc0e6634ab7a8d5f4","Mozilla/5.0 (Windows NT 10.0; Win64; x64) AppleWebKit/537.36 (KHTML, like Gecko) Chrome/88.0.4324.150 Safari/537.36","v1","","","","","","","","-80,-70,-60,-50,-40","media/audio/stims/spherical_300cm_s20_c20_cd-full_matched_a-80.wav","spherical","20","20","full","matched","-80","-80","4364"
"echo-presentation","55","332368","0.0-55.0","5ff2473e351a26264ff42e0e","5fef55e628823a0076ec12ee","601f4b0fc0e6634ab7a8d5f4","Mozilla/5.0 (Windows NT 10.0; Win64; x64) AppleWebKit/537.36 (KHTML, like Gecko) Chrome/88.0.4324.150 Safari/537.36","v1","","","","","","","","-80,-70,-60,-50,-40","media/audio/stims/spherical_300cm_s20_c20_cd-full_matched_a-50.wav","spherical","20","20","full","matched","-50","-70","1972"
"echo-presentation","56","336320","0.0-56.0","5ff2473e351a26264ff42e0e","5fef55e628823a0076ec12ee","601f4b0fc0e6634ab7a8d5f4","Mozilla/5.0 (Windows NT 10.0; Win64; x64) AppleWebKit/537.36 (KHTML, like Gecko) Chrome/88.0.4324.150 Safari/537.36","v1","","","","","","","","-80,-70,-60,-50,-40","media/audio/stims/spherical_300cm_s20_c20_cd-full_matched_a-50.wav","spherical","20","20","full","matched","-50","-60","2603"
"echo-presentation","57","339020","0.0-57.0","5ff2473e351a26264ff42e0e","5fef55e628823a0076ec12ee","601f4b0fc0e6634ab7a8d5f4","Mozilla/5.0 (Windows NT 10.0; Win64; x64) AppleWebKit/537.36 (KHTML, like Gecko) Chrome/88.0.4324.150 Safari/537.36","v1","","","","","","","","-80,-70,-60,-50,-40","media/audio/stims/spherical_300cm_s20_c20_cd-full_matched_a-60.wav","spherical","20","20","full","matched","-60","-60","1699"
"echo-presentation","58","341489","0.0-58.0","5ff2473e351a26264ff42e0e","5fef55e628823a0076ec12ee","601f4b0fc0e6634ab7a8d5f4","Mozilla/5.0 (Windows NT 10.0; Win64; x64) AppleWebKit/537.36 (KHTML, like Gecko) Chrome/88.0.4324.150 Safari/537.36","v1","","","","","","","","-80,-70,-60,-50,-40","media/audio/stims/spherical_300cm_s20_c20_cd-full_matched_a-70.wav","spherical","20","20","full","matched","-70","-60","1617"
"echo-presentation","59","344319","0.0-59.0","5ff2473e351a26264ff42e0e","5fef55e628823a0076ec12ee","601f4b0fc0e6634ab7a8d5f4","Mozilla/5.0 (Windows NT 10.0; Win64; x64) AppleWebKit/537.36 (KHTML, like Gecko) Chrome/88.0.4324.150 Safari/537.36","v1","","","","","","","","-80,-70,-60,-50,-40","media/audio/stims/spherical_300cm_s20_c20_cd-full_matched_a-40.wav","spherical","20","20","full","matched","-40","-50","2222"
"echo-presentation","60","348454","0.0-60.0","5ff2473e351a26264ff42e0e","5fef55e628823a0076ec12ee","601f4b0fc0e6634ab7a8d5f4","Mozilla/5.0 (Windows NT 10.0; Win64; x64) AppleWebKit/537.36 (KHTML, like Gecko) Chrome/88.0.4324.150 Safari/537.36","v1","","","","","","","","-80,-70,-60,-50,-40","media/audio/stims/spherical_300cm_s20_c20_cd-full_matched_a-50.wav","spherical","20","20","full","matched","-50","-60","2746"
"echo-presentation","61","351247","0.0-61.0","5ff2473e351a26264ff42e0e","5fef55e628823a0076ec12ee","601f4b0fc0e6634ab7a8d5f4","Mozilla/5.0 (Windows NT 10.0; Win64; x64) AppleWebKit/537.36 (KHTML, like Gecko) Chrome/88.0.4324.150 Safari/537.36","v1","","","","","","","","-80,-70,-60,-50,-40","media/audio/stims/spherical_300cm_s20_c20_cd-full_matched_a-80.wav","spherical","20","20","full","matched","-80","-80","1917"
"echo-presentation","62","353752","0.0-62.0","5ff2473e351a26264ff42e0e","5fef55e628823a0076ec12ee","601f4b0fc0e6634ab7a8d5f4","Mozilla/5.0 (Windows NT 10.0; Win64; x64) AppleWebKit/537.36 (KHTML, like Gecko) Chrome/88.0.4324.150 Safari/537.36","v1","","","","","","","","-80,-70,-60,-50,-40","media/audio/stims/spherical_300cm_s20_c20_cd-full_matched_a-60.wav","spherical","20","20","full","matched","-60","-70","1671"
"echo-presentation","63","356975","0.0-63.0","5ff2473e351a26264ff42e0e","5fef55e628823a0076ec12ee","601f4b0fc0e6634ab7a8d5f4","Mozilla/5.0 (Windows NT 10.0; Win64; x64) AppleWebKit/537.36 (KHTML, like Gecko) Chrome/88.0.4324.150 Safari/537.36","v1","","","","","","","","-80,-70,-60,-50,-40","media/audio/stims/spherical_300cm_s20_c20_cd-full_matched_a-70.wav","spherical","20","20","full","matched","-70","-70","1835"
"echo-presentation","64","361723","0.0-64.0","5ff2473e351a26264ff42e0e","5fef55e628823a0076ec12ee","601f4b0fc0e6634ab7a8d5f4","Mozilla/5.0 (Windows NT 10.0; Win64; x64) AppleWebKit/537.36 (KHTML, like Gecko) Chrome/88.0.4324.150 Safari/537.36","v1","","","","","","","","-80,-70,-60,-50,-40","media/audio/stims/spherical_300cm_s20_c20_cd-full_matched_a-80.wav","spherical","20","20","full","matched","-80","-70","3328"
"echo-presentation","65","364690","0.0-65.0","5ff2473e351a26264ff42e0e","5fef55e628823a0076ec12ee","601f4b0fc0e6634ab7a8d5f4","Mozilla/5.0 (Windows NT 10.0; Win64; x64) AppleWebKit/537.36 (KHTML, like Gecko) Chrome/88.0.4324.150 Safari/537.36","v1","","","","","","","","-80,-70,-60,-50,-40","media/audio/stims/spherical_300cm_s20_c20_cd-full_matched_a-70.wav","spherical","20","20","full","matched","-70","-60","2146"
"echo-presentation","66","366956","0.0-66.0","5ff2473e351a26264ff42e0e","5fef55e628823a0076ec12ee","601f4b0fc0e6634ab7a8d5f4","Mozilla/5.0 (Windows NT 10.0; Win64; x64) AppleWebKit/537.36 (KHTML, like Gecko) Chrome/88.0.4324.150 Safari/537.36","v1","","","","","","","","-80,-70,-60,-50,-40","media/audio/stims/spherical_300cm_s20_c20_cd-full_matched_a-40.wav","spherical","20","20","full","matched","-40","-60","1691"
"echo-presentation","67","369531","0.0-67.0","5ff2473e351a26264ff42e0e","5fef55e628823a0076ec12ee","601f4b0fc0e6634ab7a8d5f4","Mozilla/5.0 (Windows NT 10.0; Win64; x64) AppleWebKit/537.36 (KHTML, like Gecko) Chrome/88.0.4324.150 Safari/537.36","v1","","","","","","","","-80,-70,-60,-50,-40","media/audio/stims/spherical_300cm_s20_c20_cd-full_matched_a-60.wav","spherical","20","20","full","matched","-60","-50","1679"
"echo-presentation","68","372974","0.0-68.0","5ff2473e351a26264ff42e0e","5fef55e628823a0076ec12ee","601f4b0fc0e6634ab7a8d5f4","Mozilla/5.0 (Windows NT 10.0; Win64; x64) AppleWebKit/537.36 (KHTML, like Gecko) Chrome/88.0.4324.150 Safari/537.36","v1","","","","","","","","-80,-70,-60,-50,-40","media/audio/stims/spherical_300cm_s20_c20_cd-full_matched_a-60.wav","spherical","20","20","full","matched","-60","-60","2143"
"echo-presentation","69","375407","0.0-69.0","5ff2473e351a26264ff42e0e","5fef55e628823a0076ec12ee","601f4b0fc0e6634ab7a8d5f4","Mozilla/5.0 (Windows NT 10.0; Win64; x64) AppleWebKit/537.36 (KHTML, like Gecko) Chrome/88.0.4324.150 Safari/537.36","v1","","","","","","","","-80,-70,-60,-50,-40","media/audio/stims/spherical_300cm_s20_c20_cd-full_matched_a-40.wav","spherical","20","20","full","matched","-40","-60","1549"
"echo-presentation","70","377779","0.0-70.0","5ff2473e351a26264ff42e0e","5fef55e628823a0076ec12ee","601f4b0fc0e6634ab7a8d5f4","Mozilla/5.0 (Windows NT 10.0; Win64; x64) AppleWebKit/537.36 (KHTML, like Gecko) Chrome/88.0.4324.150 Safari/537.36","v1","","","","","","","","-80,-70,-60,-50,-40","media/audio/stims/spherical_300cm_s20_c20_cd-full_matched_a-50.wav","spherical","20","20","full","matched","-50","-50","1576"
"echo-presentation","71","380491","0.0-71.0","5ff2473e351a26264ff42e0e","5fef55e628823a0076ec12ee","601f4b0fc0e6634ab7a8d5f4","Mozilla/5.0 (Windows NT 10.0; Win64; x64) AppleWebKit/537.36 (KHTML, like Gecko) Chrome/88.0.4324.150 Safari/537.36","v1","","","","","","","","-80,-70,-60,-50,-40","media/audio/stims/spherical_300cm_s20_c20_cd-full_matched_a-80.wav","spherical","20","20","full","matched","-80","-60","1810"
"block-bookend","72","385132","0.0-72.0","5ff2473e351a26264ff42e0e","5fef55e628823a0076ec12ee","601f4b0fc0e6634ab7a8d5f4","Mozilla/5.0 (Windows NT 10.0; Win64; x64) AppleWebKit/537.36 (KHTML, like Gecko) Chrome/88.0.4324.150 Safari/537.36","v1","","","","","","","","","","","","","","","","",""
"block-bookend","73","391950","0.0-73.0","5ff2473e351a26264ff42e0e","5fef55e628823a0076ec12ee","601f4b0fc0e6634ab7a8d5f4","Mozilla/5.0 (Windows NT 10.0; Win64; x64) AppleWebKit/537.36 (KHTML, like Gecko) Chrome/88.0.4324.150 Safari/537.36","v1","","","","","","","","","","","","","","","","",""
"echo-presentation","74","395329","0.0-74.0","5ff2473e351a26264ff42e0e","5fef55e628823a0076ec12ee","601f4b0fc0e6634ab7a8d5f4","Mozilla/5.0 (Windows NT 10.0; Win64; x64) AppleWebKit/537.36 (KHTML, like Gecko) Chrome/88.0.4324.150 Safari/537.36","v1","","","","","","","","-80,-70,-60,-50,-40","media/audio/stims/spherical_300cm_s20_c20_cd-full_matched_a-40.wav","spherical","20","20","full","matched","-40","-50","1560"
"echo-presentation","75","397948","0.0-75.0","5ff2473e351a26264ff42e0e","5fef55e628823a0076ec12ee","601f4b0fc0e6634ab7a8d5f4","Mozilla/5.0 (Windows NT 10.0; Win64; x64) AppleWebKit/537.36 (KHTML, like Gecko) Chrome/88.0.4324.150 Safari/537.36","v1","","","","","","","","-80,-70,-60,-50,-40","media/audio/stims/spherical_300cm_s20_c20_cd-full_matched_a-80.wav","spherical","20","20","full","matched","-80","-60","1534"
"echo-presentation","76","400332","0.0-76.0","5ff2473e351a26264ff42e0e","5fef55e628823a0076ec12ee","601f4b0fc0e6634ab7a8d5f4","Mozilla/5.0 (Windows NT 10.0; Win64; x64) AppleWebKit/537.36 (KHTML, like Gecko) Chrome/88.0.4324.150 Safari/537.36","v1","","","","","","","","-80,-70,-60,-50,-40","media/audio/stims/spherical_300cm_s20_c20_cd-full_matched_a-80.wav","spherical","20","20","full","matched","-80","-70","1584"
"echo-presentation","77","402596","0.0-77.0","5ff2473e351a26264ff42e0e","5fef55e628823a0076ec12ee","601f4b0fc0e6634ab7a8d5f4","Mozilla/5.0 (Windows NT 10.0; Win64; x64) AppleWebKit/537.36 (KHTML, like Gecko) Chrome/88.0.4324.150 Safari/537.36","v1","","","","","","","","-80,-70,-60,-50,-40","media/audio/stims/spherical_300cm_s20_c20_cd-full_matched_a-80.wav","spherical","20","20","full","matched","-80","-70","1376"
"echo-presentation","78","405334","0.0-78.0","5ff2473e351a26264ff42e0e","5fef55e628823a0076ec12ee","601f4b0fc0e6634ab7a8d5f4","Mozilla/5.0 (Windows NT 10.0; Win64; x64) AppleWebKit/537.36 (KHTML, like Gecko) Chrome/88.0.4324.150 Safari/537.36","v1","","","","","","","","-80,-70,-60,-50,-40","media/audio/stims/spherical_300cm_s20_c20_cd-full_matched_a-40.wav","spherical","20","20","full","matched","-40","-60","2003"
"echo-presentation","79","407681","0.0-79.0","5ff2473e351a26264ff42e0e","5fef55e628823a0076ec12ee","601f4b0fc0e6634ab7a8d5f4","Mozilla/5.0 (Windows NT 10.0; Win64; x64) AppleWebKit/537.36 (KHTML, like Gecko) Chrome/88.0.4324.150 Safari/537.36","v1","","","","","","","","-80,-70,-60,-50,-40","media/audio/stims/spherical_300cm_s20_c20_cd-full_matched_a-40.wav","spherical","20","20","full","matched","-40","-50","1464"
"echo-presentation","80","409924","0.0-80.0","5ff2473e351a26264ff42e0e","5fef55e628823a0076ec12ee","601f4b0fc0e6634ab7a8d5f4","Mozilla/5.0 (Windows NT 10.0; Win64; x64) AppleWebKit/537.36 (KHTML, like Gecko) Chrome/88.0.4324.150 Safari/537.36","v1","","","","","","","","-80,-70,-60,-50,-40","media/audio/stims/spherical_300cm_s20_c20_cd-full_matched_a-50.wav","spherical","20","20","full","matched","-50","-50","1432"
"echo-presentation","81","412115","0.0-81.0","5ff2473e351a26264ff42e0e","5fef55e628823a0076ec12ee","601f4b0fc0e6634ab7a8d5f4","Mozilla/5.0 (Windows NT 10.0; Win64; x64) AppleWebKit/537.36 (KHTML, like Gecko) Chrome/88.0.4324.150 Safari/537.36","v1","","","","","","","","-80,-70,-60,-50,-40","media/audio/stims/spherical_300cm_s20_c20_cd-full_matched_a-70.wav","spherical","20","20","full","matched","-70","-60","1518"
"echo-presentation","82","414482","0.0-82.0","5ff2473e351a26264ff42e0e","5fef55e628823a0076ec12ee","601f4b0fc0e6634ab7a8d5f4","Mozilla/5.0 (Windows NT 10.0; Win64; x64) AppleWebKit/537.36 (KHTML, like Gecko) Chrome/88.0.4324.150 Safari/537.36","v1","","","","","","","","-80,-70,-60,-50,-40","media/audio/stims/spherical_300cm_s20_c20_cd-full_matched_a-70.wav","spherical","20","20","full","matched","-70","-60","1793"
"echo-presentation","83","417307","0.0-83.0","5ff2473e351a26264ff42e0e","5fef55e628823a0076ec12ee","601f4b0fc0e6634ab7a8d5f4","Mozilla/5.0 (Windows NT 10.0; Win64; x64) AppleWebKit/537.36 (KHTML, like Gecko) Chrome/88.0.4324.150 Safari/537.36","v1","","","","","","","","-80,-70,-60,-50,-40","media/audio/stims/spherical_300cm_s20_c20_cd-full_matched_a-70.wav","spherical","20","20","full","matched","-70","-70","2065"
"echo-presentation","84","419502","0.0-84.0","5ff2473e351a26264ff42e0e","5fef55e628823a0076ec12ee","601f4b0fc0e6634ab7a8d5f4","Mozilla/5.0 (Windows NT 10.0; Win64; x64) AppleWebKit/537.36 (KHTML, like Gecko) Chrome/88.0.4324.150 Safari/537.36","v1","","","","","","","","-80,-70,-60,-50,-40","media/audio/stims/spherical_300cm_s20_c20_cd-full_matched_a-50.wav","spherical","20","20","full","matched","-50","-60","1394"
"echo-presentation","85","421695","0.0-85.0","5ff2473e351a26264ff42e0e","5fef55e628823a0076ec12ee","601f4b0fc0e6634ab7a8d5f4","Mozilla/5.0 (Windows NT 10.0; Win64; x64) AppleWebKit/537.36 (KHTML, like Gecko) Chrome/88.0.4324.150 Safari/537.36","v1","","","","","","","","-80,-70,-60,-50,-40","media/audio/stims/spherical_300cm_s20_c20_cd-full_matched_a-70.wav","spherical","20","20","full","matched","-70","-70","1404"
"echo-presentation","86","424901","0.0-86.0","5ff2473e351a26264ff42e0e","5fef55e628823a0076ec12ee","601f4b0fc0e6634ab7a8d5f4","Mozilla/5.0 (Windows NT 10.0; Win64; x64) AppleWebKit/537.36 (KHTML, like Gecko) Chrome/88.0.4324.150 Safari/537.36","v1","","","","","","","","-80,-70,-60,-50,-40","media/audio/stims/spherical_300cm_s20_c20_cd-full_matched_a-60.wav","spherical","20","20","full","matched","-60","-80","2250"
"echo-presentation","87","427344","0.0-87.0","5ff2473e351a26264ff42e0e","5fef55e628823a0076ec12ee","601f4b0fc0e6634ab7a8d5f4","Mozilla/5.0 (Windows NT 10.0; Win64; x64) AppleWebKit/537.36 (KHTML, like Gecko) Chrome/88.0.4324.150 Safari/537.36","v1","","","","","","","","-80,-70,-60,-50,-40","media/audio/stims/spherical_300cm_s20_c20_cd-full_matched_a-50.wav","spherical","20","20","full","matched","-50","-60","1689"
"echo-presentation","88","429861","0.0-88.0","5ff2473e351a26264ff42e0e","5fef55e628823a0076ec12ee","601f4b0fc0e6634ab7a8d5f4","Mozilla/5.0 (Windows NT 10.0; Win64; x64) AppleWebKit/537.36 (KHTML, like Gecko) Chrome/88.0.4324.150 Safari/537.36","v1","","","","","","","","-80,-70,-60,-50,-40","media/audio/stims/spherical_300cm_s20_c20_cd-full_matched_a-60.wav","spherical","20","20","full","matched","-60","-60","1761"
"echo-presentation","89","432756","0.0-89.0","5ff2473e351a26264ff42e0e","5fef55e628823a0076ec12ee","601f4b0fc0e6634ab7a8d5f4","Mozilla/5.0 (Windows NT 10.0; Win64; x64) AppleWebKit/537.36 (KHTML, like Gecko) Chrome/88.0.4324.150 Safari/537.36","v1","","","","","","","","-80,-70,-60,-50,-40","media/audio/stims/spherical_300cm_s20_c20_cd-full_matched_a-80.wav","spherical","20","20","full","matched","-80","-70","1676"
"echo-presentation","90","435169","0.0-90.0","5ff2473e351a26264ff42e0e","5fef55e628823a0076ec12ee","601f4b0fc0e6634ab7a8d5f4","Mozilla/5.0 (Windows NT 10.0; Win64; x64) AppleWebKit/537.36 (KHTML, like Gecko) Chrome/88.0.4324.150 Safari/537.36","v1","","","","","","","","-80,-70,-60,-50,-40","media/audio/stims/spherical_300cm_s20_c20_cd-full_matched_a-50.wav","spherical","20","20","full","matched","-50","-60","1586"
"echo-presentation","91","437968","0.0-91.0","5ff2473e351a26264ff42e0e","5fef55e628823a0076ec12ee","601f4b0fc0e6634ab7a8d5f4","Mozilla/5.0 (Windows NT 10.0; Win64; x64) AppleWebKit/537.36 (KHTML, like Gecko) Chrome/88.0.4324.150 Safari/537.36","v1","","","","","","","","-80,-70,-60,-50,-40","media/audio/stims/spherical_300cm_s20_c20_cd-full_matched_a-60.wav","spherical","20","20","full","matched","-60","-60","1382"
"echo-presentation","92","440293","0.0-92.0","5ff2473e351a26264ff42e0e","5fef55e628823a0076ec12ee","601f4b0fc0e6634ab7a8d5f4","Mozilla/5.0 (Windows NT 10.0; Win64; x64) AppleWebKit/537.36 (KHTML, like Gecko) Chrome/88.0.4324.150 Safari/537.36","v1","","","","","","","","-80,-70,-60,-50,-40","media/audio/stims/spherical_300cm_s20_c20_cd-full_matched_a-40.wav","spherical","20","20","full","matched","-40","-60","1305"
"echo-presentation","93","442436","0.0-93.0","5ff2473e351a26264ff42e0e","5fef55e628823a0076ec12ee","601f4b0fc0e6634ab7a8d5f4","Mozilla/5.0 (Windows NT 10.0; Win64; x64) AppleWebKit/537.36 (KHTML, like Gecko) Chrome/88.0.4324.150 Safari/537.36","v1","","","","","","","","-80,-70,-60,-50,-40","media/audio/stims/spherical_300cm_s20_c20_cd-full_matched_a-60.wav","spherical","20","20","full","matched","-60","-50","1337"
"block-bookend","94","444215","0.0-94.0","5ff2473e351a26264ff42e0e","5fef55e628823a0076ec12ee","601f4b0fc0e6634ab7a8d5f4","Mozilla/5.0 (Windows NT 10.0; Win64; x64) AppleWebKit/537.36 (KHTML, like Gecko) Chrome/88.0.4324.150 Safari/537.36","v1","","","","","","","","","","","","","","","","",""
"block-bookend","95","451920","0.0-95.0","5ff2473e351a26264ff42e0e","5fef55e628823a0076ec12ee","601f4b0fc0e6634ab7a8d5f4","Mozilla/5.0 (Windows NT 10.0; Win64; x64) AppleWebKit/537.36 (KHTML, like Gecko) Chrome/88.0.4324.150 Safari/537.36","v1","","","","","","","","","","","","","","","","",""
"echo-presentation","96","456518","0.0-96.0","5ff2473e351a26264ff42e0e","5fef55e628823a0076ec12ee","601f4b0fc0e6634ab7a8d5f4","Mozilla/5.0 (Windows NT 10.0; Win64; x64) AppleWebKit/537.36 (KHTML, like Gecko) Chrome/88.0.4324.150 Safari/537.36","v1","","","","","","","","-20,-10,0,10,20","media/audio/stims/spherical_300cm_s20_c20_cd-full_matched_a10.wav","spherical","20","20","full","matched","10","10","1909"
"echo-presentation","97","459486","0.0-97.0","5ff2473e351a26264ff42e0e","5fef55e628823a0076ec12ee","601f4b0fc0e6634ab7a8d5f4","Mozilla/5.0 (Windows NT 10.0; Win64; x64) AppleWebKit/537.36 (KHTML, like Gecko) Chrome/88.0.4324.150 Safari/537.36","v1","","","","","","","","-20,-10,0,10,20","media/audio/stims/spherical_300cm_s20_c20_cd-full_matched_a20.wav","spherical","20","20","full","matched","20","20","1891"
"echo-presentation","98","462258","0.0-98.0","5ff2473e351a26264ff42e0e","5fef55e628823a0076ec12ee","601f4b0fc0e6634ab7a8d5f4","Mozilla/5.0 (Windows NT 10.0; Win64; x64) AppleWebKit/537.36 (KHTML, like Gecko) Chrome/88.0.4324.150 Safari/537.36","v1","","","","","","","","-20,-10,0,10,20","media/audio/stims/spherical_300cm_s20_c20_cd-full_matched_a10.wav","spherical","20","20","full","matched","10","10","1911"
"echo-presentation","99","465803","0.0-99.0","5ff2473e351a26264ff42e0e","5fef55e628823a0076ec12ee","601f4b0fc0e6634ab7a8d5f4","Mozilla/5.0 (Windows NT 10.0; Win64; x64) AppleWebKit/537.36 (KHTML, like Gecko) Chrome/88.0.4324.150 Safari/537.36","v1","","","","","","","","-20,-10,0,10,20","media/audio/stims/spherical_300cm_s20_c20_cd-full_matched_a-10.wav","spherical","20","20","full","matched","-10","0","1818"
"echo-presentation","100","468603","0.0-100.0","5ff2473e351a26264ff42e0e","5fef55e628823a0076ec12ee","601f4b0fc0e6634ab7a8d5f4","Mozilla/5.0 (Windows NT 10.0; Win64; x64) AppleWebKit/537.36 (KHTML, like Gecko) Chrome/88.0.4324.150 Safari/537.36","v1","","","","","","","","-20,-10,0,10,20","media/audio/stims/spherical_300cm_s20_c20_cd-full_matched_a20.wav","spherical","20","20","full","matched","20","10","1537"
"echo-presentation","101","471388","0.0-101.0","5ff2473e351a26264ff42e0e","5fef55e628823a0076ec12ee","601f4b0fc0e6634ab7a8d5f4","Mozilla/5.0 (Windows NT 10.0; Win64; x64) AppleWebKit/537.36 (KHTML, like Gecko) Chrome/88.0.4324.150 Safari/537.36","v1","","","","","","","","-20,-10,0,10,20","media/audio/stims/spherical_300cm_s20_c20_cd-full_matched_a-20.wav","spherical","20","20","full","matched","-20","-10","1543"
"echo-presentation","102","474108","0.0-102.0","5ff2473e351a26264ff42e0e","5fef55e628823a0076ec12ee","601f4b0fc0e6634ab7a8d5f4","Mozilla/5.0 (Windows NT 10.0; Win64; x64) AppleWebKit/537.36 (KHTML, like Gecko) Chrome/88.0.4324.150 Safari/537.36","v1","","","","","","","","-20,-10,0,10,20","media/audio/stims/spherical_300cm_s20_c20_cd-full_matched_a10.wav","spherical","20","20","full","matched","10","0","1747"
"echo-presentation","103","477108","0.0-103.0","5ff2473e351a26264ff42e0e","5fef55e628823a0076ec12ee","601f4b0fc0e6634ab7a8d5f4","Mozilla/5.0 (Windows NT 10.0; Win64; x64) AppleWebKit/537.36 (KHTML, like Gecko) Chrome/88.0.4324.150 Safari/537.36","v1","","","","","","","","-20,-10,0,10,20","media/audio/stims/spherical_300cm_s20_c20_cd-full_matched_a20.wav","spherical","20","20","full","matched","20","10","1920"
"echo-presentation","104","480913","0.0-104.0","5ff2473e351a26264ff42e0e","5fef55e628823a0076ec12ee","601f4b0fc0e6634ab7a8d5f4","Mozilla/5.0 (Windows NT 10.0; Win64; x64) AppleWebKit/537.36 (KHTML, like Gecko) Chrome/88.0.4324.150 Safari/537.36","v1","","","","","","","","-20,-10,0,10,20","media/audio/stims/spherical_300cm_s20_c20_cd-full_matched_a-10.wav","spherical","20","20","full","matched","-10","-10","1836"
"echo-presentation","105","484636","0.0-105.0","5ff2473e351a26264ff42e0e","5fef55e628823a0076ec12ee","601f4b0fc0e6634ab7a8d5f4","Mozilla/5.0 (Windows NT 10.0; Win64; x64) AppleWebKit/537.36 (KHTML, like Gecko) Chrome/88.0.4324.150 Safari/537.36","v1","","","","","","","","-20,-10,0,10,20","media/audio/stims/spherical_300cm_s20_c20_cd-full_matched_a-20.wav","spherical","20","20","full","matched","-20","-20","1285"
"echo-presentation","106","487394","0.0-106.0","5ff2473e351a26264ff42e0e","5fef55e628823a0076ec12ee","601f4b0fc0e6634ab7a8d5f4","Mozilla/5.0 (Windows NT 10.0; Win64; x64) AppleWebKit/537.36 (KHTML, like Gecko) Chrome/88.0.4324.150 Safari/537.36","v1","","","","","","","","-20,-10,0,10,20","media/audio/stims/spherical_300cm_s20_c20_cd-full_matched_a0.wav","spherical","20","20","full","matched","0","-10","1656"
"echo-presentation","107","490103","0.0-107.0","5ff2473e351a26264ff42e0e","5fef55e628823a0076ec12ee","601f4b0fc0e6634ab7a8d5f4","Mozilla/5.0 (Windows NT 10.0; Win64; x64) AppleWebKit/537.36 (KHTML, like Gecko) Chrome/88.0.4324.150 Safari/537.36","v1","","","","","","","","-20,-10,0,10,20","media/audio/stims/spherical_300cm_s20_c20_cd-full_matched_a0.wav","spherical","20","20","full","matched","0","0","1574"
"echo-presentation","108","492781","0.0-108.0","5ff2473e351a26264ff42e0e","5fef55e628823a0076ec12ee","601f4b0fc0e6634ab7a8d5f4","Mozilla/5.0 (Windows NT 10.0; Win64; x64) AppleWebKit/537.36 (KHTML, like Gecko) Chrome/88.0.4324.150 Safari/537.36","v1","","","","","","","","-20,-10,0,10,20","media/audio/stims/spherical_300cm_s20_c20_cd-full_matched_a0.wav","spherical","20","20","full","matched","0","0","1533"
"echo-presentation","109","495592","0.0-109.0","5ff2473e351a26264ff42e0e","5fef55e628823a0076ec12ee","601f4b0fc0e6634ab7a8d5f4","Mozilla/5.0 (Windows NT 10.0; Win64; x64) AppleWebKit/537.36 (KHTML, like Gecko) Chrome/88.0.4324.150 Safari/537.36","v1","","","","","","","","-20,-10,0,10,20","media/audio/stims/spherical_300cm_s20_c20_cd-full_matched_a-20.wav","spherical","20","20","full","matched","-20","-10","1621"
"echo-presentation","110","498237","0.0-110.0","5ff2473e351a26264ff42e0e","5fef55e628823a0076ec12ee","601f4b0fc0e6634ab7a8d5f4","Mozilla/5.0 (Windows NT 10.0; Win64; x64) AppleWebKit/537.36 (KHTML, like Gecko) Chrome/88.0.4324.150 Safari/537.36","v1","","","","","","","","-20,-10,0,10,20","media/audio/stims/spherical_300cm_s20_c20_cd-full_matched_a-10.wav","spherical","20","20","full","matched","-10","-10","1359"
"echo-presentation","111","501212","0.0-111.0","5ff2473e351a26264ff42e0e","5fef55e628823a0076ec12ee","601f4b0fc0e6634ab7a8d5f4","Mozilla/5.0 (Windows NT 10.0; Win64; x64) AppleWebKit/537.36 (KHTML, like Gecko) Chrome/88.0.4324.150 Safari/537.36","v1","","","","","","","","-20,-10,0,10,20","media/audio/stims/spherical_300cm_s20_c20_cd-full_matched_a20.wav","spherical","20","20","full","matched","20","10","1749"
"echo-presentation","112","503969","0.0-112.0","5ff2473e351a26264ff42e0e","5fef55e628823a0076ec12ee","601f4b0fc0e6634ab7a8d5f4","Mozilla/5.0 (Windows NT 10.0; Win64; x64) AppleWebKit/537.36 (KHTML, like Gecko) Chrome/88.0.4324.150 Safari/537.36","v1","","","","","","","","-20,-10,0,10,20","media/audio/stims/spherical_300cm_s20_c20_cd-full_matched_a-20.wav","spherical","20","20","full","matched","-20","-20","1515"
"echo-presentation","113","506474","0.0-113.0","5ff2473e351a26264ff42e0e","5fef55e628823a0076ec12ee","601f4b0fc0e6634ab7a8d5f4","Mozilla/5.0 (Windows NT 10.0; Win64; x64) AppleWebKit/537.36 (KHTML, like Gecko) Chrome/88.0.4324.150 Safari/537.36","v1","","","","","","","","-20,-10,0,10,20","media/audio/stims/spherical_300cm_s20_c20_cd-full_matched_a-10.wav","spherical","20","20","full","matched","-10","-10","1420"
"echo-presentation","114","509974","0.0-114.0","5ff2473e351a26264ff42e0e","5fef55e628823a0076ec12ee","601f4b0fc0e6634ab7a8d5f4","Mozilla/5.0 (Windows NT 10.0; Win64; x64) AppleWebKit/537.36 (KHTML, like Gecko) Chrome/88.0.4324.150 Safari/537.36","v1","","","","","","","","-20,-10,0,10,20","media/audio/stims/spherical_300cm_s20_c20_cd-full_matched_a10.wav","spherical","20","20","full","matched","10","0","2371"
"echo-presentation","115","512443","0.0-115.0","5ff2473e351a26264ff42e0e","5fef55e628823a0076ec12ee","601f4b0fc0e6634ab7a8d5f4","Mozilla/5.0 (Windows NT 10.0; Win64; x64) AppleWebKit/537.36 (KHTML, like Gecko) Chrome/88.0.4324.150 Safari/537.36","v1","","","","","","","","-20,-10,0,10,20","media/audio/stims/spherical_300cm_s20_c20_cd-full_matched_a0.wav","spherical","20","20","full","matched","0","0","1518"
"block-bookend","116","514165","0.0-116.0","5ff2473e351a26264ff42e0e","5fef55e628823a0076ec12ee","601f4b0fc0e6634ab7a8d5f4","Mozilla/5.0 (Windows NT 10.0; Win64; x64) AppleWebKit/537.36 (KHTML, like Gecko) Chrome/88.0.4324.150 Safari/537.36","v1","","","","","","","","","","","","","","","","",""
"block-bookend","117","519667","0.0-117.0","5ff2473e351a26264ff42e0e","5fef55e628823a0076ec12ee","601f4b0fc0e6634ab7a8d5f4","Mozilla/5.0 (Windows NT 10.0; Win64; x64) AppleWebKit/537.36 (KHTML, like Gecko) Chrome/88.0.4324.150 Safari/537.36","v1","","","","","","","","","","","","","","","","",""
"echo-presentation","118","522998","0.0-118.0","5ff2473e351a26264ff42e0e","5fef55e628823a0076ec12ee","601f4b0fc0e6634ab7a8d5f4","Mozilla/5.0 (Windows NT 10.0; Win64; x64) AppleWebKit/537.36 (KHTML, like Gecko) Chrome/88.0.4324.150 Safari/537.36","v1","","","","","","","","-20,-10,0,10,20","media/audio/stims/spherical_300cm_s20_c20_cd-full_matched_a10.wav","spherical","20","20","full","matched","10","0","1528"
"echo-presentation","119","525951","0.0-119.0","5ff2473e351a26264ff42e0e","5fef55e628823a0076ec12ee","601f4b0fc0e6634ab7a8d5f4","Mozilla/5.0 (Windows NT 10.0; Win64; x64) AppleWebKit/537.36 (KHTML, like Gecko) Chrome/88.0.4324.150 Safari/537.36","v1","","","","","","","","-20,-10,0,10,20","media/audio/stims/spherical_300cm_s20_c20_cd-full_matched_a-20.wav","spherical","20","20","full","matched","-20","-10","1774"
"echo-presentation","120","528435","0.0-120.0","5ff2473e351a26264ff42e0e","5fef55e628823a0076ec12ee","601f4b0fc0e6634ab7a8d5f4","Mozilla/5.0 (Windows NT 10.0; Win64; x64) AppleWebKit/537.36 (KHTML, like Gecko) Chrome/88.0.4324.150 Safari/537.36","v1","","","","","","","","-20,-10,0,10,20","media/audio/stims/spherical_300cm_s20_c20_cd-full_matched_a-10.wav","spherical","20","20","full","matched","-10","0","1385"
"echo-presentation","121","531078","0.0-121.0","5ff2473e351a26264ff42e0e","5fef55e628823a0076ec12ee","601f4b0fc0e6634ab7a8d5f4","Mozilla/5.0 (Windows NT 10.0; Win64; x64) AppleWebKit/537.36 (KHTML, like Gecko) Chrome/88.0.4324.150 Safari/537.36","v1","","","","","","","","-20,-10,0,10,20","media/audio/stims/spherical_300cm_s20_c20_cd-full_matched_a0.wav","spherical","20","20","full","matched","0","0","1549"
"echo-presentation","122","533840","0.0-122.0","5ff2473e351a26264ff42e0e","5fef55e628823a0076ec12ee","601f4b0fc0e6634ab7a8d5f4","Mozilla/5.0 (Windows NT 10.0; Win64; x64) AppleWebKit/537.36 (KHTML, like Gecko) Chrome/88.0.4324.150 Safari/537.36","v1","","","","","","","","-20,-10,0,10,20","media/audio/stims/spherical_300cm_s20_c20_cd-full_matched_a20.wav","spherical","20","20","full","matched","20","10","1644"
"echo-presentation","123","537421","0.0-123.0","5ff2473e351a26264ff42e0e","5fef55e628823a0076ec12ee","601f4b0fc0e6634ab7a8d5f4","Mozilla/5.0 (Windows NT 10.0; Win64; x64) AppleWebKit/537.36 (KHTML, like Gecko) Chrome/88.0.4324.150 Safari/537.36","v1","","","","","","","","-20,-10,0,10,20","media/audio/stims/spherical_300cm_s20_c20_cd-full_matched_a0.wav","spherical","20","20","full","matched","0","-10","2739"
"echo-presentation","124","539693","0.0-124.0","5ff2473e351a26264ff42e0e","5fef55e628823a0076ec12ee","601f4b0fc0e6634ab7a8d5f4","Mozilla/5.0 (Windows NT 10.0; Win64; x64) AppleWebKit/537.36 (KHTML, like Gecko) Chrome/88.0.4324.150 Safari/537.36","v1","","","","","","","","-20,-10,0,10,20","media/audio/stims/spherical_300cm_s20_c20_cd-full_matched_a-20.wav","spherical","20","20","full","matched","-20","-20","1273"
"echo-presentation","125","542214","0.0-125.0","5ff2473e351a26264ff42e0e","5fef55e628823a0076ec12ee","601f4b0fc0e6634ab7a8d5f4","Mozilla/5.0 (Windows NT 10.0; Win64; x64) AppleWebKit/537.36 (KHTML, like Gecko) Chrome/88.0.4324.150 Safari/537.36","v1","","","","","","","","-20,-10,0,10,20","media/audio/stims/spherical_300cm_s20_c20_cd-full_matched_a20.wav","spherical","20","20","full","matched","20","0","1595"
"echo-presentation","126","544756","0.0-126.0","5ff2473e351a26264ff42e0e","5fef55e628823a0076ec12ee","601f4b0fc0e6634ab7a8d5f4","Mozilla/5.0 (Windows NT 10.0; Win64; x64) AppleWebKit/537.36 (KHTML, like Gecko) Chrome/88.0.4324.150 Safari/537.36","v1","","","","","","","","-20,-10,0,10,20","media/audio/stims/spherical_300cm_s20_c20_cd-full_matched_a20.wav","spherical","20","20","full","matched","20","10","1433"
"echo-presentation","127","547732","0.0-127.0","5ff2473e351a26264ff42e0e","5fef55e628823a0076ec12ee","601f4b0fc0e6634ab7a8d5f4","Mozilla/5.0 (Windows NT 10.0; Win64; x64) AppleWebKit/537.36 (KHTML, like Gecko) Chrome/88.0.4324.150 Safari/537.36","v1","","","","","","","","-20,-10,0,10,20","media/audio/stims/spherical_300cm_s20_c20_cd-full_matched_a-10.wav","spherical","20","20","full","matched","-10","0","2053"
"echo-presentation","128","550507","0.0-128.0","5ff2473e351a26264ff42e0e","5fef55e628823a0076ec12ee","601f4b0fc0e6634ab7a8d5f4","Mozilla/5.0 (Windows NT 10.0; Win64; x64) AppleWebKit/537.36 (KHTML, like Gecko) Chrome/88.0.4324.150 Safari/537.36","v1","","","","","","","","-20,-10,0,10,20","media/audio/stims/spherical_300cm_s20_c20_cd-full_matched_a10.wav","spherical","20","20","full","matched","10","20","1661"
"echo-presentation","129","553307","0.0-129.0","5ff2473e351a26264ff42e0e","5fef55e628823a0076ec12ee","601f4b0fc0e6634ab7a8d5f4","Mozilla/5.0 (Windows NT 10.0; Win64; x64) AppleWebKit/537.36 (KHTML, like Gecko) Chrome/88.0.4324.150 Safari/537.36","v1","","","","","","","","-20,-10,0,10,20","media/audio/stims/spherical_300cm_s20_c20_cd-full_matched_a0.wav","spherical","20","20","full","matched","0","0","1716"
"echo-presentation","130","556339","0.0-130.0","5ff2473e351a26264ff42e0e","5fef55e628823a0076ec12ee","601f4b0fc0e6634ab7a8d5f4","Mozilla/5.0 (Windows NT 10.0; Win64; x64) AppleWebKit/537.36 (KHTML, like Gecko) Chrome/88.0.4324.150 Safari/537.36","v1","","","","","","","","-20,-10,0,10,20","media/audio/stims/spherical_300cm_s20_c20_cd-full_matched_a-20.wav","spherical","20","20","full","matched","-20","-10","2153"
"echo-presentation","131","558951","0.0-131.0","5ff2473e351a26264ff42e0e","5fef55e628823a0076ec12ee","601f4b0fc0e6634ab7a8d5f4","Mozilla/5.0 (Windows NT 10.0; Win64; x64) AppleWebKit/537.36 (KHTML, like Gecko) Chrome/88.0.4324.150 Safari/537.36","v1","","","","","","","","-20,-10,0,10,20","media/audio/stims/spherical_300cm_s20_c20_cd-full_matched_a10.wav","spherical","20","20","full","matched","10","0","1598"
"echo-presentation","132","561352","0.0-132.0","5ff2473e351a26264ff42e0e","5fef55e628823a0076ec12ee","601f4b0fc0e6634ab7a8d5f4","Mozilla/5.0 (Windows NT 10.0; Win64; x64) AppleWebKit/537.36 (KHTML, like Gecko) Chrome/88.0.4324.150 Safari/537.36","v1","","","","","","","","-20,-10,0,10,20","media/audio/stims/spherical_300cm_s20_c20_cd-full_matched_a-10.wav","spherical","20","20","full","matched","-10","0","1306"
"echo-presentation","133","564166","0.0-133.0","5ff2473e351a26264ff42e0e","5fef55e628823a0076ec12ee","601f4b0fc0e6634ab7a8d5f4","Mozilla/5.0 (Windows NT 10.0; Win64; x64) AppleWebKit/537.36 (KHTML, like Gecko) Chrome/88.0.4324.150 Safari/537.36","v1","","","","","","","","-20,-10,0,10,20","media/audio/stims/spherical_300cm_s20_c20_cd-full_matched_a20.wav","spherical","20","20","full","matched","20","10","1730"
"echo-presentation","134","566504","0.0-134.0","5ff2473e351a26264ff42e0e","5fef55e628823a0076ec12ee","601f4b0fc0e6634ab7a8d5f4","Mozilla/5.0 (Windows NT 10.0; Win64; x64) AppleWebKit/537.36 (KHTML, like Gecko) Chrome/88.0.4324.150 Safari/537.36","v1","","","","","","","","-20,-10,0,10,20","media/audio/stims/spherical_300cm_s20_c20_cd-full_matched_a-10.wav","spherical","20","20","full","matched","-10","-10","1453"
"echo-presentation","135","569525","0.0-135.0","5ff2473e351a26264ff42e0e","5fef55e628823a0076ec12ee","601f4b0fc0e6634ab7a8d5f4","Mozilla/5.0 (Windows NT 10.0; Win64; x64) AppleWebKit/537.36 (KHTML, like Gecko) Chrome/88.0.4324.150 Safari/537.36","v1","","","","","","","","-20,-10,0,10,20","media/audio/stims/spherical_300cm_s20_c20_cd-full_matched_a-20.wav","spherical","20","20","full","matched","-20","-20","1732"
"echo-presentation","136","571794","0.0-136.0","5ff2473e351a26264ff42e0e","5fef55e628823a0076ec12ee","601f4b0fc0e6634ab7a8d5f4","Mozilla/5.0 (Windows NT 10.0; Win64; x64) AppleWebKit/537.36 (KHTML, like Gecko) Chrome/88.0.4324.150 Safari/537.36","v1","","","","","","","","-20,-10,0,10,20","media/audio/stims/spherical_300cm_s20_c20_cd-full_matched_a0.wav","spherical","20","20","full","matched","0","0","1430"
"echo-presentation","137","574078","0.0-137.0","5ff2473e351a26264ff42e0e","5fef55e628823a0076ec12ee","601f4b0fc0e6634ab7a8d5f4","Mozilla/5.0 (Windows NT 10.0; Win64; x64) AppleWebKit/537.36 (KHTML, like Gecko) Chrome/88.0.4324.150 Safari/537.36","v1","","","","","","","","-20,-10,0,10,20","media/audio/stims/spherical_300cm_s20_c20_cd-full_matched_a10.wav","spherical","20","20","full","matched","10","0","1372"
"block-bookend","138","576550","0.0-138.0","5ff2473e351a26264ff42e0e","5fef55e628823a0076ec12ee","601f4b0fc0e6634ab7a8d5f4","Mozilla/5.0 (Windows NT 10.0; Win64; x64) AppleWebKit/537.36 (KHTML, like Gecko) Chrome/88.0.4324.150 Safari/537.36","v1","","","","","","","","","","","","","","","","",""
