"trial_type","trial_index","time_elapsed","internal_node_id","prolificPid","studyId","sessionId","userAgent","version","rt","stimulus","key_press","chosenKeyset","failureCount","testIndex","globalVolume","choices","filename","modelName","slowdown","compensation","compensationDescriptor","receiverOrientationType","azimuth","responseAzimuth","responseDelay"
"pavlovia","0","7","0.0-0.0","5ebd676b0ee54a0379a10188","5fef55e628823a0076ec12ee","60201d3d39a8965a4b0e2ff6","Mozilla/5.0 (Windows NT 10.0; Win64; x64) AppleWebKit/537.36 (KHTML, like Gecko) Chrome/88.0.4324.146 Safari/537.36","v1-up-stims","","","","","","","","","","","","","","","","",""
"html-keyboard-response","1","66637","0.0-1.0","5ebd676b0ee54a0379a10188","5fef55e628823a0076ec12ee","60201d3d39a8965a4b0e2ff6","Mozilla/5.0 (Windows NT 10.0; Win64; x64) AppleWebKit/537.36 (KHTML, like Gecko) Chrome/88.0.4324.146 Safari/537.36","v1-up-stims","66628.50000000071","<div><h1>Welcome!</h1><p>Press any key to continue.</p></div>","68","","","","","","","","","","","","","",""
"consent-form","2","113923","0.0-2.0","5ebd676b0ee54a0379a10188","5fef55e628823a0076ec12ee","60201d3d39a8965a4b0e2ff6","Mozilla/5.0 (Windows NT 10.0; Win64; x64) AppleWebKit/537.36 (KHTML, like Gecko) Chrome/88.0.4324.146 Safari/537.36","v1-up-stims","","","","","","","","","","","","","","","","",""
"keyset-select","3","132718","0.0-3.0","5ebd676b0ee54a0379a10188","5fef55e628823a0076ec12ee","60201d3d39a8965a4b0e2ff6","Mozilla/5.0 (Windows NT 10.0; Win64; x64) AppleWebKit/537.36 (KHTML, like Gecko) Chrome/88.0.4324.146 Safari/537.36","v1-up-stims","","","","left-hand","","","","","","","","","","","","",""
"headphone-check","4","270050","0.0-4.0","5ebd676b0ee54a0379a10188","5fef55e628823a0076ec12ee","60201d3d39a8965a4b0e2ff6","Mozilla/5.0 (Windows NT 10.0; Win64; x64) AppleWebKit/537.36 (KHTML, like Gecko) Chrome/88.0.4324.146 Safari/537.36","v1-up-stims","","","","","1","6","1","","","","","","","","","",""
"headphone-backwards-check","5","289546","0.0-5.0","5ebd676b0ee54a0379a10188","5fef55e628823a0076ec12ee","60201d3d39a8965a4b0e2ff6","Mozilla/5.0 (Windows NT 10.0; Win64; x64) AppleWebKit/537.36 (KHTML, like Gecko) Chrome/88.0.4324.146 Safari/537.36","v1-up-stims","","","","","0","","","","","","","","","","","",""
"training","6","2473346","0.0-6.0","5ebd676b0ee54a0379a10188","5fef55e628823a0076ec12ee","60201d3d39a8965a4b0e2ff6","Mozilla/5.0 (Windows NT 10.0; Win64; x64) AppleWebKit/537.36 (KHTML, like Gecko) Chrome/88.0.4324.146 Safari/537.36","v1-up-stims","","","","","","","","","","","","","","","","",""
"block-bookend","7","2488261","0.0-7.0","5ebd676b0ee54a0379a10188","5fef55e628823a0076ec12ee","60201d3d39a8965a4b0e2ff6","Mozilla/5.0 (Windows NT 10.0; Win64; x64) AppleWebKit/537.36 (KHTML, like Gecko) Chrome/88.0.4324.146 Safari/537.36","v1-up-stims","","","","","","","","","","","","","","","","",""
"echo-presentation","8","2495790","0.0-8.0","5ebd676b0ee54a0379a10188","5fef55e628823a0076ec12ee","60201d3d39a8965a4b0e2ff6","Mozilla/5.0 (Windows NT 10.0; Win64; x64) AppleWebKit/537.36 (KHTML, like Gecko) Chrome/88.0.4324.146 Safari/537.36","v1-up-stims","","","","","","","","-20,-10,0,10,20","media/audio/stims/spherical_300cm_s20_c20_cd-full_matched_a-20.wav","spherical","20","20","full","matched","-20","-20","5203"
"echo-presentation","9","2506762","0.0-9.0","5ebd676b0ee54a0379a10188","5fef55e628823a0076ec12ee","60201d3d39a8965a4b0e2ff6","Mozilla/5.0 (Windows NT 10.0; Win64; x64) AppleWebKit/537.36 (KHTML, like Gecko) Chrome/88.0.4324.146 Safari/537.36","v1-up-stims","","","","","","","","-20,-10,0,10,20","media/audio/stims/spherical_300cm_s20_c20_cd-full_matched_a10.wav","spherical","20","20","full","matched","10","10","9259"
"echo-presentation","10","2511468","0.0-10.0","5ebd676b0ee54a0379a10188","5fef55e628823a0076ec12ee","60201d3d39a8965a4b0e2ff6","Mozilla/5.0 (Windows NT 10.0; Win64; x64) AppleWebKit/537.36 (KHTML, like Gecko) Chrome/88.0.4324.146 Safari/537.36","v1-up-stims","","","","","","","","-20,-10,0,10,20","media/audio/stims/spherical_300cm_s20_c20_cd-full_matched_a-10.wav","spherical","20","20","full","matched","-10","-20","2485"
"echo-presentation","11","2516580","0.0-11.0","5ebd676b0ee54a0379a10188","5fef55e628823a0076ec12ee","60201d3d39a8965a4b0e2ff6","Mozilla/5.0 (Windows NT 10.0; Win64; x64) AppleWebKit/537.36 (KHTML, like Gecko) Chrome/88.0.4324.146 Safari/537.36","v1-up-stims","","","","","","","","-20,-10,0,10,20","media/audio/stims/spherical_300cm_s20_c20_cd-full_matched_a20.wav","spherical","20","20","full","matched","20","20","2241"
"echo-presentation","12","2521549","0.0-12.0","5ebd676b0ee54a0379a10188","5fef55e628823a0076ec12ee","60201d3d39a8965a4b0e2ff6","Mozilla/5.0 (Windows NT 10.0; Win64; x64) AppleWebKit/537.36 (KHTML, like Gecko) Chrome/88.0.4324.146 Safari/537.36","v1-up-stims","","","","","","","","-20,-10,0,10,20","media/audio/stims/spherical_300cm_s20_c20_cd-full_matched_a20.wav","spherical","20","20","full","matched","20","20","2331"
"echo-presentation","13","2525953","0.0-13.0","5ebd676b0ee54a0379a10188","5fef55e628823a0076ec12ee","60201d3d39a8965a4b0e2ff6","Mozilla/5.0 (Windows NT 10.0; Win64; x64) AppleWebKit/537.36 (KHTML, like Gecko) Chrome/88.0.4324.146 Safari/537.36","v1-up-stims","","","","","","","","-20,-10,0,10,20","media/audio/stims/spherical_300cm_s20_c20_cd-full_matched_a20.wav","spherical","20","20","full","matched","20","10","2860"
"echo-presentation","14","2529627","0.0-14.0","5ebd676b0ee54a0379a10188","5fef55e628823a0076ec12ee","60201d3d39a8965a4b0e2ff6","Mozilla/5.0 (Windows NT 10.0; Win64; x64) AppleWebKit/537.36 (KHTML, like Gecko) Chrome/88.0.4324.146 Safari/537.36","v1-up-stims","","","","","","","","-20,-10,0,10,20","media/audio/stims/spherical_300cm_s20_c20_cd-full_matched_a-20.wav","spherical","20","20","full","matched","-20","-20","1395"
"echo-presentation","15","2534703","0.0-15.0","5ebd676b0ee54a0379a10188","5fef55e628823a0076ec12ee","60201d3d39a8965a4b0e2ff6","Mozilla/5.0 (Windows NT 10.0; Win64; x64) AppleWebKit/537.36 (KHTML, like Gecko) Chrome/88.0.4324.146 Safari/537.36","v1-up-stims","","","","","","","","-20,-10,0,10,20","media/audio/stims/spherical_300cm_s20_c20_cd-full_matched_a0.wav","spherical","20","20","full","matched","0","20","2142"
"echo-presentation","16","2537317","0.0-16.0","5ebd676b0ee54a0379a10188","5fef55e628823a0076ec12ee","60201d3d39a8965a4b0e2ff6","Mozilla/5.0 (Windows NT 10.0; Win64; x64) AppleWebKit/537.36 (KHTML, like Gecko) Chrome/88.0.4324.146 Safari/537.36","v1-up-stims","","","","","","","","-20,-10,0,10,20","media/audio/stims/spherical_300cm_s20_c20_cd-full_matched_a10.wav","spherical","20","20","full","matched","10","20","1295"
"echo-presentation","17","2539510","0.0-17.0","5ebd676b0ee54a0379a10188","5fef55e628823a0076ec12ee","60201d3d39a8965a4b0e2ff6","Mozilla/5.0 (Windows NT 10.0; Win64; x64) AppleWebKit/537.36 (KHTML, like Gecko) Chrome/88.0.4324.146 Safari/537.36","v1-up-stims","","","","","","","","-20,-10,0,10,20","media/audio/stims/spherical_300cm_s20_c20_cd-full_matched_a-20.wav","spherical","20","20","full","matched","-20","-20","1101"
"echo-presentation","18","2542234","0.0-18.0","5ebd676b0ee54a0379a10188","5fef55e628823a0076ec12ee","60201d3d39a8965a4b0e2ff6","Mozilla/5.0 (Windows NT 10.0; Win64; x64) AppleWebKit/537.36 (KHTML, like Gecko) Chrome/88.0.4324.146 Safari/537.36","v1-up-stims","","","","","","","","-20,-10,0,10,20","media/audio/stims/spherical_300cm_s20_c20_cd-full_matched_a-10.wav","spherical","20","20","full","matched","-10","-10","1811"
"echo-presentation","19","2546179","0.0-19.0","5ebd676b0ee54a0379a10188","5fef55e628823a0076ec12ee","60201d3d39a8965a4b0e2ff6","Mozilla/5.0 (Windows NT 10.0; Win64; x64) AppleWebKit/537.36 (KHTML, like Gecko) Chrome/88.0.4324.146 Safari/537.36","v1-up-stims","","","","","","","","-20,-10,0,10,20","media/audio/stims/spherical_300cm_s20_c20_cd-full_matched_a0.wav","spherical","20","20","full","matched","0","10","2728"
"echo-presentation","20","2548742","0.0-20.0","5ebd676b0ee54a0379a10188","5fef55e628823a0076ec12ee","60201d3d39a8965a4b0e2ff6","Mozilla/5.0 (Windows NT 10.0; Win64; x64) AppleWebKit/537.36 (KHTML, like Gecko) Chrome/88.0.4324.146 Safari/537.36","v1-up-stims","","","","","","","","-20,-10,0,10,20","media/audio/stims/spherical_300cm_s20_c20_cd-full_matched_a0.wav","spherical","20","20","full","matched","0","-20","1547"
"echo-presentation","21","2551027","0.0-21.0","5ebd676b0ee54a0379a10188","5fef55e628823a0076ec12ee","60201d3d39a8965a4b0e2ff6","Mozilla/5.0 (Windows NT 10.0; Win64; x64) AppleWebKit/537.36 (KHTML, like Gecko) Chrome/88.0.4324.146 Safari/537.36","v1-up-stims","","","","","","","","-20,-10,0,10,20","media/audio/stims/spherical_300cm_s20_c20_cd-full_matched_a-20.wav","spherical","20","20","full","matched","-20","-20","1032"
"echo-presentation","22","2555158","0.0-22.0","5ebd676b0ee54a0379a10188","5fef55e628823a0076ec12ee","60201d3d39a8965a4b0e2ff6","Mozilla/5.0 (Windows NT 10.0; Win64; x64) AppleWebKit/537.36 (KHTML, like Gecko) Chrome/88.0.4324.146 Safari/537.36","v1-up-stims","","","","","","","","-20,-10,0,10,20","media/audio/stims/spherical_300cm_s20_c20_cd-full_matched_a-10.wav","spherical","20","20","full","matched","-10","-10","2447"
"echo-presentation","23","2557718","0.0-23.0","5ebd676b0ee54a0379a10188","5fef55e628823a0076ec12ee","60201d3d39a8965a4b0e2ff6","Mozilla/5.0 (Windows NT 10.0; Win64; x64) AppleWebKit/537.36 (KHTML, like Gecko) Chrome/88.0.4324.146 Safari/537.36","v1-up-stims","","","","","","","","-20,-10,0,10,20","media/audio/stims/spherical_300cm_s20_c20_cd-full_matched_a0.wav","spherical","20","20","full","matched","0","-20","1445"
"echo-presentation","24","2560176","0.0-24.0","5ebd676b0ee54a0379a10188","5fef55e628823a0076ec12ee","60201d3d39a8965a4b0e2ff6","Mozilla/5.0 (Windows NT 10.0; Win64; x64) AppleWebKit/537.36 (KHTML, like Gecko) Chrome/88.0.4324.146 Safari/537.36","v1-up-stims","","","","","","","","-20,-10,0,10,20","media/audio/stims/spherical_300cm_s20_c20_cd-full_matched_a10.wav","spherical","20","20","full","matched","10","10","1509"
"echo-presentation","25","2562607","0.0-25.0","5ebd676b0ee54a0379a10188","5fef55e628823a0076ec12ee","60201d3d39a8965a4b0e2ff6","Mozilla/5.0 (Windows NT 10.0; Win64; x64) AppleWebKit/537.36 (KHTML, like Gecko) Chrome/88.0.4324.146 Safari/537.36","v1-up-stims","","","","","","","","-20,-10,0,10,20","media/audio/stims/spherical_300cm_s20_c20_cd-full_matched_a10.wav","spherical","20","20","full","matched","10","10","1388"
"echo-presentation","26","2565463","0.0-26.0","5ebd676b0ee54a0379a10188","5fef55e628823a0076ec12ee","60201d3d39a8965a4b0e2ff6","Mozilla/5.0 (Windows NT 10.0; Win64; x64) AppleWebKit/537.36 (KHTML, like Gecko) Chrome/88.0.4324.146 Safari/537.36","v1-up-stims","","","","","","","","-20,-10,0,10,20","media/audio/stims/spherical_300cm_s20_c20_cd-full_matched_a20.wav","spherical","20","20","full","matched","20","20","1948"
"echo-presentation","27","2576606","0.0-27.0","5ebd676b0ee54a0379a10188","5fef55e628823a0076ec12ee","60201d3d39a8965a4b0e2ff6","Mozilla/5.0 (Windows NT 10.0; Win64; x64) AppleWebKit/537.36 (KHTML, like Gecko) Chrome/88.0.4324.146 Safari/537.36","v1-up-stims","","","","","","","","-20,-10,0,10,20","media/audio/stims/spherical_300cm_s20_c20_cd-full_matched_a-10.wav","spherical","20","20","full","matched","-10","-20","3091"
"block-bookend","28","2582701","0.0-28.0","5ebd676b0ee54a0379a10188","5fef55e628823a0076ec12ee","60201d3d39a8965a4b0e2ff6","Mozilla/5.0 (Windows NT 10.0; Win64; x64) AppleWebKit/537.36 (KHTML, like Gecko) Chrome/88.0.4324.146 Safari/537.36","v1-up-stims","","","","","","","","","","","","","","","","",""
"block-bookend","29","2592764","0.0-29.0","5ebd676b0ee54a0379a10188","5fef55e628823a0076ec12ee","60201d3d39a8965a4b0e2ff6","Mozilla/5.0 (Windows NT 10.0; Win64; x64) AppleWebKit/537.36 (KHTML, like Gecko) Chrome/88.0.4324.146 Safari/537.36","v1-up-stims","","","","","","","","","","","","","","","","",""
"echo-presentation","30","2599305","0.0-30.0","5ebd676b0ee54a0379a10188","5fef55e628823a0076ec12ee","60201d3d39a8965a4b0e2ff6","Mozilla/5.0 (Windows NT 10.0; Win64; x64) AppleWebKit/537.36 (KHTML, like Gecko) Chrome/88.0.4324.146 Safari/537.36","v1-up-stims","","","","","","","","-20,-10,0,10,20","media/audio/stims/spherical_300cm_s20_c20_cd-full_matched_a-10.wav","spherical","20","20","full","matched","-10","-20","3154"
"echo-presentation","31","2601998","0.0-31.0","5ebd676b0ee54a0379a10188","5fef55e628823a0076ec12ee","60201d3d39a8965a4b0e2ff6","Mozilla/5.0 (Windows NT 10.0; Win64; x64) AppleWebKit/537.36 (KHTML, like Gecko) Chrome/88.0.4324.146 Safari/537.36","v1-up-stims","","","","","","","","-20,-10,0,10,20","media/audio/stims/spherical_300cm_s20_c20_cd-full_matched_a20.wav","spherical","20","20","full","matched","20","10","1730"
"echo-presentation","32","2603837","0.0-32.0","5ebd676b0ee54a0379a10188","5fef55e628823a0076ec12ee","60201d3d39a8965a4b0e2ff6","Mozilla/5.0 (Windows NT 10.0; Win64; x64) AppleWebKit/537.36 (KHTML, like Gecko) Chrome/88.0.4324.146 Safari/537.36","v1-up-stims","","","","","","","","-20,-10,0,10,20","media/audio/stims/spherical_300cm_s20_c20_cd-full_matched_a20.wav","spherical","20","20","full","matched","20","20","1016"
"echo-presentation","33","2605941","0.0-33.0","5ebd676b0ee54a0379a10188","5fef55e628823a0076ec12ee","60201d3d39a8965a4b0e2ff6","Mozilla/5.0 (Windows NT 10.0; Win64; x64) AppleWebKit/537.36 (KHTML, like Gecko) Chrome/88.0.4324.146 Safari/537.36","v1-up-stims","","","","","","","","-20,-10,0,10,20","media/audio/stims/spherical_300cm_s20_c20_cd-full_matched_a-10.wav","spherical","20","20","full","matched","-10","-10","1321"
"echo-presentation","34","2607741","0.0-34.0","5ebd676b0ee54a0379a10188","5fef55e628823a0076ec12ee","60201d3d39a8965a4b0e2ff6","Mozilla/5.0 (Windows NT 10.0; Win64; x64) AppleWebKit/537.36 (KHTML, like Gecko) Chrome/88.0.4324.146 Safari/537.36","v1-up-stims","","","","","","","","-20,-10,0,10,20","media/audio/stims/spherical_300cm_s20_c20_cd-full_matched_a-20.wav","spherical","20","20","full","matched","-20","-20","1016"
"echo-presentation","35","2611518","0.0-35.0","5ebd676b0ee54a0379a10188","5fef55e628823a0076ec12ee","60201d3d39a8965a4b0e2ff6","Mozilla/5.0 (Windows NT 10.0; Win64; x64) AppleWebKit/537.36 (KHTML, like Gecko) Chrome/88.0.4324.146 Safari/537.36","v1-up-stims","","","","","","","","-20,-10,0,10,20","media/audio/stims/spherical_300cm_s20_c20_cd-full_matched_a0.wav","spherical","20","20","full","matched","0","10","2940"
"echo-presentation","36","2613352","0.0-36.0","5ebd676b0ee54a0379a10188","5fef55e628823a0076ec12ee","60201d3d39a8965a4b0e2ff6","Mozilla/5.0 (Windows NT 10.0; Win64; x64) AppleWebKit/537.36 (KHTML, like Gecko) Chrome/88.0.4324.146 Safari/537.36","v1-up-stims","","","","","","","","-20,-10,0,10,20","media/audio/stims/spherical_300cm_s20_c20_cd-full_matched_a-10.wav","spherical","20","20","full","matched","-10","-20","1061"
"echo-presentation","37","2615273","0.0-37.0","5ebd676b0ee54a0379a10188","5fef55e628823a0076ec12ee","60201d3d39a8965a4b0e2ff6","Mozilla/5.0 (Windows NT 10.0; Win64; x64) AppleWebKit/537.36 (KHTML, like Gecko) Chrome/88.0.4324.146 Safari/537.36","v1-up-stims","","","","","","","","-20,-10,0,10,20","media/audio/stims/spherical_300cm_s20_c20_cd-full_matched_a-20.wav","spherical","20","20","full","matched","-20","-20","1121"
"echo-presentation","38","2621789","0.0-38.0","5ebd676b0ee54a0379a10188","5fef55e628823a0076ec12ee","60201d3d39a8965a4b0e2ff6","Mozilla/5.0 (Windows NT 10.0; Win64; x64) AppleWebKit/537.36 (KHTML, like Gecko) Chrome/88.0.4324.146 Safari/537.36","v1-up-stims","","","","","","","","-20,-10,0,10,20","media/audio/stims/spherical_300cm_s20_c20_cd-full_matched_a10.wav","spherical","20","20","full","matched","10","0","2000"
"echo-presentation","39","2632403","0.0-39.0","5ebd676b0ee54a0379a10188","5fef55e628823a0076ec12ee","60201d3d39a8965a4b0e2ff6","Mozilla/5.0 (Windows NT 10.0; Win64; x64) AppleWebKit/537.36 (KHTML, like Gecko) Chrome/88.0.4324.146 Safari/537.36","v1-up-stims","","","","","","","","-20,-10,0,10,20","media/audio/stims/spherical_300cm_s20_c20_cd-full_matched_a-20.wav","spherical","20","20","full","matched","-20","-20","1182"
"echo-presentation","40","2635468","0.0-40.0","5ebd676b0ee54a0379a10188","5fef55e628823a0076ec12ee","60201d3d39a8965a4b0e2ff6","Mozilla/5.0 (Windows NT 10.0; Win64; x64) AppleWebKit/537.36 (KHTML, like Gecko) Chrome/88.0.4324.146 Safari/537.36","v1-up-stims","","","","","","","","-20,-10,0,10,20","media/audio/stims/spherical_300cm_s20_c20_cd-full_matched_a0.wav","spherical","20","20","full","matched","0","0","1705"
"echo-presentation","41","2642828","0.0-41.0","5ebd676b0ee54a0379a10188","5fef55e628823a0076ec12ee","60201d3d39a8965a4b0e2ff6","Mozilla/5.0 (Windows NT 10.0; Win64; x64) AppleWebKit/537.36 (KHTML, like Gecko) Chrome/88.0.4324.146 Safari/537.36","v1-up-stims","","","","","","","","-20,-10,0,10,20","media/audio/stims/spherical_300cm_s20_c20_cd-full_matched_a10.wav","spherical","20","20","full","matched","10","10","2476"
"echo-presentation","42","2645363","0.0-42.0","5ebd676b0ee54a0379a10188","5fef55e628823a0076ec12ee","60201d3d39a8965a4b0e2ff6","Mozilla/5.0 (Windows NT 10.0; Win64; x64) AppleWebKit/537.36 (KHTML, like Gecko) Chrome/88.0.4324.146 Safari/537.36","v1-up-stims","","","","","","","","-20,-10,0,10,20","media/audio/stims/spherical_300cm_s20_c20_cd-full_matched_a-20.wav","spherical","20","20","full","matched","-20","-10","1741"
"echo-presentation","43","2648775","0.0-43.0","5ebd676b0ee54a0379a10188","5fef55e628823a0076ec12ee","60201d3d39a8965a4b0e2ff6","Mozilla/5.0 (Windows NT 10.0; Win64; x64) AppleWebKit/537.36 (KHTML, like Gecko) Chrome/88.0.4324.146 Safari/537.36","v1-up-stims","","","","","","","","-20,-10,0,10,20","media/audio/stims/spherical_300cm_s20_c20_cd-full_matched_a0.wav","spherical","20","20","full","matched","0","0","2403"
"echo-presentation","44","2651011","0.0-44.0","5ebd676b0ee54a0379a10188","5fef55e628823a0076ec12ee","60201d3d39a8965a4b0e2ff6","Mozilla/5.0 (Windows NT 10.0; Win64; x64) AppleWebKit/537.36 (KHTML, like Gecko) Chrome/88.0.4324.146 Safari/537.36","v1-up-stims","","","","","","","","-20,-10,0,10,20","media/audio/stims/spherical_300cm_s20_c20_cd-full_matched_a-10.wav","spherical","20","20","full","matched","-10","-20","1435"
"echo-presentation","45","2653078","0.0-45.0","5ebd676b0ee54a0379a10188","5fef55e628823a0076ec12ee","60201d3d39a8965a4b0e2ff6","Mozilla/5.0 (Windows NT 10.0; Win64; x64) AppleWebKit/537.36 (KHTML, like Gecko) Chrome/88.0.4324.146 Safari/537.36","v1-up-stims","","","","","","","","-20,-10,0,10,20","media/audio/stims/spherical_300cm_s20_c20_cd-full_matched_a10.wav","spherical","20","20","full","matched","10","10","1378"
"echo-presentation","46","2654965","0.0-46.0","5ebd676b0ee54a0379a10188","5fef55e628823a0076ec12ee","60201d3d39a8965a4b0e2ff6","Mozilla/5.0 (Windows NT 10.0; Win64; x64) AppleWebKit/537.36 (KHTML, like Gecko) Chrome/88.0.4324.146 Safari/537.36","v1-up-stims","","","","","","","","-20,-10,0,10,20","media/audio/stims/spherical_300cm_s20_c20_cd-full_matched_a0.wav","spherical","20","20","full","matched","0","-20","1102"
"echo-presentation","47","2658226","0.0-47.0","5ebd676b0ee54a0379a10188","5fef55e628823a0076ec12ee","60201d3d39a8965a4b0e2ff6","Mozilla/5.0 (Windows NT 10.0; Win64; x64) AppleWebKit/537.36 (KHTML, like Gecko) Chrome/88.0.4324.146 Safari/537.36","v1-up-stims","","","","","","","","-20,-10,0,10,20","media/audio/stims/spherical_300cm_s20_c20_cd-full_matched_a20.wav","spherical","20","20","full","matched","20","10","1911"
"echo-presentation","48","2663346","0.0-48.0","5ebd676b0ee54a0379a10188","5fef55e628823a0076ec12ee","60201d3d39a8965a4b0e2ff6","Mozilla/5.0 (Windows NT 10.0; Win64; x64) AppleWebKit/537.36 (KHTML, like Gecko) Chrome/88.0.4324.146 Safari/537.36","v1-up-stims","","","","","","","","-20,-10,0,10,20","media/audio/stims/spherical_300cm_s20_c20_cd-full_matched_a10.wav","spherical","20","20","full","matched","10","10","4340"
"echo-presentation","49","2672085","0.0-49.0","5ebd676b0ee54a0379a10188","5fef55e628823a0076ec12ee","60201d3d39a8965a4b0e2ff6","Mozilla/5.0 (Windows NT 10.0; Win64; x64) AppleWebKit/537.36 (KHTML, like Gecko) Chrome/88.0.4324.146 Safari/537.36","v1-up-stims","","","","","","","","-20,-10,0,10,20","media/audio/stims/spherical_300cm_s20_c20_cd-full_matched_a20.wav","spherical","20","20","full","matched","20","10","1165"
"block-bookend","50","2674748","0.0-50.0","5ebd676b0ee54a0379a10188","5fef55e628823a0076ec12ee","60201d3d39a8965a4b0e2ff6","Mozilla/5.0 (Windows NT 10.0; Win64; x64) AppleWebKit/537.36 (KHTML, like Gecko) Chrome/88.0.4324.146 Safari/537.36","v1-up-stims","","","","","","","","","","","","","","","","",""
"block-bookend","51","2684072","0.0-51.0","5ebd676b0ee54a0379a10188","5fef55e628823a0076ec12ee","60201d3d39a8965a4b0e2ff6","Mozilla/5.0 (Windows NT 10.0; Win64; x64) AppleWebKit/537.36 (KHTML, like Gecko) Chrome/88.0.4324.146 Safari/537.36","v1-up-stims","","","","","","","","","","","","","","","","",""
"echo-presentation","52","2690813","0.0-52.0","5ebd676b0ee54a0379a10188","5fef55e628823a0076ec12ee","60201d3d39a8965a4b0e2ff6","Mozilla/5.0 (Windows NT 10.0; Win64; x64) AppleWebKit/537.36 (KHTML, like Gecko) Chrome/88.0.4324.146 Safari/537.36","v1-up-stims","","","","","","","","-80,-70,-60,-50,-40","media/audio/stims/spherical_300cm_s20_c20_cd-full_matched_a-60.wav","spherical","20","20","full","matched","-60","-50","4962"
"echo-presentation","53","2694594","0.0-53.0","5ebd676b0ee54a0379a10188","5fef55e628823a0076ec12ee","60201d3d39a8965a4b0e2ff6","Mozilla/5.0 (Windows NT 10.0; Win64; x64) AppleWebKit/537.36 (KHTML, like Gecko) Chrome/88.0.4324.146 Safari/537.36","v1-up-stims","","","","","","","","-80,-70,-60,-50,-40","media/audio/stims/spherical_300cm_s20_c20_cd-full_matched_a-60.wav","spherical","20","20","full","matched","-60","-60","2777"
"echo-presentation","54","2697352","0.0-54.0","5ebd676b0ee54a0379a10188","5fef55e628823a0076ec12ee","60201d3d39a8965a4b0e2ff6","Mozilla/5.0 (Windows NT 10.0; Win64; x64) AppleWebKit/537.36 (KHTML, like Gecko) Chrome/88.0.4324.146 Safari/537.36","v1-up-stims","","","","","","","","-80,-70,-60,-50,-40","media/audio/stims/spherical_300cm_s20_c20_cd-full_matched_a-40.wav","spherical","20","20","full","matched","-40","-70","1753"
"echo-presentation","55","2699711","0.0-55.0","5ebd676b0ee54a0379a10188","5fef55e628823a0076ec12ee","60201d3d39a8965a4b0e2ff6","Mozilla/5.0 (Windows NT 10.0; Win64; x64) AppleWebKit/537.36 (KHTML, like Gecko) Chrome/88.0.4324.146 Safari/537.36","v1-up-stims","","","","","","","","-80,-70,-60,-50,-40","media/audio/stims/spherical_300cm_s20_c20_cd-full_matched_a-70.wav","spherical","20","20","full","matched","-70","-70","1548"
"echo-presentation","56","2721402","0.0-56.0","5ebd676b0ee54a0379a10188","5fef55e628823a0076ec12ee","60201d3d39a8965a4b0e2ff6","Mozilla/5.0 (Windows NT 10.0; Win64; x64) AppleWebKit/537.36 (KHTML, like Gecko) Chrome/88.0.4324.146 Safari/537.36","v1-up-stims","","","","","","","","-80,-70,-60,-50,-40","media/audio/stims/spherical_300cm_s20_c20_cd-full_matched_a-50.wav","spherical","20","20","full","matched","-50","-60","5280"
"echo-presentation","57","2725074","0.0-57.0","5ebd676b0ee54a0379a10188","5fef55e628823a0076ec12ee","60201d3d39a8965a4b0e2ff6","Mozilla/5.0 (Windows NT 10.0; Win64; x64) AppleWebKit/537.36 (KHTML, like Gecko) Chrome/88.0.4324.146 Safari/537.36","v1-up-stims","","","","","","","","-80,-70,-60,-50,-40","media/audio/stims/spherical_300cm_s20_c20_cd-full_matched_a-80.wav","spherical","20","20","full","matched","-80","-80","1111"
"echo-presentation","58","2726984","0.0-58.0","5ebd676b0ee54a0379a10188","5fef55e628823a0076ec12ee","60201d3d39a8965a4b0e2ff6","Mozilla/5.0 (Windows NT 10.0; Win64; x64) AppleWebKit/537.36 (KHTML, like Gecko) Chrome/88.0.4324.146 Safari/537.36","v1-up-stims","","","","","","","","-80,-70,-60,-50,-40","media/audio/stims/spherical_300cm_s20_c20_cd-full_matched_a-50.wav","spherical","20","20","full","matched","-50","-80","1128"
"echo-presentation","59","2728561","0.0-59.0","5ebd676b0ee54a0379a10188","5fef55e628823a0076ec12ee","60201d3d39a8965a4b0e2ff6","Mozilla/5.0 (Windows NT 10.0; Win64; x64) AppleWebKit/537.36 (KHTML, like Gecko) Chrome/88.0.4324.146 Safari/537.36","v1-up-stims","","","","","","","","-80,-70,-60,-50,-40","media/audio/stims/spherical_300cm_s20_c20_cd-full_matched_a-80.wav","spherical","20","20","full","matched","-80","-80","1053"
"echo-presentation","60","2730737","0.0-60.0","5ebd676b0ee54a0379a10188","5fef55e628823a0076ec12ee","60201d3d39a8965a4b0e2ff6","Mozilla/5.0 (Windows NT 10.0; Win64; x64) AppleWebKit/537.36 (KHTML, like Gecko) Chrome/88.0.4324.146 Safari/537.36","v1-up-stims","","","","","","","","-80,-70,-60,-50,-40","media/audio/stims/spherical_300cm_s20_c20_cd-full_matched_a-40.wav","spherical","20","20","full","matched","-40","-70","1096"
"echo-presentation","61","2733906","0.0-61.0","5ebd676b0ee54a0379a10188","5fef55e628823a0076ec12ee","60201d3d39a8965a4b0e2ff6","Mozilla/5.0 (Windows NT 10.0; Win64; x64) AppleWebKit/537.36 (KHTML, like Gecko) Chrome/88.0.4324.146 Safari/537.36","v1-up-stims","","","","","","","","-80,-70,-60,-50,-40","media/audio/stims/spherical_300cm_s20_c20_cd-full_matched_a-40.wav","spherical","20","20","full","matched","-40","-60","2385"
"echo-presentation","62","2736561","0.0-62.0","5ebd676b0ee54a0379a10188","5fef55e628823a0076ec12ee","60201d3d39a8965a4b0e2ff6","Mozilla/5.0 (Windows NT 10.0; Win64; x64) AppleWebKit/537.36 (KHTML, like Gecko) Chrome/88.0.4324.146 Safari/537.36","v1-up-stims","","","","","","","","-80,-70,-60,-50,-40","media/audio/stims/spherical_300cm_s20_c20_cd-full_matched_a-70.wav","spherical","20","20","full","matched","-70","-70","1171"
"echo-presentation","63","2741045","0.0-63.0","5ebd676b0ee54a0379a10188","5fef55e628823a0076ec12ee","60201d3d39a8965a4b0e2ff6","Mozilla/5.0 (Windows NT 10.0; Win64; x64) AppleWebKit/537.36 (KHTML, like Gecko) Chrome/88.0.4324.146 Safari/537.36","v1-up-stims","","","","","","","","-80,-70,-60,-50,-40","media/audio/stims/spherical_300cm_s20_c20_cd-full_matched_a-60.wav","spherical","20","20","full","matched","-60","-80","3352"
"echo-presentation","64","2743424","0.0-64.0","5ebd676b0ee54a0379a10188","5fef55e628823a0076ec12ee","60201d3d39a8965a4b0e2ff6","Mozilla/5.0 (Windows NT 10.0; Win64; x64) AppleWebKit/537.36 (KHTML, like Gecko) Chrome/88.0.4324.146 Safari/537.36","v1-up-stims","","","","","","","","-80,-70,-60,-50,-40","media/audio/stims/spherical_300cm_s20_c20_cd-full_matched_a-70.wav","spherical","20","20","full","matched","-70","-70","1282"
"echo-presentation","65","2745889","0.0-65.0","5ebd676b0ee54a0379a10188","5fef55e628823a0076ec12ee","60201d3d39a8965a4b0e2ff6","Mozilla/5.0 (Windows NT 10.0; Win64; x64) AppleWebKit/537.36 (KHTML, like Gecko) Chrome/88.0.4324.146 Safari/537.36","v1-up-stims","","","","","","","","-80,-70,-60,-50,-40","media/audio/stims/spherical_300cm_s20_c20_cd-full_matched_a-80.wav","spherical","20","20","full","matched","-80","-80","1326"
"echo-presentation","66","2748204","0.0-66.0","5ebd676b0ee54a0379a10188","5fef55e628823a0076ec12ee","60201d3d39a8965a4b0e2ff6","Mozilla/5.0 (Windows NT 10.0; Win64; x64) AppleWebKit/537.36 (KHTML, like Gecko) Chrome/88.0.4324.146 Safari/537.36","v1-up-stims","","","","","","","","-80,-70,-60,-50,-40","media/audio/stims/spherical_300cm_s20_c20_cd-full_matched_a-80.wav","spherical","20","20","full","matched","-80","-70","1603"
"echo-presentation","67","2750771","0.0-67.0","5ebd676b0ee54a0379a10188","5fef55e628823a0076ec12ee","60201d3d39a8965a4b0e2ff6","Mozilla/5.0 (Windows NT 10.0; Win64; x64) AppleWebKit/537.36 (KHTML, like Gecko) Chrome/88.0.4324.146 Safari/537.36","v1-up-stims","","","","","","","","-80,-70,-60,-50,-40","media/audio/stims/spherical_300cm_s20_c20_cd-full_matched_a-50.wav","spherical","20","20","full","matched","-50","-60","1894"
"echo-presentation","68","2752580","0.0-68.0","5ebd676b0ee54a0379a10188","5fef55e628823a0076ec12ee","60201d3d39a8965a4b0e2ff6","Mozilla/5.0 (Windows NT 10.0; Win64; x64) AppleWebKit/537.36 (KHTML, like Gecko) Chrome/88.0.4324.146 Safari/537.36","v1-up-stims","","","","","","","","-80,-70,-60,-50,-40","media/audio/stims/spherical_300cm_s20_c20_cd-full_matched_a-60.wav","spherical","20","20","full","matched","-60","-40","1117"
"echo-presentation","69","2754677","0.0-69.0","5ebd676b0ee54a0379a10188","5fef55e628823a0076ec12ee","60201d3d39a8965a4b0e2ff6","Mozilla/5.0 (Windows NT 10.0; Win64; x64) AppleWebKit/537.36 (KHTML, like Gecko) Chrome/88.0.4324.146 Safari/537.36","v1-up-stims","","","","","","","","-80,-70,-60,-50,-40","media/audio/stims/spherical_300cm_s20_c20_cd-full_matched_a-40.wav","spherical","20","20","full","matched","-40","-50","1291"
"echo-presentation","70","2757218","0.0-70.0","5ebd676b0ee54a0379a10188","5fef55e628823a0076ec12ee","60201d3d39a8965a4b0e2ff6","Mozilla/5.0 (Windows NT 10.0; Win64; x64) AppleWebKit/537.36 (KHTML, like Gecko) Chrome/88.0.4324.146 Safari/537.36","v1-up-stims","","","","","","","","-80,-70,-60,-50,-40","media/audio/stims/spherical_300cm_s20_c20_cd-full_matched_a-70.wav","spherical","20","20","full","matched","-70","-70","1719"
"echo-presentation","71","2761284","0.0-71.0","5ebd676b0ee54a0379a10188","5fef55e628823a0076ec12ee","60201d3d39a8965a4b0e2ff6","Mozilla/5.0 (Windows NT 10.0; Win64; x64) AppleWebKit/537.36 (KHTML, like Gecko) Chrome/88.0.4324.146 Safari/537.36","v1-up-stims","","","","","","","","-80,-70,-60,-50,-40","media/audio/stims/spherical_300cm_s20_c20_cd-full_matched_a-50.wav","spherical","20","20","full","matched","-50","-50","2282"
"block-bookend","72","2762988","0.0-72.0","5ebd676b0ee54a0379a10188","5fef55e628823a0076ec12ee","60201d3d39a8965a4b0e2ff6","Mozilla/5.0 (Windows NT 10.0; Win64; x64) AppleWebKit/537.36 (KHTML, like Gecko) Chrome/88.0.4324.146 Safari/537.36","v1-up-stims","","","","","","","","","","","","","","","","",""
"block-bookend","73","2783413","0.0-73.0","5ebd676b0ee54a0379a10188","5fef55e628823a0076ec12ee","60201d3d39a8965a4b0e2ff6","Mozilla/5.0 (Windows NT 10.0; Win64; x64) AppleWebKit/537.36 (KHTML, like Gecko) Chrome/88.0.4324.146 Safari/537.36","v1-up-stims","","","","","","","","","","","","","","","","",""
"echo-presentation","74","2786372","0.0-74.0","5ebd676b0ee54a0379a10188","5fef55e628823a0076ec12ee","60201d3d39a8965a4b0e2ff6","Mozilla/5.0 (Windows NT 10.0; Win64; x64) AppleWebKit/537.36 (KHTML, like Gecko) Chrome/88.0.4324.146 Safari/537.36","v1-up-stims","","","","","","","","-80,-70,-60,-50,-40","media/audio/stims/spherical_300cm_s20_c20_cd-full_matched_a-60.wav","spherical","20","20","full","matched","-60","-70","1835"
"echo-presentation","75","2792768","0.0-75.0","5ebd676b0ee54a0379a10188","5fef55e628823a0076ec12ee","60201d3d39a8965a4b0e2ff6","Mozilla/5.0 (Windows NT 10.0; Win64; x64) AppleWebKit/537.36 (KHTML, like Gecko) Chrome/88.0.4324.146 Safari/537.36","v1-up-stims","","","","","","","","-80,-70,-60,-50,-40","media/audio/stims/spherical_300cm_s20_c20_cd-full_matched_a-80.wav","spherical","20","20","full","matched","-80","-60","5348"
"echo-presentation","76","2795139","0.0-76.0","5ebd676b0ee54a0379a10188","5fef55e628823a0076ec12ee","60201d3d39a8965a4b0e2ff6","Mozilla/5.0 (Windows NT 10.0; Win64; x64) AppleWebKit/537.36 (KHTML, like Gecko) Chrome/88.0.4324.146 Safari/537.36","v1-up-stims","","","","","","","","-80,-70,-60,-50,-40","media/audio/stims/spherical_300cm_s20_c20_cd-full_matched_a-60.wav","spherical","20","20","full","matched","-60","-60","1665"
"echo-presentation","77","2797215","0.0-77.0","5ebd676b0ee54a0379a10188","5fef55e628823a0076ec12ee","60201d3d39a8965a4b0e2ff6","Mozilla/5.0 (Windows NT 10.0; Win64; x64) AppleWebKit/537.36 (KHTML, like Gecko) Chrome/88.0.4324.146 Safari/537.36","v1-up-stims","","","","","","","","-80,-70,-60,-50,-40","media/audio/stims/spherical_300cm_s20_c20_cd-full_matched_a-50.wav","spherical","20","20","full","matched","-50","-50","1561"
"echo-presentation","78","2799053","0.0-78.0","5ebd676b0ee54a0379a10188","5fef55e628823a0076ec12ee","60201d3d39a8965a4b0e2ff6","Mozilla/5.0 (Windows NT 10.0; Win64; x64) AppleWebKit/537.36 (KHTML, like Gecko) Chrome/88.0.4324.146 Safari/537.36","v1-up-stims","","","","","","","","-80,-70,-60,-50,-40","media/audio/stims/spherical_300cm_s20_c20_cd-full_matched_a-50.wav","spherical","20","20","full","matched","-50","-40","977"
"echo-presentation","79","2802697","0.0-79.0","5ebd676b0ee54a0379a10188","5fef55e628823a0076ec12ee","60201d3d39a8965a4b0e2ff6","Mozilla/5.0 (Windows NT 10.0; Win64; x64) AppleWebKit/537.36 (KHTML, like Gecko) Chrome/88.0.4324.146 Safari/537.36","v1-up-stims","","","","","","","","-80,-70,-60,-50,-40","media/audio/stims/spherical_300cm_s20_c20_cd-full_matched_a-50.wav","spherical","20","20","full","matched","-50","-60","2936"
"echo-presentation","80","2804649","0.0-80.0","5ebd676b0ee54a0379a10188","5fef55e628823a0076ec12ee","60201d3d39a8965a4b0e2ff6","Mozilla/5.0 (Windows NT 10.0; Win64; x64) AppleWebKit/537.36 (KHTML, like Gecko) Chrome/88.0.4324.146 Safari/537.36","v1-up-stims","","","","","","","","-80,-70,-60,-50,-40","media/audio/stims/spherical_300cm_s20_c20_cd-full_matched_a-70.wav","spherical","20","20","full","matched","-70","-70","1258"
"echo-presentation","81","2806631","0.0-81.0","5ebd676b0ee54a0379a10188","5fef55e628823a0076ec12ee","60201d3d39a8965a4b0e2ff6","Mozilla/5.0 (Windows NT 10.0; Win64; x64) AppleWebKit/537.36 (KHTML, like Gecko) Chrome/88.0.4324.146 Safari/537.36","v1-up-stims","","","","","","","","-80,-70,-60,-50,-40","media/audio/stims/spherical_300cm_s20_c20_cd-full_matched_a-60.wav","spherical","20","20","full","matched","-60","-70","1240"
"echo-presentation","82","2809222","0.0-82.0","5ebd676b0ee54a0379a10188","5fef55e628823a0076ec12ee","60201d3d39a8965a4b0e2ff6","Mozilla/5.0 (Windows NT 10.0; Win64; x64) AppleWebKit/537.36 (KHTML, like Gecko) Chrome/88.0.4324.146 Safari/537.36","v1-up-stims","","","","","","","","-80,-70,-60,-50,-40","media/audio/stims/spherical_300cm_s20_c20_cd-full_matched_a-40.wav","spherical","20","20","full","matched","-40","-60","1880"
"echo-presentation","83","2811208","0.0-83.0","5ebd676b0ee54a0379a10188","5fef55e628823a0076ec12ee","60201d3d39a8965a4b0e2ff6","Mozilla/5.0 (Windows NT 10.0; Win64; x64) AppleWebKit/537.36 (KHTML, like Gecko) Chrome/88.0.4324.146 Safari/537.36","v1-up-stims","","","","","","","","-80,-70,-60,-50,-40","media/audio/stims/spherical_300cm_s20_c20_cd-full_matched_a-50.wav","spherical","20","20","full","matched","-50","-60","1376"
"echo-presentation","84","2812718","0.0-84.0","5ebd676b0ee54a0379a10188","5fef55e628823a0076ec12ee","60201d3d39a8965a4b0e2ff6","Mozilla/5.0 (Windows NT 10.0; Win64; x64) AppleWebKit/537.36 (KHTML, like Gecko) Chrome/88.0.4324.146 Safari/537.36","v1-up-stims","","","","","","","","-80,-70,-60,-50,-40","media/audio/stims/spherical_300cm_s20_c20_cd-full_matched_a-80.wav","spherical","20","20","full","matched","-80","-70","979"
"echo-presentation","85","2815193","0.0-85.0","5ebd676b0ee54a0379a10188","5fef55e628823a0076ec12ee","60201d3d39a8965a4b0e2ff6","Mozilla/5.0 (Windows NT 10.0; Win64; x64) AppleWebKit/537.36 (KHTML, like Gecko) Chrome/88.0.4324.146 Safari/537.36","v1-up-stims","","","","","","","","-80,-70,-60,-50,-40","media/audio/stims/spherical_300cm_s20_c20_cd-full_matched_a-80.wav","spherical","20","20","full","matched","-80","-70","1732"
"echo-presentation","86","2817258","0.0-86.0","5ebd676b0ee54a0379a10188","5fef55e628823a0076ec12ee","60201d3d39a8965a4b0e2ff6","Mozilla/5.0 (Windows NT 10.0; Win64; x64) AppleWebKit/537.36 (KHTML, like Gecko) Chrome/88.0.4324.146 Safari/537.36","v1-up-stims","","","","","","","","-80,-70,-60,-50,-40","media/audio/stims/spherical_300cm_s20_c20_cd-full_matched_a-40.wav","spherical","20","20","full","matched","-40","-70","1345"
"echo-presentation","87","2821714","0.0-87.0","5ebd676b0ee54a0379a10188","5fef55e628823a0076ec12ee","60201d3d39a8965a4b0e2ff6","Mozilla/5.0 (Windows NT 10.0; Win64; x64) AppleWebKit/537.36 (KHTML, like Gecko) Chrome/88.0.4324.146 Safari/537.36","v1-up-stims","","","","","","","","-80,-70,-60,-50,-40","media/audio/stims/spherical_300cm_s20_c20_cd-full_matched_a-40.wav","spherical","20","20","full","matched","-40","-80","3708"
"echo-presentation","88","2824011","0.0-88.0","5ebd676b0ee54a0379a10188","5fef55e628823a0076ec12ee","60201d3d39a8965a4b0e2ff6","Mozilla/5.0 (Windows NT 10.0; Win64; x64) AppleWebKit/537.36 (KHTML, like Gecko) Chrome/88.0.4324.146 Safari/537.36","v1-up-stims","","","","","","","","-80,-70,-60,-50,-40","media/audio/stims/spherical_300cm_s20_c20_cd-full_matched_a-70.wav","spherical","20","20","full","matched","-70","-80","1078"
"echo-presentation","89","2827998","0.0-89.0","5ebd676b0ee54a0379a10188","5fef55e628823a0076ec12ee","60201d3d39a8965a4b0e2ff6","Mozilla/5.0 (Windows NT 10.0; Win64; x64) AppleWebKit/537.36 (KHTML, like Gecko) Chrome/88.0.4324.146 Safari/537.36","v1-up-stims","","","","","","","","-80,-70,-60,-50,-40","media/audio/stims/spherical_300cm_s20_c20_cd-full_matched_a-60.wav","spherical","20","20","full","matched","-60","-80","2800"
"echo-presentation","90","2831771","0.0-90.0","5ebd676b0ee54a0379a10188","5fef55e628823a0076ec12ee","60201d3d39a8965a4b0e2ff6","Mozilla/5.0 (Windows NT 10.0; Win64; x64) AppleWebKit/537.36 (KHTML, like Gecko) Chrome/88.0.4324.146 Safari/537.36","v1-up-stims","","","","","","","","-80,-70,-60,-50,-40","media/audio/stims/spherical_300cm_s20_c20_cd-full_matched_a-80.wav","spherical","20","20","full","matched","-80","-80","972"
"echo-presentation","91","2833853","0.0-91.0","5ebd676b0ee54a0379a10188","5fef55e628823a0076ec12ee","60201d3d39a8965a4b0e2ff6","Mozilla/5.0 (Windows NT 10.0; Win64; x64) AppleWebKit/537.36 (KHTML, like Gecko) Chrome/88.0.4324.146 Safari/537.36","v1-up-stims","","","","","","","","-80,-70,-60,-50,-40","media/audio/stims/spherical_300cm_s20_c20_cd-full_matched_a-70.wav","spherical","20","20","full","matched","-70","-70","1321"
"echo-presentation","92","2835585","0.0-92.0","5ebd676b0ee54a0379a10188","5fef55e628823a0076ec12ee","60201d3d39a8965a4b0e2ff6","Mozilla/5.0 (Windows NT 10.0; Win64; x64) AppleWebKit/537.36 (KHTML, like Gecko) Chrome/88.0.4324.146 Safari/537.36","v1-up-stims","","","","","","","","-80,-70,-60,-50,-40","media/audio/stims/spherical_300cm_s20_c20_cd-full_matched_a-40.wav","spherical","20","20","full","matched","-40","-60","983"
"echo-presentation","93","2837389","0.0-93.0","5ebd676b0ee54a0379a10188","5fef55e628823a0076ec12ee","60201d3d39a8965a4b0e2ff6","Mozilla/5.0 (Windows NT 10.0; Win64; x64) AppleWebKit/537.36 (KHTML, like Gecko) Chrome/88.0.4324.146 Safari/537.36","v1-up-stims","","","","","","","","-80,-70,-60,-50,-40","media/audio/stims/spherical_300cm_s20_c20_cd-full_matched_a-70.wav","spherical","20","20","full","matched","-70","-70","1090"
"block-bookend","94","2838411","0.0-94.0","5ebd676b0ee54a0379a10188","5fef55e628823a0076ec12ee","60201d3d39a8965a4b0e2ff6","Mozilla/5.0 (Windows NT 10.0; Win64; x64) AppleWebKit/537.36 (KHTML, like Gecko) Chrome/88.0.4324.146 Safari/537.36","v1-up-stims","","","","","","","","","","","","","","","","",""
"block-bookend","95","2842870","0.0-95.0","5ebd676b0ee54a0379a10188","5fef55e628823a0076ec12ee","60201d3d39a8965a4b0e2ff6","Mozilla/5.0 (Windows NT 10.0; Win64; x64) AppleWebKit/537.36 (KHTML, like Gecko) Chrome/88.0.4324.146 Safari/537.36","v1-up-stims","","","","","","","","","","","","","","","","",""
"echo-presentation","96","2846429","0.0-96.0","5ebd676b0ee54a0379a10188","5fef55e628823a0076ec12ee","60201d3d39a8965a4b0e2ff6","Mozilla/5.0 (Windows NT 10.0; Win64; x64) AppleWebKit/537.36 (KHTML, like Gecko) Chrome/88.0.4324.146 Safari/537.36","v1-up-stims","","","","","","","","40,50,60,70,80","media/audio/stims/spherical_300cm_s20_c20_cd-full_matched_a70.wav","spherical","20","20","full","matched","70","70","2040"
"echo-presentation","97","2848530","0.0-97.0","5ebd676b0ee54a0379a10188","5fef55e628823a0076ec12ee","60201d3d39a8965a4b0e2ff6","Mozilla/5.0 (Windows NT 10.0; Win64; x64) AppleWebKit/537.36 (KHTML, like Gecko) Chrome/88.0.4324.146 Safari/537.36","v1-up-stims","","","","","","","","40,50,60,70,80","media/audio/stims/spherical_300cm_s20_c20_cd-full_matched_a70.wav","spherical","20","20","full","matched","70","70","1453"
"echo-presentation","98","2850653","0.0-98.0","5ebd676b0ee54a0379a10188","5fef55e628823a0076ec12ee","60201d3d39a8965a4b0e2ff6","Mozilla/5.0 (Windows NT 10.0; Win64; x64) AppleWebKit/537.36 (KHTML, like Gecko) Chrome/88.0.4324.146 Safari/537.36","v1-up-stims","","","","","","","","40,50,60,70,80","media/audio/stims/spherical_300cm_s20_c20_cd-full_matched_a80.wav","spherical","20","20","full","matched","80","80","1150"
"echo-presentation","99","2852621","0.0-99.0","5ebd676b0ee54a0379a10188","5fef55e628823a0076ec12ee","60201d3d39a8965a4b0e2ff6","Mozilla/5.0 (Windows NT 10.0; Win64; x64) AppleWebKit/537.36 (KHTML, like Gecko) Chrome/88.0.4324.146 Safari/537.36","v1-up-stims","","","","","","","","40,50,60,70,80","media/audio/stims/spherical_300cm_s20_c20_cd-full_matched_a50.wav","spherical","20","20","full","matched","50","60","1374"
"echo-presentation","100","2855009","0.0-100.0","5ebd676b0ee54a0379a10188","5fef55e628823a0076ec12ee","60201d3d39a8965a4b0e2ff6","Mozilla/5.0 (Windows NT 10.0; Win64; x64) AppleWebKit/537.36 (KHTML, like Gecko) Chrome/88.0.4324.146 Safari/537.36","v1-up-stims","","","","","","","","40,50,60,70,80","media/audio/stims/spherical_300cm_s20_c20_cd-full_matched_a50.wav","spherical","20","20","full","matched","50","40","1620"
"echo-presentation","101","2857474","0.0-101.0","5ebd676b0ee54a0379a10188","5fef55e628823a0076ec12ee","60201d3d39a8965a4b0e2ff6","Mozilla/5.0 (Windows NT 10.0; Win64; x64) AppleWebKit/537.36 (KHTML, like Gecko) Chrome/88.0.4324.146 Safari/537.36","v1-up-stims","","","","","","","","40,50,60,70,80","media/audio/stims/spherical_300cm_s20_c20_cd-full_matched_a60.wav","spherical","20","20","full","matched","60","70","1735"
"echo-presentation","102","2860815","0.0-102.0","5ebd676b0ee54a0379a10188","5fef55e628823a0076ec12ee","60201d3d39a8965a4b0e2ff6","Mozilla/5.0 (Windows NT 10.0; Win64; x64) AppleWebKit/537.36 (KHTML, like Gecko) Chrome/88.0.4324.146 Safari/537.36","v1-up-stims","","","","","","","","40,50,60,70,80","media/audio/stims/spherical_300cm_s20_c20_cd-full_matched_a70.wav","spherical","20","20","full","matched","70","70","2175"
"echo-presentation","103","2864128","0.0-103.0","5ebd676b0ee54a0379a10188","5fef55e628823a0076ec12ee","60201d3d39a8965a4b0e2ff6","Mozilla/5.0 (Windows NT 10.0; Win64; x64) AppleWebKit/537.36 (KHTML, like Gecko) Chrome/88.0.4324.146 Safari/537.36","v1-up-stims","","","","","","","","40,50,60,70,80","media/audio/stims/spherical_300cm_s20_c20_cd-full_matched_a50.wav","spherical","20","20","full","matched","50","50","1672"
"echo-presentation","104","2866778","0.0-104.0","5ebd676b0ee54a0379a10188","5fef55e628823a0076ec12ee","60201d3d39a8965a4b0e2ff6","Mozilla/5.0 (Windows NT 10.0; Win64; x64) AppleWebKit/537.36 (KHTML, like Gecko) Chrome/88.0.4324.146 Safari/537.36","v1-up-stims","","","","","","","","40,50,60,70,80","media/audio/stims/spherical_300cm_s20_c20_cd-full_matched_a80.wav","spherical","20","20","full","matched","80","70","1789"
"echo-presentation","105","2869327","0.0-105.0","5ebd676b0ee54a0379a10188","5fef55e628823a0076ec12ee","60201d3d39a8965a4b0e2ff6","Mozilla/5.0 (Windows NT 10.0; Win64; x64) AppleWebKit/537.36 (KHTML, like Gecko) Chrome/88.0.4324.146 Safari/537.36","v1-up-stims","","","","","","","","40,50,60,70,80","media/audio/stims/spherical_300cm_s20_c20_cd-full_matched_a40.wav","spherical","20","20","full","matched","40","50","1539"
"echo-presentation","106","2871493","0.0-106.0","5ebd676b0ee54a0379a10188","5fef55e628823a0076ec12ee","60201d3d39a8965a4b0e2ff6","Mozilla/5.0 (Windows NT 10.0; Win64; x64) AppleWebKit/537.36 (KHTML, like Gecko) Chrome/88.0.4324.146 Safari/537.36","v1-up-stims","","","","","","","","40,50,60,70,80","media/audio/stims/spherical_300cm_s20_c20_cd-full_matched_a60.wav","spherical","20","20","full","matched","60","70","1372"
"echo-presentation","107","2873959","0.0-107.0","5ebd676b0ee54a0379a10188","5fef55e628823a0076ec12ee","60201d3d39a8965a4b0e2ff6","Mozilla/5.0 (Windows NT 10.0; Win64; x64) AppleWebKit/537.36 (KHTML, like Gecko) Chrome/88.0.4324.146 Safari/537.36","v1-up-stims","","","","","","","","40,50,60,70,80","media/audio/stims/spherical_300cm_s20_c20_cd-full_matched_a40.wav","spherical","20","20","full","matched","40","70","1401"
"echo-presentation","108","2876274","0.0-108.0","5ebd676b0ee54a0379a10188","5fef55e628823a0076ec12ee","60201d3d39a8965a4b0e2ff6","Mozilla/5.0 (Windows NT 10.0; Win64; x64) AppleWebKit/537.36 (KHTML, like Gecko) Chrome/88.0.4324.146 Safari/537.36","v1-up-stims","","","","","","","","40,50,60,70,80","media/audio/stims/spherical_300cm_s20_c20_cd-full_matched_a40.wav","spherical","20","20","full","matched","40","40","1575"
"echo-presentation","109","2878274","0.0-109.0","5ebd676b0ee54a0379a10188","5fef55e628823a0076ec12ee","60201d3d39a8965a4b0e2ff6","Mozilla/5.0 (Windows NT 10.0; Win64; x64) AppleWebKit/537.36 (KHTML, like Gecko) Chrome/88.0.4324.146 Safari/537.36","v1-up-stims","","","","","","","","40,50,60,70,80","media/audio/stims/spherical_300cm_s20_c20_cd-full_matched_a80.wav","spherical","20","20","full","matched","80","70","1197"
"echo-presentation","110","2881571","0.0-110.0","5ebd676b0ee54a0379a10188","5fef55e628823a0076ec12ee","60201d3d39a8965a4b0e2ff6","Mozilla/5.0 (Windows NT 10.0; Win64; x64) AppleWebKit/537.36 (KHTML, like Gecko) Chrome/88.0.4324.146 Safari/537.36","v1-up-stims","","","","","","","","40,50,60,70,80","media/audio/stims/spherical_300cm_s20_c20_cd-full_matched_a60.wav","spherical","20","20","full","matched","60","60","2278"
"echo-presentation","111","2883632","0.0-111.0","5ebd676b0ee54a0379a10188","5fef55e628823a0076ec12ee","60201d3d39a8965a4b0e2ff6","Mozilla/5.0 (Windows NT 10.0; Win64; x64) AppleWebKit/537.36 (KHTML, like Gecko) Chrome/88.0.4324.146 Safari/537.36","v1-up-stims","","","","","","","","40,50,60,70,80","media/audio/stims/spherical_300cm_s20_c20_cd-full_matched_a70.wav","spherical","20","20","full","matched","70","70","1101"
"echo-presentation","112","2885591","0.0-112.0","5ebd676b0ee54a0379a10188","5fef55e628823a0076ec12ee","60201d3d39a8965a4b0e2ff6","Mozilla/5.0 (Windows NT 10.0; Win64; x64) AppleWebKit/537.36 (KHTML, like Gecko) Chrome/88.0.4324.146 Safari/537.36","v1-up-stims","","","","","","","","40,50,60,70,80","media/audio/stims/spherical_300cm_s20_c20_cd-full_matched_a40.wav","spherical","20","20","full","matched","40","60","1332"
"echo-presentation","113","2888058","0.0-113.0","5ebd676b0ee54a0379a10188","5fef55e628823a0076ec12ee","60201d3d39a8965a4b0e2ff6","Mozilla/5.0 (Windows NT 10.0; Win64; x64) AppleWebKit/537.36 (KHTML, like Gecko) Chrome/88.0.4324.146 Safari/537.36","v1-up-stims","","","","","","","","40,50,60,70,80","media/audio/stims/spherical_300cm_s20_c20_cd-full_matched_a50.wav","spherical","20","20","full","matched","50","50","1732"
"echo-presentation","114","2890096","0.0-114.0","5ebd676b0ee54a0379a10188","5fef55e628823a0076ec12ee","60201d3d39a8965a4b0e2ff6","Mozilla/5.0 (Windows NT 10.0; Win64; x64) AppleWebKit/537.36 (KHTML, like Gecko) Chrome/88.0.4324.146 Safari/537.36","v1-up-stims","","","","","","","","40,50,60,70,80","media/audio/stims/spherical_300cm_s20_c20_cd-full_matched_a60.wav","spherical","20","20","full","matched","60","70","1081"
"echo-presentation","115","2892296","0.0-115.0","5ebd676b0ee54a0379a10188","5fef55e628823a0076ec12ee","60201d3d39a8965a4b0e2ff6","Mozilla/5.0 (Windows NT 10.0; Win64; x64) AppleWebKit/537.36 (KHTML, like Gecko) Chrome/88.0.4324.146 Safari/537.36","v1-up-stims","","","","","","","","40,50,60,70,80","media/audio/stims/spherical_300cm_s20_c20_cd-full_matched_a80.wav","spherical","20","20","full","matched","80","80","1018"
"block-bookend","116","2893021","0.0-116.0","5ebd676b0ee54a0379a10188","5fef55e628823a0076ec12ee","60201d3d39a8965a4b0e2ff6","Mozilla/5.0 (Windows NT 10.0; Win64; x64) AppleWebKit/537.36 (KHTML, like Gecko) Chrome/88.0.4324.146 Safari/537.36","v1-up-stims","","","","","","","","","","","","","","","","",""
"block-bookend","117","2897768","0.0-117.0","5ebd676b0ee54a0379a10188","5fef55e628823a0076ec12ee","60201d3d39a8965a4b0e2ff6","Mozilla/5.0 (Windows NT 10.0; Win64; x64) AppleWebKit/537.36 (KHTML, like Gecko) Chrome/88.0.4324.146 Safari/537.36","v1-up-stims","","","","","","","","","","","","","","","","",""
"echo-presentation","118","2900777","0.0-118.0","5ebd676b0ee54a0379a10188","5fef55e628823a0076ec12ee","60201d3d39a8965a4b0e2ff6","Mozilla/5.0 (Windows NT 10.0; Win64; x64) AppleWebKit/537.36 (KHTML, like Gecko) Chrome/88.0.4324.146 Safari/537.36","v1-up-stims","","","","","","","","40,50,60,70,80","media/audio/stims/spherical_300cm_s20_c20_cd-full_matched_a70.wav","spherical","20","20","full","matched","70","70","1450"
"echo-presentation","119","2902832","0.0-119.0","5ebd676b0ee54a0379a10188","5fef55e628823a0076ec12ee","60201d3d39a8965a4b0e2ff6","Mozilla/5.0 (Windows NT 10.0; Win64; x64) AppleWebKit/537.36 (KHTML, like Gecko) Chrome/88.0.4324.146 Safari/537.36","v1-up-stims","","","","","","","","40,50,60,70,80","media/audio/stims/spherical_300cm_s20_c20_cd-full_matched_a60.wav","spherical","20","20","full","matched","60","40","1488"
"echo-presentation","120","2904776","0.0-120.0","5ebd676b0ee54a0379a10188","5fef55e628823a0076ec12ee","60201d3d39a8965a4b0e2ff6","Mozilla/5.0 (Windows NT 10.0; Win64; x64) AppleWebKit/537.36 (KHTML, like Gecko) Chrome/88.0.4324.146 Safari/537.36","v1-up-stims","","","","","","","","40,50,60,70,80","media/audio/stims/spherical_300cm_s20_c20_cd-full_matched_a50.wav","spherical","20","20","full","matched","50","40","1044"
"echo-presentation","121","2906793","0.0-121.0","5ebd676b0ee54a0379a10188","5fef55e628823a0076ec12ee","60201d3d39a8965a4b0e2ff6","Mozilla/5.0 (Windows NT 10.0; Win64; x64) AppleWebKit/537.36 (KHTML, like Gecko) Chrome/88.0.4324.146 Safari/537.36","v1-up-stims","","","","","","","","40,50,60,70,80","media/audio/stims/spherical_300cm_s20_c20_cd-full_matched_a60.wav","spherical","20","20","full","matched","60","70","1278"
"echo-presentation","122","2909180","0.0-122.0","5ebd676b0ee54a0379a10188","5fef55e628823a0076ec12ee","60201d3d39a8965a4b0e2ff6","Mozilla/5.0 (Windows NT 10.0; Win64; x64) AppleWebKit/537.36 (KHTML, like Gecko) Chrome/88.0.4324.146 Safari/537.36","v1-up-stims","","","","","","","","40,50,60,70,80","media/audio/stims/spherical_300cm_s20_c20_cd-full_matched_a40.wav","spherical","20","20","full","matched","40","50","1491"
"echo-presentation","123","2911105","0.0-123.0","5ebd676b0ee54a0379a10188","5fef55e628823a0076ec12ee","60201d3d39a8965a4b0e2ff6","Mozilla/5.0 (Windows NT 10.0; Win64; x64) AppleWebKit/537.36 (KHTML, like Gecko) Chrome/88.0.4324.146 Safari/537.36","v1-up-stims","","","","","","","","40,50,60,70,80","media/audio/stims/spherical_300cm_s20_c20_cd-full_matched_a40.wav","spherical","20","20","full","matched","40","50","1265"
"echo-presentation","124","2913526","0.0-124.0","5ebd676b0ee54a0379a10188","5fef55e628823a0076ec12ee","60201d3d39a8965a4b0e2ff6","Mozilla/5.0 (Windows NT 10.0; Win64; x64) AppleWebKit/537.36 (KHTML, like Gecko) Chrome/88.0.4324.146 Safari/537.36","v1-up-stims","","","","","","","","40,50,60,70,80","media/audio/stims/spherical_300cm_s20_c20_cd-full_matched_a70.wav","spherical","20","20","full","matched","70","70","1410"
"echo-presentation","125","2916052","0.0-125.0","5ebd676b0ee54a0379a10188","5fef55e628823a0076ec12ee","60201d3d39a8965a4b0e2ff6","Mozilla/5.0 (Windows NT 10.0; Win64; x64) AppleWebKit/537.36 (KHTML, like Gecko) Chrome/88.0.4324.146 Safari/537.36","v1-up-stims","","","","","","","","40,50,60,70,80","media/audio/stims/spherical_300cm_s20_c20_cd-full_matched_a50.wav","spherical","20","20","full","matched","50","70","1817"
"echo-presentation","126","2919833","0.0-126.0","5ebd676b0ee54a0379a10188","5fef55e628823a0076ec12ee","60201d3d39a8965a4b0e2ff6","Mozilla/5.0 (Windows NT 10.0; Win64; x64) AppleWebKit/537.36 (KHTML, like Gecko) Chrome/88.0.4324.146 Safari/537.36","v1-up-stims","","","","","","","","40,50,60,70,80","media/audio/stims/spherical_300cm_s20_c20_cd-full_matched_a50.wav","spherical","20","20","full","matched","50","60","3015"
"echo-presentation","127","2921892","0.0-127.0","5ebd676b0ee54a0379a10188","5fef55e628823a0076ec12ee","60201d3d39a8965a4b0e2ff6","Mozilla/5.0 (Windows NT 10.0; Win64; x64) AppleWebKit/537.36 (KHTML, like Gecko) Chrome/88.0.4324.146 Safari/537.36","v1-up-stims","","","","","","","","40,50,60,70,80","media/audio/stims/spherical_300cm_s20_c20_cd-full_matched_a80.wav","spherical","20","20","full","matched","80","80","1198"
"echo-presentation","128","2923736","0.0-128.0","5ebd676b0ee54a0379a10188","5fef55e628823a0076ec12ee","60201d3d39a8965a4b0e2ff6","Mozilla/5.0 (Windows NT 10.0; Win64; x64) AppleWebKit/537.36 (KHTML, like Gecko) Chrome/88.0.4324.146 Safari/537.36","v1-up-stims","","","","","","","","40,50,60,70,80","media/audio/stims/spherical_300cm_s20_c20_cd-full_matched_a70.wav","spherical","20","20","full","matched","70","80","1067"
"echo-presentation","129","2925630","0.0-129.0","5ebd676b0ee54a0379a10188","5fef55e628823a0076ec12ee","60201d3d39a8965a4b0e2ff6","Mozilla/5.0 (Windows NT 10.0; Win64; x64) AppleWebKit/537.36 (KHTML, like Gecko) Chrome/88.0.4324.146 Safari/537.36","v1-up-stims","","","","","","","","40,50,60,70,80","media/audio/stims/spherical_300cm_s20_c20_cd-full_matched_a80.wav","spherical","20","20","full","matched","80","80","1207"
"echo-presentation","130","2927613","0.0-130.0","5ebd676b0ee54a0379a10188","5fef55e628823a0076ec12ee","60201d3d39a8965a4b0e2ff6","Mozilla/5.0 (Windows NT 10.0; Win64; x64) AppleWebKit/537.36 (KHTML, like Gecko) Chrome/88.0.4324.146 Safari/537.36","v1-up-stims","","","","","","","","40,50,60,70,80","media/audio/stims/spherical_300cm_s20_c20_cd-full_matched_a40.wav","spherical","20","20","full","matched","40","40","1315"
"echo-presentation","131","2930086","0.0-131.0","5ebd676b0ee54a0379a10188","5fef55e628823a0076ec12ee","60201d3d39a8965a4b0e2ff6","Mozilla/5.0 (Windows NT 10.0; Win64; x64) AppleWebKit/537.36 (KHTML, like Gecko) Chrome/88.0.4324.146 Safari/537.36","v1-up-stims","","","","","","","","40,50,60,70,80","media/audio/stims/spherical_300cm_s20_c20_cd-full_matched_a70.wav","spherical","20","20","full","matched","70","80","1294"
"echo-presentation","132","2932218","0.0-132.0","5ebd676b0ee54a0379a10188","5fef55e628823a0076ec12ee","60201d3d39a8965a4b0e2ff6","Mozilla/5.0 (Windows NT 10.0; Win64; x64) AppleWebKit/537.36 (KHTML, like Gecko) Chrome/88.0.4324.146 Safari/537.36","v1-up-stims","","","","","","","","40,50,60,70,80","media/audio/stims/spherical_300cm_s20_c20_cd-full_matched_a80.wav","spherical","20","20","full","matched","80","70","1181"
"echo-presentation","133","2934359","0.0-133.0","5ebd676b0ee54a0379a10188","5fef55e628823a0076ec12ee","60201d3d39a8965a4b0e2ff6","Mozilla/5.0 (Windows NT 10.0; Win64; x64) AppleWebKit/537.36 (KHTML, like Gecko) Chrome/88.0.4324.146 Safari/537.36","v1-up-stims","","","","","","","","40,50,60,70,80","media/audio/stims/spherical_300cm_s20_c20_cd-full_matched_a50.wav","spherical","20","20","full","matched","50","40","1399"
"echo-presentation","134","2936676","0.0-134.0","5ebd676b0ee54a0379a10188","5fef55e628823a0076ec12ee","60201d3d39a8965a4b0e2ff6","Mozilla/5.0 (Windows NT 10.0; Win64; x64) AppleWebKit/537.36 (KHTML, like Gecko) Chrome/88.0.4324.146 Safari/537.36","v1-up-stims","","","","","","","","40,50,60,70,80","media/audio/stims/spherical_300cm_s20_c20_cd-full_matched_a60.wav","spherical","20","20","full","matched","60","50","1462"
"echo-presentation","135","2938652","0.0-135.0","5ebd676b0ee54a0379a10188","5fef55e628823a0076ec12ee","60201d3d39a8965a4b0e2ff6","Mozilla/5.0 (Windows NT 10.0; Win64; x64) AppleWebKit/537.36 (KHTML, like Gecko) Chrome/88.0.4324.146 Safari/537.36","v1-up-stims","","","","","","","","40,50,60,70,80","media/audio/stims/spherical_300cm_s20_c20_cd-full_matched_a40.wav","spherical","20","20","full","matched","40","40","1100"
"echo-presentation","136","2940452","0.0-136.0","5ebd676b0ee54a0379a10188","5fef55e628823a0076ec12ee","60201d3d39a8965a4b0e2ff6","Mozilla/5.0 (Windows NT 10.0; Win64; x64) AppleWebKit/537.36 (KHTML, like Gecko) Chrome/88.0.4324.146 Safari/537.36","v1-up-stims","","","","","","","","40,50,60,70,80","media/audio/stims/spherical_300cm_s20_c20_cd-full_matched_a60.wav","spherical","20","20","full","matched","60","50","1016"
"echo-presentation","137","2942451","0.0-137.0","5ebd676b0ee54a0379a10188","5fef55e628823a0076ec12ee","60201d3d39a8965a4b0e2ff6","Mozilla/5.0 (Windows NT 10.0; Win64; x64) AppleWebKit/537.36 (KHTML, like Gecko) Chrome/88.0.4324.146 Safari/537.36","v1-up-stims","","","","","","","","40,50,60,70,80","media/audio/stims/spherical_300cm_s20_c20_cd-full_matched_a80.wav","spherical","20","20","full","matched","80","70","1286"
"block-bookend","138","2943657","0.0-138.0","5ebd676b0ee54a0379a10188","5fef55e628823a0076ec12ee","60201d3d39a8965a4b0e2ff6","Mozilla/5.0 (Windows NT 10.0; Win64; x64) AppleWebKit/537.36 (KHTML, like Gecko) Chrome/88.0.4324.146 Safari/537.36","v1-up-stims","","","","","","","","","","","","","","","","",""
