"trial_type","trial_index","time_elapsed","internal_node_id","prolificPid","studyId","sessionId","userAgent","version","rt","stimulus","key_press","chosenKeyset","failureCount","testIndex","globalVolume","choices","filename","modelName","slowdown","compensation","compensationDescriptor","receiverOrientationType","azimuth","responseAzimuth","responseDelay"
"pavlovia","0","2","0.0-0.0","5f3f0a2bbc64cf1fe881c7ba","5fef55e628823a0076ec12ee","601f4475a5824c47ab598584","Mozilla/5.0 (Windows NT 10.0; Win64; x64) AppleWebKit/537.36 (KHTML, like Gecko) Chrome/88.0.4324.146 Safari/537.36","v1","","","","","","","","","","","","","","","","",""
"html-keyboard-response","1","4594","0.0-1.0","5f3f0a2bbc64cf1fe881c7ba","5fef55e628823a0076ec12ee","601f4475a5824c47ab598584","Mozilla/5.0 (Windows NT 10.0; Win64; x64) AppleWebKit/537.36 (KHTML, like Gecko) Chrome/88.0.4324.146 Safari/537.36","v1","4591.394999995828","<div><h1>Welcome!</h1><p>Press any key to continue.</p></div>","40","","","","","","","","","","","","","",""
"consent-form","2","58550","0.0-2.0","5f3f0a2bbc64cf1fe881c7ba","5fef55e628823a0076ec12ee","601f4475a5824c47ab598584","Mozilla/5.0 (Windows NT 10.0; Win64; x64) AppleWebKit/537.36 (KHTML, like Gecko) Chrome/88.0.4324.146 Safari/537.36","v1","","","","","","","","","","","","","","","","",""
"keyset-select","3","96980","0.0-3.0","5f3f0a2bbc64cf1fe881c7ba","5fef55e628823a0076ec12ee","601f4475a5824c47ab598584","Mozilla/5.0 (Windows NT 10.0; Win64; x64) AppleWebKit/537.36 (KHTML, like Gecko) Chrome/88.0.4324.146 Safari/537.36","v1","","","","left-hand","","","","","","","","","","","","",""
"headphone-check","4","171381","0.0-4.0","5f3f0a2bbc64cf1fe881c7ba","5fef55e628823a0076ec12ee","601f4475a5824c47ab598584","Mozilla/5.0 (Windows NT 10.0; Win64; x64) AppleWebKit/537.36 (KHTML, like Gecko) Chrome/88.0.4324.146 Safari/537.36","v1","","","","","0","6","0.3","","","","","","","","","",""
"headphone-backwards-check","5","178630","0.0-5.0","5f3f0a2bbc64cf1fe881c7ba","5fef55e628823a0076ec12ee","601f4475a5824c47ab598584","Mozilla/5.0 (Windows NT 10.0; Win64; x64) AppleWebKit/537.36 (KHTML, like Gecko) Chrome/88.0.4324.146 Safari/537.36","v1","","","","","0","","","","","","","","","","","",""
"training","6","268905","0.0-6.0","5f3f0a2bbc64cf1fe881c7ba","5fef55e628823a0076ec12ee","601f4475a5824c47ab598584","Mozilla/5.0 (Windows NT 10.0; Win64; x64) AppleWebKit/537.36 (KHTML, like Gecko) Chrome/88.0.4324.146 Safari/537.36","v1","","","","","","","","","","","","","","","","",""
"block-bookend","7","286616","0.0-7.0","5f3f0a2bbc64cf1fe881c7ba","5fef55e628823a0076ec12ee","601f4475a5824c47ab598584","Mozilla/5.0 (Windows NT 10.0; Win64; x64) AppleWebKit/537.36 (KHTML, like Gecko) Chrome/88.0.4324.146 Safari/537.36","v1","","","","","","","","","","","","","","","","",""
"echo-presentation","8","298613","0.0-8.0","5f3f0a2bbc64cf1fe881c7ba","5fef55e628823a0076ec12ee","601f4475a5824c47ab598584","Mozilla/5.0 (Windows NT 10.0; Win64; x64) AppleWebKit/537.36 (KHTML, like Gecko) Chrome/88.0.4324.146 Safari/537.36","v1","","","","","","","","-20,-10,0,10,20","media/audio/stims/spherical_300cm_s20_c20_cd-full_matched_a10.wav","spherical","20","20","full","matched","10","20","9310"
"echo-presentation","9","304326","0.0-9.0","5f3f0a2bbc64cf1fe881c7ba","5fef55e628823a0076ec12ee","601f4475a5824c47ab598584","Mozilla/5.0 (Windows NT 10.0; Win64; x64) AppleWebKit/537.36 (KHTML, like Gecko) Chrome/88.0.4324.146 Safari/537.36","v1","","","","","","","","-20,-10,0,10,20","media/audio/stims/spherical_300cm_s20_c20_cd-full_matched_a10.wav","spherical","20","20","full","matched","10","20","3103"
"echo-presentation","10","311257","0.0-10.0","5f3f0a2bbc64cf1fe881c7ba","5fef55e628823a0076ec12ee","601f4475a5824c47ab598584","Mozilla/5.0 (Windows NT 10.0; Win64; x64) AppleWebKit/537.36 (KHTML, like Gecko) Chrome/88.0.4324.146 Safari/537.36","v1","","","","","","","","-20,-10,0,10,20","media/audio/stims/spherical_300cm_s20_c20_cd-full_matched_a-10.wav","spherical","20","20","full","matched","-10","-10","4822"
"echo-presentation","11","315599","0.0-11.0","5f3f0a2bbc64cf1fe881c7ba","5fef55e628823a0076ec12ee","601f4475a5824c47ab598584","Mozilla/5.0 (Windows NT 10.0; Win64; x64) AppleWebKit/537.36 (KHTML, like Gecko) Chrome/88.0.4324.146 Safari/537.36","v1","","","","","","","","-20,-10,0,10,20","media/audio/stims/spherical_300cm_s20_c20_cd-full_matched_a-20.wav","spherical","20","20","full","matched","-20","-20","1662"
"echo-presentation","12","324328","0.0-12.0","5f3f0a2bbc64cf1fe881c7ba","5fef55e628823a0076ec12ee","601f4475a5824c47ab598584","Mozilla/5.0 (Windows NT 10.0; Win64; x64) AppleWebKit/537.36 (KHTML, like Gecko) Chrome/88.0.4324.146 Safari/537.36","v1","","","","","","","","-20,-10,0,10,20","media/audio/stims/spherical_300cm_s20_c20_cd-full_matched_a10.wav","spherical","20","20","full","matched","10","-10","5575"
"echo-presentation","13","332316","0.0-13.0","5f3f0a2bbc64cf1fe881c7ba","5fef55e628823a0076ec12ee","601f4475a5824c47ab598584","Mozilla/5.0 (Windows NT 10.0; Win64; x64) AppleWebKit/537.36 (KHTML, like Gecko) Chrome/88.0.4324.146 Safari/537.36","v1","","","","","","","","-20,-10,0,10,20","media/audio/stims/spherical_300cm_s20_c20_cd-full_matched_a0.wav","spherical","20","20","full","matched","0","-20","5191"
"echo-presentation","14","338855","0.0-14.0","5f3f0a2bbc64cf1fe881c7ba","5fef55e628823a0076ec12ee","601f4475a5824c47ab598584","Mozilla/5.0 (Windows NT 10.0; Win64; x64) AppleWebKit/537.36 (KHTML, like Gecko) Chrome/88.0.4324.146 Safari/537.36","v1","","","","","","","","-20,-10,0,10,20","media/audio/stims/spherical_300cm_s20_c20_cd-full_matched_a10.wav","spherical","20","20","full","matched","10","0","4975"
"echo-presentation","15","343481","0.0-15.0","5f3f0a2bbc64cf1fe881c7ba","5fef55e628823a0076ec12ee","601f4475a5824c47ab598584","Mozilla/5.0 (Windows NT 10.0; Win64; x64) AppleWebKit/537.36 (KHTML, like Gecko) Chrome/88.0.4324.146 Safari/537.36","v1","","","","","","","","-20,-10,0,10,20","media/audio/stims/spherical_300cm_s20_c20_cd-full_matched_a20.wav","spherical","20","20","full","matched","20","10","3102"
"echo-presentation","16","347320","0.0-16.0","5f3f0a2bbc64cf1fe881c7ba","5fef55e628823a0076ec12ee","601f4475a5824c47ab598584","Mozilla/5.0 (Windows NT 10.0; Win64; x64) AppleWebKit/537.36 (KHTML, like Gecko) Chrome/88.0.4324.146 Safari/537.36","v1","","","","","","","","-20,-10,0,10,20","media/audio/stims/spherical_300cm_s20_c20_cd-full_matched_a-20.wav","spherical","20","20","full","matched","-20","-20","1991"
"echo-presentation","17","350780","0.0-17.0","5f3f0a2bbc64cf1fe881c7ba","5fef55e628823a0076ec12ee","601f4475a5824c47ab598584","Mozilla/5.0 (Windows NT 10.0; Win64; x64) AppleWebKit/537.36 (KHTML, like Gecko) Chrome/88.0.4324.146 Safari/537.36","v1","","","","","","","","-20,-10,0,10,20","media/audio/stims/spherical_300cm_s20_c20_cd-full_matched_a-10.wav","spherical","20","20","full","matched","-10","-10","2160"
"echo-presentation","18","353904","0.0-18.0","5f3f0a2bbc64cf1fe881c7ba","5fef55e628823a0076ec12ee","601f4475a5824c47ab598584","Mozilla/5.0 (Windows NT 10.0; Win64; x64) AppleWebKit/537.36 (KHTML, like Gecko) Chrome/88.0.4324.146 Safari/537.36","v1","","","","","","","","-20,-10,0,10,20","media/audio/stims/spherical_300cm_s20_c20_cd-full_matched_a-20.wav","spherical","20","20","full","matched","-20","-20","1591"
"echo-presentation","19","357107","0.0-19.0","5f3f0a2bbc64cf1fe881c7ba","5fef55e628823a0076ec12ee","601f4475a5824c47ab598584","Mozilla/5.0 (Windows NT 10.0; Win64; x64) AppleWebKit/537.36 (KHTML, like Gecko) Chrome/88.0.4324.146 Safari/537.36","v1","","","","","","","","-20,-10,0,10,20","media/audio/stims/spherical_300cm_s20_c20_cd-full_matched_a-20.wav","spherical","20","20","full","matched","-20","-20","1727"
"echo-presentation","20","361917","0.0-20.0","5f3f0a2bbc64cf1fe881c7ba","5fef55e628823a0076ec12ee","601f4475a5824c47ab598584","Mozilla/5.0 (Windows NT 10.0; Win64; x64) AppleWebKit/537.36 (KHTML, like Gecko) Chrome/88.0.4324.146 Safari/537.36","v1","","","","","","","","-20,-10,0,10,20","media/audio/stims/spherical_300cm_s20_c20_cd-full_matched_a0.wav","spherical","20","20","full","matched","0","-20","3070"
"echo-presentation","21","366279","0.0-21.0","5f3f0a2bbc64cf1fe881c7ba","5fef55e628823a0076ec12ee","601f4475a5824c47ab598584","Mozilla/5.0 (Windows NT 10.0; Win64; x64) AppleWebKit/537.36 (KHTML, like Gecko) Chrome/88.0.4324.146 Safari/537.36","v1","","","","","","","","-20,-10,0,10,20","media/audio/stims/spherical_300cm_s20_c20_cd-full_matched_a-10.wav","spherical","20","20","full","matched","-10","-10","2855"
"echo-presentation","22","373379","0.0-22.0","5f3f0a2bbc64cf1fe881c7ba","5fef55e628823a0076ec12ee","601f4475a5824c47ab598584","Mozilla/5.0 (Windows NT 10.0; Win64; x64) AppleWebKit/537.36 (KHTML, like Gecko) Chrome/88.0.4324.146 Safari/537.36","v1","","","","","","","","-20,-10,0,10,20","media/audio/stims/spherical_300cm_s20_c20_cd-full_matched_a-10.wav","spherical","20","20","full","matched","-10","-10","4919"
"echo-presentation","23","377608","0.0-23.0","5f3f0a2bbc64cf1fe881c7ba","5fef55e628823a0076ec12ee","601f4475a5824c47ab598584","Mozilla/5.0 (Windows NT 10.0; Win64; x64) AppleWebKit/537.36 (KHTML, like Gecko) Chrome/88.0.4324.146 Safari/537.36","v1","","","","","","","","-20,-10,0,10,20","media/audio/stims/spherical_300cm_s20_c20_cd-full_matched_a0.wav","spherical","20","20","full","matched","0","-20","2086"
"echo-presentation","24","384796","0.0-24.0","5f3f0a2bbc64cf1fe881c7ba","5fef55e628823a0076ec12ee","601f4475a5824c47ab598584","Mozilla/5.0 (Windows NT 10.0; Win64; x64) AppleWebKit/537.36 (KHTML, like Gecko) Chrome/88.0.4324.146 Safari/537.36","v1","","","","","","","","-20,-10,0,10,20","media/audio/stims/spherical_300cm_s20_c20_cd-full_matched_a20.wav","spherical","20","20","full","matched","20","10","5127"
"echo-presentation","25","388845","0.0-25.0","5f3f0a2bbc64cf1fe881c7ba","5fef55e628823a0076ec12ee","601f4475a5824c47ab598584","Mozilla/5.0 (Windows NT 10.0; Win64; x64) AppleWebKit/537.36 (KHTML, like Gecko) Chrome/88.0.4324.146 Safari/537.36","v1","","","","","","","","-20,-10,0,10,20","media/audio/stims/spherical_300cm_s20_c20_cd-full_matched_a20.wav","spherical","20","20","full","matched","20","10","2527"
"echo-presentation","26","395866","0.0-26.0","5f3f0a2bbc64cf1fe881c7ba","5fef55e628823a0076ec12ee","601f4475a5824c47ab598584","Mozilla/5.0 (Windows NT 10.0; Win64; x64) AppleWebKit/537.36 (KHTML, like Gecko) Chrome/88.0.4324.146 Safari/537.36","v1","","","","","","","","-20,-10,0,10,20","media/audio/stims/spherical_300cm_s20_c20_cd-full_matched_a0.wav","spherical","20","20","full","matched","0","0","3222"
"echo-presentation","27","400354","0.0-27.0","5f3f0a2bbc64cf1fe881c7ba","5fef55e628823a0076ec12ee","601f4475a5824c47ab598584","Mozilla/5.0 (Windows NT 10.0; Win64; x64) AppleWebKit/537.36 (KHTML, like Gecko) Chrome/88.0.4324.146 Safari/537.36","v1","","","","","","","","-20,-10,0,10,20","media/audio/stims/spherical_300cm_s20_c20_cd-full_matched_a20.wav","spherical","20","20","full","matched","20","10","1526"
"block-bookend","28","404541","0.0-28.0","5f3f0a2bbc64cf1fe881c7ba","5fef55e628823a0076ec12ee","601f4475a5824c47ab598584","Mozilla/5.0 (Windows NT 10.0; Win64; x64) AppleWebKit/537.36 (KHTML, like Gecko) Chrome/88.0.4324.146 Safari/537.36","v1","","","","","","","","","","","","","","","","",""
"block-bookend","29","416453","0.0-29.0","5f3f0a2bbc64cf1fe881c7ba","5fef55e628823a0076ec12ee","601f4475a5824c47ab598584","Mozilla/5.0 (Windows NT 10.0; Win64; x64) AppleWebKit/537.36 (KHTML, like Gecko) Chrome/88.0.4324.146 Safari/537.36","v1","","","","","","","","","","","","","","","","",""
"echo-presentation","30","422711","0.0-30.0","5f3f0a2bbc64cf1fe881c7ba","5fef55e628823a0076ec12ee","601f4475a5824c47ab598584","Mozilla/5.0 (Windows NT 10.0; Win64; x64) AppleWebKit/537.36 (KHTML, like Gecko) Chrome/88.0.4324.146 Safari/537.36","v1","","","","","","","","-20,-10,0,10,20","media/audio/stims/spherical_300cm_s20_c20_cd-full_matched_a0.wav","spherical","20","20","full","matched","0","0","3942"
"echo-presentation","31","426907","0.0-31.0","5f3f0a2bbc64cf1fe881c7ba","5fef55e628823a0076ec12ee","601f4475a5824c47ab598584","Mozilla/5.0 (Windows NT 10.0; Win64; x64) AppleWebKit/537.36 (KHTML, like Gecko) Chrome/88.0.4324.146 Safari/537.36","v1","","","","","","","","-20,-10,0,10,20","media/audio/stims/spherical_300cm_s20_c20_cd-full_matched_a-10.wav","spherical","20","20","full","matched","-10","-20","1623"
"echo-presentation","32","429690","0.0-32.0","5f3f0a2bbc64cf1fe881c7ba","5fef55e628823a0076ec12ee","601f4475a5824c47ab598584","Mozilla/5.0 (Windows NT 10.0; Win64; x64) AppleWebKit/537.36 (KHTML, like Gecko) Chrome/88.0.4324.146 Safari/537.36","v1","","","","","","","","-20,-10,0,10,20","media/audio/stims/spherical_300cm_s20_c20_cd-full_matched_a0.wav","spherical","20","20","full","matched","0","-10","1631"
"echo-presentation","33","432152","0.0-33.0","5f3f0a2bbc64cf1fe881c7ba","5fef55e628823a0076ec12ee","601f4475a5824c47ab598584","Mozilla/5.0 (Windows NT 10.0; Win64; x64) AppleWebKit/537.36 (KHTML, like Gecko) Chrome/88.0.4324.146 Safari/537.36","v1","","","","","","","","-20,-10,0,10,20","media/audio/stims/spherical_300cm_s20_c20_cd-full_matched_a-10.wav","spherical","20","20","full","matched","-10","-20","1214"
"echo-presentation","34","436752","0.0-34.0","5f3f0a2bbc64cf1fe881c7ba","5fef55e628823a0076ec12ee","601f4475a5824c47ab598584","Mozilla/5.0 (Windows NT 10.0; Win64; x64) AppleWebKit/537.36 (KHTML, like Gecko) Chrome/88.0.4324.146 Safari/537.36","v1","","","","","","","","-20,-10,0,10,20","media/audio/stims/spherical_300cm_s20_c20_cd-full_matched_a20.wav","spherical","20","20","full","matched","20","-10","3286"
"echo-presentation","35","438703","0.0-35.0","5f3f0a2bbc64cf1fe881c7ba","5fef55e628823a0076ec12ee","601f4475a5824c47ab598584","Mozilla/5.0 (Windows NT 10.0; Win64; x64) AppleWebKit/537.36 (KHTML, like Gecko) Chrome/88.0.4324.146 Safari/537.36","v1","","","","","","","","-20,-10,0,10,20","media/audio/stims/spherical_300cm_s20_c20_cd-full_matched_a-20.wav","spherical","20","20","full","matched","-20","-20","1063"
"echo-presentation","36","441147","0.0-36.0","5f3f0a2bbc64cf1fe881c7ba","5fef55e628823a0076ec12ee","601f4475a5824c47ab598584","Mozilla/5.0 (Windows NT 10.0; Win64; x64) AppleWebKit/537.36 (KHTML, like Gecko) Chrome/88.0.4324.146 Safari/537.36","v1","","","","","","","","-20,-10,0,10,20","media/audio/stims/spherical_300cm_s20_c20_cd-full_matched_a-10.wav","spherical","20","20","full","matched","-10","-20","1103"
"echo-presentation","37","443638","0.0-37.0","5f3f0a2bbc64cf1fe881c7ba","5fef55e628823a0076ec12ee","601f4475a5824c47ab598584","Mozilla/5.0 (Windows NT 10.0; Win64; x64) AppleWebKit/537.36 (KHTML, like Gecko) Chrome/88.0.4324.146 Safari/537.36","v1","","","","","","","","-20,-10,0,10,20","media/audio/stims/spherical_300cm_s20_c20_cd-full_matched_a-10.wav","spherical","20","20","full","matched","-10","-20","1311"
"echo-presentation","38","446236","0.0-38.0","5f3f0a2bbc64cf1fe881c7ba","5fef55e628823a0076ec12ee","601f4475a5824c47ab598584","Mozilla/5.0 (Windows NT 10.0; Win64; x64) AppleWebKit/537.36 (KHTML, like Gecko) Chrome/88.0.4324.146 Safari/537.36","v1","","","","","","","","-20,-10,0,10,20","media/audio/stims/spherical_300cm_s20_c20_cd-full_matched_a0.wav","spherical","20","20","full","matched","0","-10","1478"
"echo-presentation","39","448710","0.0-39.0","5f3f0a2bbc64cf1fe881c7ba","5fef55e628823a0076ec12ee","601f4475a5824c47ab598584","Mozilla/5.0 (Windows NT 10.0; Win64; x64) AppleWebKit/537.36 (KHTML, like Gecko) Chrome/88.0.4324.146 Safari/537.36","v1","","","","","","","","-20,-10,0,10,20","media/audio/stims/spherical_300cm_s20_c20_cd-full_matched_a-20.wav","spherical","20","20","full","matched","-20","-20","1399"
"echo-presentation","40","451570","0.0-40.0","5f3f0a2bbc64cf1fe881c7ba","5fef55e628823a0076ec12ee","601f4475a5824c47ab598584","Mozilla/5.0 (Windows NT 10.0; Win64; x64) AppleWebKit/537.36 (KHTML, like Gecko) Chrome/88.0.4324.146 Safari/537.36","v1","","","","","","","","-20,-10,0,10,20","media/audio/stims/spherical_300cm_s20_c20_cd-full_matched_a10.wav","spherical","20","20","full","matched","10","0","1750"
"echo-presentation","41","454291","0.0-41.0","5f3f0a2bbc64cf1fe881c7ba","5fef55e628823a0076ec12ee","601f4475a5824c47ab598584","Mozilla/5.0 (Windows NT 10.0; Win64; x64) AppleWebKit/537.36 (KHTML, like Gecko) Chrome/88.0.4324.146 Safari/537.36","v1","","","","","","","","-20,-10,0,10,20","media/audio/stims/spherical_300cm_s20_c20_cd-full_matched_a-20.wav","spherical","20","20","full","matched","-20","-20","1735"
"echo-presentation","42","457463","0.0-42.0","5f3f0a2bbc64cf1fe881c7ba","5fef55e628823a0076ec12ee","601f4475a5824c47ab598584","Mozilla/5.0 (Windows NT 10.0; Win64; x64) AppleWebKit/537.36 (KHTML, like Gecko) Chrome/88.0.4324.146 Safari/537.36","v1","","","","","","","","-20,-10,0,10,20","media/audio/stims/spherical_300cm_s20_c20_cd-full_matched_a10.wav","spherical","20","20","full","matched","10","0","2335"
"echo-presentation","43","460159","0.0-43.0","5f3f0a2bbc64cf1fe881c7ba","5fef55e628823a0076ec12ee","601f4475a5824c47ab598584","Mozilla/5.0 (Windows NT 10.0; Win64; x64) AppleWebKit/537.36 (KHTML, like Gecko) Chrome/88.0.4324.146 Safari/537.36","v1","","","","","","","","-20,-10,0,10,20","media/audio/stims/spherical_300cm_s20_c20_cd-full_matched_a10.wav","spherical","20","20","full","matched","10","-10","1639"
"echo-presentation","44","462597","0.0-44.0","5f3f0a2bbc64cf1fe881c7ba","5fef55e628823a0076ec12ee","601f4475a5824c47ab598584","Mozilla/5.0 (Windows NT 10.0; Win64; x64) AppleWebKit/537.36 (KHTML, like Gecko) Chrome/88.0.4324.146 Safari/537.36","v1","","","","","","","","-20,-10,0,10,20","media/audio/stims/spherical_300cm_s20_c20_cd-full_matched_a-20.wav","spherical","20","20","full","matched","-20","-20","1399"
"echo-presentation","45","465685","0.0-45.0","5f3f0a2bbc64cf1fe881c7ba","5fef55e628823a0076ec12ee","601f4475a5824c47ab598584","Mozilla/5.0 (Windows NT 10.0; Win64; x64) AppleWebKit/537.36 (KHTML, like Gecko) Chrome/88.0.4324.146 Safari/537.36","v1","","","","","","","","-20,-10,0,10,20","media/audio/stims/spherical_300cm_s20_c20_cd-full_matched_a10.wav","spherical","20","20","full","matched","10","0","1679"
"echo-presentation","46","471011","0.0-46.0","5f3f0a2bbc64cf1fe881c7ba","5fef55e628823a0076ec12ee","601f4475a5824c47ab598584","Mozilla/5.0 (Windows NT 10.0; Win64; x64) AppleWebKit/537.36 (KHTML, like Gecko) Chrome/88.0.4324.146 Safari/537.36","v1","","","","","","","","-20,-10,0,10,20","media/audio/stims/spherical_300cm_s20_c20_cd-full_matched_a0.wav","spherical","20","20","full","matched","0","10","3566"
"echo-presentation","47","475485","0.0-47.0","5f3f0a2bbc64cf1fe881c7ba","5fef55e628823a0076ec12ee","601f4475a5824c47ab598584","Mozilla/5.0 (Windows NT 10.0; Win64; x64) AppleWebKit/537.36 (KHTML, like Gecko) Chrome/88.0.4324.146 Safari/537.36","v1","","","","","","","","-20,-10,0,10,20","media/audio/stims/spherical_300cm_s20_c20_cd-full_matched_a20.wav","spherical","20","20","full","matched","20","10","2943"
"echo-presentation","48","478107","0.0-48.0","5f3f0a2bbc64cf1fe881c7ba","5fef55e628823a0076ec12ee","601f4475a5824c47ab598584","Mozilla/5.0 (Windows NT 10.0; Win64; x64) AppleWebKit/537.36 (KHTML, like Gecko) Chrome/88.0.4324.146 Safari/537.36","v1","","","","","","","","-20,-10,0,10,20","media/audio/stims/spherical_300cm_s20_c20_cd-full_matched_a20.wav","spherical","20","20","full","matched","20","20","1719"
"echo-presentation","49","480340","0.0-49.0","5f3f0a2bbc64cf1fe881c7ba","5fef55e628823a0076ec12ee","601f4475a5824c47ab598584","Mozilla/5.0 (Windows NT 10.0; Win64; x64) AppleWebKit/537.36 (KHTML, like Gecko) Chrome/88.0.4324.146 Safari/537.36","v1","","","","","","","","-20,-10,0,10,20","media/audio/stims/spherical_300cm_s20_c20_cd-full_matched_a20.wav","spherical","20","20","full","matched","20","10","1390"
"block-bookend","50","481683","0.0-50.0","5f3f0a2bbc64cf1fe881c7ba","5fef55e628823a0076ec12ee","601f4475a5824c47ab598584","Mozilla/5.0 (Windows NT 10.0; Win64; x64) AppleWebKit/537.36 (KHTML, like Gecko) Chrome/88.0.4324.146 Safari/537.36","v1","","","","","","","","","","","","","","","","",""
"block-bookend","51","500883","0.0-51.0","5f3f0a2bbc64cf1fe881c7ba","5fef55e628823a0076ec12ee","601f4475a5824c47ab598584","Mozilla/5.0 (Windows NT 10.0; Win64; x64) AppleWebKit/537.36 (KHTML, like Gecko) Chrome/88.0.4324.146 Safari/537.36","v1","","","","","","","","","","","","","","","","",""
"echo-presentation","52","509822","0.0-52.0","5f3f0a2bbc64cf1fe881c7ba","5fef55e628823a0076ec12ee","601f4475a5824c47ab598584","Mozilla/5.0 (Windows NT 10.0; Win64; x64) AppleWebKit/537.36 (KHTML, like Gecko) Chrome/88.0.4324.146 Safari/537.36","v1","","","","","","","","40,50,60,70,80","media/audio/stims/spherical_300cm_s20_c20_cd-full_matched_a60.wav","spherical","20","20","full","matched","60","80","5022"
"echo-presentation","53","513884","0.0-53.0","5f3f0a2bbc64cf1fe881c7ba","5fef55e628823a0076ec12ee","601f4475a5824c47ab598584","Mozilla/5.0 (Windows NT 10.0; Win64; x64) AppleWebKit/537.36 (KHTML, like Gecko) Chrome/88.0.4324.146 Safari/537.36","v1","","","","","","","","40,50,60,70,80","media/audio/stims/spherical_300cm_s20_c20_cd-full_matched_a40.wav","spherical","20","20","full","matched","40","70","1655"
"echo-presentation","54","522738","0.0-54.0","5f3f0a2bbc64cf1fe881c7ba","5fef55e628823a0076ec12ee","601f4475a5824c47ab598584","Mozilla/5.0 (Windows NT 10.0; Win64; x64) AppleWebKit/537.36 (KHTML, like Gecko) Chrome/88.0.4324.146 Safari/537.36","v1","","","","","","","","40,50,60,70,80","media/audio/stims/spherical_300cm_s20_c20_cd-full_matched_a50.wav","spherical","20","20","full","matched","50","60","4287"
"echo-presentation","55","527604","0.0-55.0","5f3f0a2bbc64cf1fe881c7ba","5fef55e628823a0076ec12ee","601f4475a5824c47ab598584","Mozilla/5.0 (Windows NT 10.0; Win64; x64) AppleWebKit/537.36 (KHTML, like Gecko) Chrome/88.0.4324.146 Safari/537.36","v1","","","","","","","","40,50,60,70,80","media/audio/stims/spherical_300cm_s20_c20_cd-full_matched_a80.wav","spherical","20","20","full","matched","80","70","3143"
"echo-presentation","56","536156","0.0-56.0","5f3f0a2bbc64cf1fe881c7ba","5fef55e628823a0076ec12ee","601f4475a5824c47ab598584","Mozilla/5.0 (Windows NT 10.0; Win64; x64) AppleWebKit/537.36 (KHTML, like Gecko) Chrome/88.0.4324.146 Safari/537.36","v1","","","","","","","","40,50,60,70,80","media/audio/stims/spherical_300cm_s20_c20_cd-full_matched_a80.wav","spherical","20","20","full","matched","80","80","6743"
"echo-presentation","57","541284","0.0-57.0","5f3f0a2bbc64cf1fe881c7ba","5fef55e628823a0076ec12ee","601f4475a5824c47ab598584","Mozilla/5.0 (Windows NT 10.0; Win64; x64) AppleWebKit/537.36 (KHTML, like Gecko) Chrome/88.0.4324.146 Safari/537.36","v1","","","","","","","","40,50,60,70,80","media/audio/stims/spherical_300cm_s20_c20_cd-full_matched_a70.wav","spherical","20","20","full","matched","70","80","3334"
"echo-presentation","58","546516","0.0-58.0","5f3f0a2bbc64cf1fe881c7ba","5fef55e628823a0076ec12ee","601f4475a5824c47ab598584","Mozilla/5.0 (Windows NT 10.0; Win64; x64) AppleWebKit/537.36 (KHTML, like Gecko) Chrome/88.0.4324.146 Safari/537.36","v1","","","","","","","","40,50,60,70,80","media/audio/stims/spherical_300cm_s20_c20_cd-full_matched_a60.wav","spherical","20","20","full","matched","60","60","3830"
"echo-presentation","59","560838","0.0-59.0","5f3f0a2bbc64cf1fe881c7ba","5fef55e628823a0076ec12ee","601f4475a5824c47ab598584","Mozilla/5.0 (Windows NT 10.0; Win64; x64) AppleWebKit/537.36 (KHTML, like Gecko) Chrome/88.0.4324.146 Safari/537.36","v1","","","","","","","","40,50,60,70,80","media/audio/stims/spherical_300cm_s20_c20_cd-full_matched_a60.wav","spherical","20","20","full","matched","60","80","5071"
"echo-presentation","60","563853","0.0-60.0","5f3f0a2bbc64cf1fe881c7ba","5fef55e628823a0076ec12ee","601f4475a5824c47ab598584","Mozilla/5.0 (Windows NT 10.0; Win64; x64) AppleWebKit/537.36 (KHTML, like Gecko) Chrome/88.0.4324.146 Safari/537.36","v1","","","","","","","","40,50,60,70,80","media/audio/stims/spherical_300cm_s20_c20_cd-full_matched_a70.wav","spherical","20","20","full","matched","70","60","1750"
"echo-presentation","61","567687","0.0-61.0","5f3f0a2bbc64cf1fe881c7ba","5fef55e628823a0076ec12ee","601f4475a5824c47ab598584","Mozilla/5.0 (Windows NT 10.0; Win64; x64) AppleWebKit/537.36 (KHTML, like Gecko) Chrome/88.0.4324.146 Safari/537.36","v1","","","","","","","","40,50,60,70,80","media/audio/stims/spherical_300cm_s20_c20_cd-full_matched_a50.wav","spherical","20","20","full","matched","50","80","2527"
"echo-presentation","62","571161","0.0-62.0","5f3f0a2bbc64cf1fe881c7ba","5fef55e628823a0076ec12ee","601f4475a5824c47ab598584","Mozilla/5.0 (Windows NT 10.0; Win64; x64) AppleWebKit/537.36 (KHTML, like Gecko) Chrome/88.0.4324.146 Safari/537.36","v1","","","","","","","","40,50,60,70,80","media/audio/stims/spherical_300cm_s20_c20_cd-full_matched_a40.wav","spherical","20","20","full","matched","40","70","2048"
"echo-presentation","63","577257","0.0-63.0","5f3f0a2bbc64cf1fe881c7ba","5fef55e628823a0076ec12ee","601f4475a5824c47ab598584","Mozilla/5.0 (Windows NT 10.0; Win64; x64) AppleWebKit/537.36 (KHTML, like Gecko) Chrome/88.0.4324.146 Safari/537.36","v1","","","","","","","","40,50,60,70,80","media/audio/stims/spherical_300cm_s20_c20_cd-full_matched_a70.wav","spherical","20","20","full","matched","70","70","4934"
"echo-presentation","64","581292","0.0-64.0","5f3f0a2bbc64cf1fe881c7ba","5fef55e628823a0076ec12ee","601f4475a5824c47ab598584","Mozilla/5.0 (Windows NT 10.0; Win64; x64) AppleWebKit/537.36 (KHTML, like Gecko) Chrome/88.0.4324.146 Safari/537.36","v1","","","","","","","","40,50,60,70,80","media/audio/stims/spherical_300cm_s20_c20_cd-full_matched_a40.wav","spherical","20","20","full","matched","40","50","2527"
"echo-presentation","65","585186","0.0-65.0","5f3f0a2bbc64cf1fe881c7ba","5fef55e628823a0076ec12ee","601f4475a5824c47ab598584","Mozilla/5.0 (Windows NT 10.0; Win64; x64) AppleWebKit/537.36 (KHTML, like Gecko) Chrome/88.0.4324.146 Safari/537.36","v1","","","","","","","","40,50,60,70,80","media/audio/stims/spherical_300cm_s20_c20_cd-full_matched_a80.wav","spherical","20","20","full","matched","80","70","2815"
"echo-presentation","66","588433","0.0-66.0","5f3f0a2bbc64cf1fe881c7ba","5fef55e628823a0076ec12ee","601f4475a5824c47ab598584","Mozilla/5.0 (Windows NT 10.0; Win64; x64) AppleWebKit/537.36 (KHTML, like Gecko) Chrome/88.0.4324.146 Safari/537.36","v1","","","","","","","","40,50,60,70,80","media/audio/stims/spherical_300cm_s20_c20_cd-full_matched_a40.wav","spherical","20","20","full","matched","40","60","1999"
"echo-presentation","67","591341","0.0-67.0","5f3f0a2bbc64cf1fe881c7ba","5fef55e628823a0076ec12ee","601f4475a5824c47ab598584","Mozilla/5.0 (Windows NT 10.0; Win64; x64) AppleWebKit/537.36 (KHTML, like Gecko) Chrome/88.0.4324.146 Safari/537.36","v1","","","","","","","","40,50,60,70,80","media/audio/stims/spherical_300cm_s20_c20_cd-full_matched_a70.wav","spherical","20","20","full","matched","70","70","1839"
"echo-presentation","68","593824","0.0-68.0","5f3f0a2bbc64cf1fe881c7ba","5fef55e628823a0076ec12ee","601f4475a5824c47ab598584","Mozilla/5.0 (Windows NT 10.0; Win64; x64) AppleWebKit/537.36 (KHTML, like Gecko) Chrome/88.0.4324.146 Safari/537.36","v1","","","","","","","","40,50,60,70,80","media/audio/stims/spherical_300cm_s20_c20_cd-full_matched_a50.wav","spherical","20","20","full","matched","50","80","1519"
"echo-presentation","69","596742","0.0-69.0","5f3f0a2bbc64cf1fe881c7ba","5fef55e628823a0076ec12ee","601f4475a5824c47ab598584","Mozilla/5.0 (Windows NT 10.0; Win64; x64) AppleWebKit/537.36 (KHTML, like Gecko) Chrome/88.0.4324.146 Safari/537.36","v1","","","","","","","","40,50,60,70,80","media/audio/stims/spherical_300cm_s20_c20_cd-full_matched_a60.wav","spherical","20","20","full","matched","60","70","1735"
"echo-presentation","70","600031","0.0-70.0","5f3f0a2bbc64cf1fe881c7ba","5fef55e628823a0076ec12ee","601f4475a5824c47ab598584","Mozilla/5.0 (Windows NT 10.0; Win64; x64) AppleWebKit/537.36 (KHTML, like Gecko) Chrome/88.0.4324.146 Safari/537.36","v1","","","","","","","","40,50,60,70,80","media/audio/stims/spherical_300cm_s20_c20_cd-full_matched_a80.wav","spherical","20","20","full","matched","80","50","1742"
"echo-presentation","71","603062","0.0-71.0","5f3f0a2bbc64cf1fe881c7ba","5fef55e628823a0076ec12ee","601f4475a5824c47ab598584","Mozilla/5.0 (Windows NT 10.0; Win64; x64) AppleWebKit/537.36 (KHTML, like Gecko) Chrome/88.0.4324.146 Safari/537.36","v1","","","","","","","","40,50,60,70,80","media/audio/stims/spherical_300cm_s20_c20_cd-full_matched_a50.wav","spherical","20","20","full","matched","50","70","1727"
"block-bookend","72","610007","0.0-72.0","5f3f0a2bbc64cf1fe881c7ba","5fef55e628823a0076ec12ee","601f4475a5824c47ab598584","Mozilla/5.0 (Windows NT 10.0; Win64; x64) AppleWebKit/537.36 (KHTML, like Gecko) Chrome/88.0.4324.146 Safari/537.36","v1","","","","","","","","","","","","","","","","",""
"block-bookend","73","629871","0.0-73.0","5f3f0a2bbc64cf1fe881c7ba","5fef55e628823a0076ec12ee","601f4475a5824c47ab598584","Mozilla/5.0 (Windows NT 10.0; Win64; x64) AppleWebKit/537.36 (KHTML, like Gecko) Chrome/88.0.4324.146 Safari/537.36","v1","","","","","","","","","","","","","","","","",""
"echo-presentation","74","634779","0.0-74.0","5f3f0a2bbc64cf1fe881c7ba","5fef55e628823a0076ec12ee","601f4475a5824c47ab598584","Mozilla/5.0 (Windows NT 10.0; Win64; x64) AppleWebKit/537.36 (KHTML, like Gecko) Chrome/88.0.4324.146 Safari/537.36","v1","","","","","","","","40,50,60,70,80","media/audio/stims/spherical_300cm_s20_c20_cd-full_matched_a50.wav","spherical","20","20","full","matched","50","80","2766"
"echo-presentation","75","637404","0.0-75.0","5f3f0a2bbc64cf1fe881c7ba","5fef55e628823a0076ec12ee","601f4475a5824c47ab598584","Mozilla/5.0 (Windows NT 10.0; Win64; x64) AppleWebKit/537.36 (KHTML, like Gecko) Chrome/88.0.4324.146 Safari/537.36","v1","","","","","","","","40,50,60,70,80","media/audio/stims/spherical_300cm_s20_c20_cd-full_matched_a60.wav","spherical","20","20","full","matched","60","80","1671"
"echo-presentation","76","640267","0.0-76.0","5f3f0a2bbc64cf1fe881c7ba","5fef55e628823a0076ec12ee","601f4475a5824c47ab598584","Mozilla/5.0 (Windows NT 10.0; Win64; x64) AppleWebKit/537.36 (KHTML, like Gecko) Chrome/88.0.4324.146 Safari/537.36","v1","","","","","","","","40,50,60,70,80","media/audio/stims/spherical_300cm_s20_c20_cd-full_matched_a60.wav","spherical","20","20","full","matched","60","70","2007"
"echo-presentation","77","643097","0.0-77.0","5f3f0a2bbc64cf1fe881c7ba","5fef55e628823a0076ec12ee","601f4475a5824c47ab598584","Mozilla/5.0 (Windows NT 10.0; Win64; x64) AppleWebKit/537.36 (KHTML, like Gecko) Chrome/88.0.4324.146 Safari/537.36","v1","","","","","","","","40,50,60,70,80","media/audio/stims/spherical_300cm_s20_c20_cd-full_matched_a50.wav","spherical","20","20","full","matched","50","70","1735"
"echo-presentation","78","645733","0.0-78.0","5f3f0a2bbc64cf1fe881c7ba","5fef55e628823a0076ec12ee","601f4475a5824c47ab598584","Mozilla/5.0 (Windows NT 10.0; Win64; x64) AppleWebKit/537.36 (KHTML, like Gecko) Chrome/88.0.4324.146 Safari/537.36","v1","","","","","","","","40,50,60,70,80","media/audio/stims/spherical_300cm_s20_c20_cd-full_matched_a80.wav","spherical","20","20","full","matched","80","80","1519"
"echo-presentation","79","648312","0.0-79.0","5f3f0a2bbc64cf1fe881c7ba","5fef55e628823a0076ec12ee","601f4475a5824c47ab598584","Mozilla/5.0 (Windows NT 10.0; Win64; x64) AppleWebKit/537.36 (KHTML, like Gecko) Chrome/88.0.4324.146 Safari/537.36","v1","","","","","","","","40,50,60,70,80","media/audio/stims/spherical_300cm_s20_c20_cd-full_matched_a60.wav","spherical","20","20","full","matched","60","80","1534"
"echo-presentation","80","650337","0.0-80.0","5f3f0a2bbc64cf1fe881c7ba","5fef55e628823a0076ec12ee","601f4475a5824c47ab598584","Mozilla/5.0 (Windows NT 10.0; Win64; x64) AppleWebKit/537.36 (KHTML, like Gecko) Chrome/88.0.4324.146 Safari/537.36","v1","","","","","","","","40,50,60,70,80","media/audio/stims/spherical_300cm_s20_c20_cd-full_matched_a70.wav","spherical","20","20","full","matched","70","70","1239"
"echo-presentation","81","652621","0.0-81.0","5f3f0a2bbc64cf1fe881c7ba","5fef55e628823a0076ec12ee","601f4475a5824c47ab598584","Mozilla/5.0 (Windows NT 10.0; Win64; x64) AppleWebKit/537.36 (KHTML, like Gecko) Chrome/88.0.4324.146 Safari/537.36","v1","","","","","","","","40,50,60,70,80","media/audio/stims/spherical_300cm_s20_c20_cd-full_matched_a80.wav","spherical","20","20","full","matched","80","70","1223"
"echo-presentation","82","654662","0.0-82.0","5f3f0a2bbc64cf1fe881c7ba","5fef55e628823a0076ec12ee","601f4475a5824c47ab598584","Mozilla/5.0 (Windows NT 10.0; Win64; x64) AppleWebKit/537.36 (KHTML, like Gecko) Chrome/88.0.4324.146 Safari/537.36","v1","","","","","","","","40,50,60,70,80","media/audio/stims/spherical_300cm_s20_c20_cd-full_matched_a70.wav","spherical","20","20","full","matched","70","60","1207"
"echo-presentation","83","656860","0.0-83.0","5f3f0a2bbc64cf1fe881c7ba","5fef55e628823a0076ec12ee","601f4475a5824c47ab598584","Mozilla/5.0 (Windows NT 10.0; Win64; x64) AppleWebKit/537.36 (KHTML, like Gecko) Chrome/88.0.4324.146 Safari/537.36","v1","","","","","","","","40,50,60,70,80","media/audio/stims/spherical_300cm_s20_c20_cd-full_matched_a50.wav","spherical","20","20","full","matched","50","70","1271"
"echo-presentation","84","659225","0.0-84.0","5f3f0a2bbc64cf1fe881c7ba","5fef55e628823a0076ec12ee","601f4475a5824c47ab598584","Mozilla/5.0 (Windows NT 10.0; Win64; x64) AppleWebKit/537.36 (KHTML, like Gecko) Chrome/88.0.4324.146 Safari/537.36","v1","","","","","","","","40,50,60,70,80","media/audio/stims/spherical_300cm_s20_c20_cd-full_matched_a60.wav","spherical","20","20","full","matched","60","50","1390"
"echo-presentation","85","661546","0.0-85.0","5f3f0a2bbc64cf1fe881c7ba","5fef55e628823a0076ec12ee","601f4475a5824c47ab598584","Mozilla/5.0 (Windows NT 10.0; Win64; x64) AppleWebKit/537.36 (KHTML, like Gecko) Chrome/88.0.4324.146 Safari/537.36","v1","","","","","","","","40,50,60,70,80","media/audio/stims/spherical_300cm_s20_c20_cd-full_matched_a80.wav","spherical","20","20","full","matched","80","70","1584"
"echo-presentation","86","664849","0.0-86.0","5f3f0a2bbc64cf1fe881c7ba","5fef55e628823a0076ec12ee","601f4475a5824c47ab598584","Mozilla/5.0 (Windows NT 10.0; Win64; x64) AppleWebKit/537.36 (KHTML, like Gecko) Chrome/88.0.4324.146 Safari/537.36","v1","","","","","","","","40,50,60,70,80","media/audio/stims/spherical_300cm_s20_c20_cd-full_matched_a40.wav","spherical","20","20","full","matched","40","80","1951"
"echo-presentation","87","667743","0.0-87.0","5f3f0a2bbc64cf1fe881c7ba","5fef55e628823a0076ec12ee","601f4475a5824c47ab598584","Mozilla/5.0 (Windows NT 10.0; Win64; x64) AppleWebKit/537.36 (KHTML, like Gecko) Chrome/88.0.4324.146 Safari/537.36","v1","","","","","","","","40,50,60,70,80","media/audio/stims/spherical_300cm_s20_c20_cd-full_matched_a80.wav","spherical","20","20","full","matched","80","70","1079"
"echo-presentation","88","670310","0.0-88.0","5f3f0a2bbc64cf1fe881c7ba","5fef55e628823a0076ec12ee","601f4475a5824c47ab598584","Mozilla/5.0 (Windows NT 10.0; Win64; x64) AppleWebKit/537.36 (KHTML, like Gecko) Chrome/88.0.4324.146 Safari/537.36","v1","","","","","","","","40,50,60,70,80","media/audio/stims/spherical_300cm_s20_c20_cd-full_matched_a40.wav","spherical","20","20","full","matched","40","80","1719"
"echo-presentation","89","672252","0.0-89.0","5f3f0a2bbc64cf1fe881c7ba","5fef55e628823a0076ec12ee","601f4475a5824c47ab598584","Mozilla/5.0 (Windows NT 10.0; Win64; x64) AppleWebKit/537.36 (KHTML, like Gecko) Chrome/88.0.4324.146 Safari/537.36","v1","","","","","","","","40,50,60,70,80","media/audio/stims/spherical_300cm_s20_c20_cd-full_matched_a70.wav","spherical","20","20","full","matched","70","60","1159"
"echo-presentation","90","674706","0.0-90.0","5f3f0a2bbc64cf1fe881c7ba","5fef55e628823a0076ec12ee","601f4475a5824c47ab598584","Mozilla/5.0 (Windows NT 10.0; Win64; x64) AppleWebKit/537.36 (KHTML, like Gecko) Chrome/88.0.4324.146 Safari/537.36","v1","","","","","","","","40,50,60,70,80","media/audio/stims/spherical_300cm_s20_c20_cd-full_matched_a50.wav","spherical","20","20","full","matched","50","70","1183"
"echo-presentation","91","676795","0.0-91.0","5f3f0a2bbc64cf1fe881c7ba","5fef55e628823a0076ec12ee","601f4475a5824c47ab598584","Mozilla/5.0 (Windows NT 10.0; Win64; x64) AppleWebKit/537.36 (KHTML, like Gecko) Chrome/88.0.4324.146 Safari/537.36","v1","","","","","","","","40,50,60,70,80","media/audio/stims/spherical_300cm_s20_c20_cd-full_matched_a70.wav","spherical","20","20","full","matched","70","50","1047"
"echo-presentation","92","678847","0.0-92.0","5f3f0a2bbc64cf1fe881c7ba","5fef55e628823a0076ec12ee","601f4475a5824c47ab598584","Mozilla/5.0 (Windows NT 10.0; Win64; x64) AppleWebKit/537.36 (KHTML, like Gecko) Chrome/88.0.4324.146 Safari/537.36","v1","","","","","","","","40,50,60,70,80","media/audio/stims/spherical_300cm_s20_c20_cd-full_matched_a40.wav","spherical","20","20","full","matched","40","70","935"
"echo-presentation","93","681190","0.0-93.0","5f3f0a2bbc64cf1fe881c7ba","5fef55e628823a0076ec12ee","601f4475a5824c47ab598584","Mozilla/5.0 (Windows NT 10.0; Win64; x64) AppleWebKit/537.36 (KHTML, like Gecko) Chrome/88.0.4324.146 Safari/537.36","v1","","","","","","","","40,50,60,70,80","media/audio/stims/spherical_300cm_s20_c20_cd-full_matched_a40.wav","spherical","20","20","full","matched","40","70","1295"
"block-bookend","94","685844","0.0-94.0","5f3f0a2bbc64cf1fe881c7ba","5fef55e628823a0076ec12ee","601f4475a5824c47ab598584","Mozilla/5.0 (Windows NT 10.0; Win64; x64) AppleWebKit/537.36 (KHTML, like Gecko) Chrome/88.0.4324.146 Safari/537.36","v1","","","","","","","","","","","","","","","","",""
"block-bookend","95","697644","0.0-95.0","5f3f0a2bbc64cf1fe881c7ba","5fef55e628823a0076ec12ee","601f4475a5824c47ab598584","Mozilla/5.0 (Windows NT 10.0; Win64; x64) AppleWebKit/537.36 (KHTML, like Gecko) Chrome/88.0.4324.146 Safari/537.36","v1","","","","","","","","","","","","","","","","",""
"echo-presentation","96","702985","0.0-96.0","5f3f0a2bbc64cf1fe881c7ba","5fef55e628823a0076ec12ee","601f4475a5824c47ab598584","Mozilla/5.0 (Windows NT 10.0; Win64; x64) AppleWebKit/537.36 (KHTML, like Gecko) Chrome/88.0.4324.146 Safari/537.36","v1","","","","","","","","-80,-70,-60,-50,-40","media/audio/stims/spherical_300cm_s20_c20_cd-full_matched_a-70.wav","spherical","20","20","full","matched","-70","-70","3639"
"echo-presentation","97","708389","0.0-97.0","5f3f0a2bbc64cf1fe881c7ba","5fef55e628823a0076ec12ee","601f4475a5824c47ab598584","Mozilla/5.0 (Windows NT 10.0; Win64; x64) AppleWebKit/537.36 (KHTML, like Gecko) Chrome/88.0.4324.146 Safari/537.36","v1","","","","","","","","-80,-70,-60,-50,-40","media/audio/stims/spherical_300cm_s20_c20_cd-full_matched_a-40.wav","spherical","20","20","full","matched","-40","-40","2462"
"echo-presentation","98","718276","0.0-98.0","5f3f0a2bbc64cf1fe881c7ba","5fef55e628823a0076ec12ee","601f4475a5824c47ab598584","Mozilla/5.0 (Windows NT 10.0; Win64; x64) AppleWebKit/537.36 (KHTML, like Gecko) Chrome/88.0.4324.146 Safari/537.36","v1","","","","","","","","-80,-70,-60,-50,-40","media/audio/stims/spherical_300cm_s20_c20_cd-full_matched_a-50.wav","spherical","20","20","full","matched","-50","-80","1629"
"echo-presentation","99","720635","0.0-99.0","5f3f0a2bbc64cf1fe881c7ba","5fef55e628823a0076ec12ee","601f4475a5824c47ab598584","Mozilla/5.0 (Windows NT 10.0; Win64; x64) AppleWebKit/537.36 (KHTML, like Gecko) Chrome/88.0.4324.146 Safari/537.36","v1","","","","","","","","-80,-70,-60,-50,-40","media/audio/stims/spherical_300cm_s20_c20_cd-full_matched_a-80.wav","spherical","20","20","full","matched","-80","-80","1446"
"echo-presentation","100","722752","0.0-100.0","5f3f0a2bbc64cf1fe881c7ba","5fef55e628823a0076ec12ee","601f4475a5824c47ab598584","Mozilla/5.0 (Windows NT 10.0; Win64; x64) AppleWebKit/537.36 (KHTML, like Gecko) Chrome/88.0.4324.146 Safari/537.36","v1","","","","","","","","-80,-70,-60,-50,-40","media/audio/stims/spherical_300cm_s20_c20_cd-full_matched_a-60.wav","spherical","20","20","full","matched","-60","-70","1103"
"echo-presentation","101","724959","0.0-101.0","5f3f0a2bbc64cf1fe881c7ba","5fef55e628823a0076ec12ee","601f4475a5824c47ab598584","Mozilla/5.0 (Windows NT 10.0; Win64; x64) AppleWebKit/537.36 (KHTML, like Gecko) Chrome/88.0.4324.146 Safari/537.36","v1","","","","","","","","-80,-70,-60,-50,-40","media/audio/stims/spherical_300cm_s20_c20_cd-full_matched_a-60.wav","spherical","20","20","full","matched","-60","-70","1311"
"echo-presentation","102","726715","0.0-102.0","5f3f0a2bbc64cf1fe881c7ba","5fef55e628823a0076ec12ee","601f4475a5824c47ab598584","Mozilla/5.0 (Windows NT 10.0; Win64; x64) AppleWebKit/537.36 (KHTML, like Gecko) Chrome/88.0.4324.146 Safari/537.36","v1","","","","","","","","-80,-70,-60,-50,-40","media/audio/stims/spherical_300cm_s20_c20_cd-full_matched_a-70.wav","spherical","20","20","full","matched","-70","-80","999"
"echo-presentation","103","728651","0.0-103.0","5f3f0a2bbc64cf1fe881c7ba","5fef55e628823a0076ec12ee","601f4475a5824c47ab598584","Mozilla/5.0 (Windows NT 10.0; Win64; x64) AppleWebKit/537.36 (KHTML, like Gecko) Chrome/88.0.4324.146 Safari/537.36","v1","","","","","","","","-80,-70,-60,-50,-40","media/audio/stims/spherical_300cm_s20_c20_cd-full_matched_a-40.wav","spherical","20","20","full","matched","-40","-70","1126"
"echo-presentation","104","730486","0.0-104.0","5f3f0a2bbc64cf1fe881c7ba","5fef55e628823a0076ec12ee","601f4475a5824c47ab598584","Mozilla/5.0 (Windows NT 10.0; Win64; x64) AppleWebKit/537.36 (KHTML, like Gecko) Chrome/88.0.4324.146 Safari/537.36","v1","","","","","","","","-80,-70,-60,-50,-40","media/audio/stims/spherical_300cm_s20_c20_cd-full_matched_a-40.wav","spherical","20","20","full","matched","-40","-60","1030"
"echo-presentation","105","732334","0.0-105.0","5f3f0a2bbc64cf1fe881c7ba","5fef55e628823a0076ec12ee","601f4475a5824c47ab598584","Mozilla/5.0 (Windows NT 10.0; Win64; x64) AppleWebKit/537.36 (KHTML, like Gecko) Chrome/88.0.4324.146 Safari/537.36","v1","","","","","","","","-80,-70,-60,-50,-40","media/audio/stims/spherical_300cm_s20_c20_cd-full_matched_a-50.wav","spherical","20","20","full","matched","-50","-70","1062"
"echo-presentation","106","734786","0.0-106.0","5f3f0a2bbc64cf1fe881c7ba","5fef55e628823a0076ec12ee","601f4475a5824c47ab598584","Mozilla/5.0 (Windows NT 10.0; Win64; x64) AppleWebKit/537.36 (KHTML, like Gecko) Chrome/88.0.4324.146 Safari/537.36","v1","","","","","","","","-80,-70,-60,-50,-40","media/audio/stims/spherical_300cm_s20_c20_cd-full_matched_a-80.wav","spherical","20","20","full","matched","-80","-80","1582"
"echo-presentation","107","737007","0.0-107.0","5f3f0a2bbc64cf1fe881c7ba","5fef55e628823a0076ec12ee","601f4475a5824c47ab598584","Mozilla/5.0 (Windows NT 10.0; Win64; x64) AppleWebKit/537.36 (KHTML, like Gecko) Chrome/88.0.4324.146 Safari/537.36","v1","","","","","","","","-80,-70,-60,-50,-40","media/audio/stims/spherical_300cm_s20_c20_cd-full_matched_a-70.wav","spherical","20","20","full","matched","-70","-60","1423"
"echo-presentation","108","738964","0.0-108.0","5f3f0a2bbc64cf1fe881c7ba","5fef55e628823a0076ec12ee","601f4475a5824c47ab598584","Mozilla/5.0 (Windows NT 10.0; Win64; x64) AppleWebKit/537.36 (KHTML, like Gecko) Chrome/88.0.4324.146 Safari/537.36","v1","","","","","","","","-80,-70,-60,-50,-40","media/audio/stims/spherical_300cm_s20_c20_cd-full_matched_a-60.wav","spherical","20","20","full","matched","-60","-70","1118"
"echo-presentation","109","740879","0.0-109.0","5f3f0a2bbc64cf1fe881c7ba","5fef55e628823a0076ec12ee","601f4475a5824c47ab598584","Mozilla/5.0 (Windows NT 10.0; Win64; x64) AppleWebKit/537.36 (KHTML, like Gecko) Chrome/88.0.4324.146 Safari/537.36","v1","","","","","","","","-80,-70,-60,-50,-40","media/audio/stims/spherical_300cm_s20_c20_cd-full_matched_a-40.wav","spherical","20","20","full","matched","-40","-80","1038"
"echo-presentation","110","743445","0.0-110.0","5f3f0a2bbc64cf1fe881c7ba","5fef55e628823a0076ec12ee","601f4475a5824c47ab598584","Mozilla/5.0 (Windows NT 10.0; Win64; x64) AppleWebKit/537.36 (KHTML, like Gecko) Chrome/88.0.4324.146 Safari/537.36","v1","","","","","","","","-80,-70,-60,-50,-40","media/audio/stims/spherical_300cm_s20_c20_cd-full_matched_a-50.wav","spherical","20","20","full","matched","-50","-70","1454"
"echo-presentation","111","745631","0.0-111.0","5f3f0a2bbc64cf1fe881c7ba","5fef55e628823a0076ec12ee","601f4475a5824c47ab598584","Mozilla/5.0 (Windows NT 10.0; Win64; x64) AppleWebKit/537.36 (KHTML, like Gecko) Chrome/88.0.4324.146 Safari/537.36","v1","","","","","","","","-80,-70,-60,-50,-40","media/audio/stims/spherical_300cm_s20_c20_cd-full_matched_a-60.wav","spherical","20","20","full","matched","-60","-60","1062"
"echo-presentation","112","748084","0.0-112.0","5f3f0a2bbc64cf1fe881c7ba","5fef55e628823a0076ec12ee","601f4475a5824c47ab598584","Mozilla/5.0 (Windows NT 10.0; Win64; x64) AppleWebKit/537.36 (KHTML, like Gecko) Chrome/88.0.4324.146 Safari/537.36","v1","","","","","","","","-80,-70,-60,-50,-40","media/audio/stims/spherical_300cm_s20_c20_cd-full_matched_a-80.wav","spherical","20","20","full","matched","-80","-60","1343"
"echo-presentation","113","750542","0.0-113.0","5f3f0a2bbc64cf1fe881c7ba","5fef55e628823a0076ec12ee","601f4475a5824c47ab598584","Mozilla/5.0 (Windows NT 10.0; Win64; x64) AppleWebKit/537.36 (KHTML, like Gecko) Chrome/88.0.4324.146 Safari/537.36","v1","","","","","","","","-80,-70,-60,-50,-40","media/audio/stims/spherical_300cm_s20_c20_cd-full_matched_a-70.wav","spherical","20","20","full","matched","-70","-70","1615"
"echo-presentation","114","752581","0.0-114.0","5f3f0a2bbc64cf1fe881c7ba","5fef55e628823a0076ec12ee","601f4475a5824c47ab598584","Mozilla/5.0 (Windows NT 10.0; Win64; x64) AppleWebKit/537.36 (KHTML, like Gecko) Chrome/88.0.4324.146 Safari/537.36","v1","","","","","","","","-80,-70,-60,-50,-40","media/audio/stims/spherical_300cm_s20_c20_cd-full_matched_a-80.wav","spherical","20","20","full","matched","-80","-40","1166"
"echo-presentation","115","756302","0.0-115.0","5f3f0a2bbc64cf1fe881c7ba","5fef55e628823a0076ec12ee","601f4475a5824c47ab598584","Mozilla/5.0 (Windows NT 10.0; Win64; x64) AppleWebKit/537.36 (KHTML, like Gecko) Chrome/88.0.4324.146 Safari/537.36","v1","","","","","","","","-80,-70,-60,-50,-40","media/audio/stims/spherical_300cm_s20_c20_cd-full_matched_a-50.wav","spherical","20","20","full","matched","-50","-50","1927"
"block-bookend","116","757523","0.0-116.0","5f3f0a2bbc64cf1fe881c7ba","5fef55e628823a0076ec12ee","601f4475a5824c47ab598584","Mozilla/5.0 (Windows NT 10.0; Win64; x64) AppleWebKit/537.36 (KHTML, like Gecko) Chrome/88.0.4324.146 Safari/537.36","v1","","","","","","","","","","","","","","","","",""
"block-bookend","117","778090","0.0-117.0","5f3f0a2bbc64cf1fe881c7ba","5fef55e628823a0076ec12ee","601f4475a5824c47ab598584","Mozilla/5.0 (Windows NT 10.0; Win64; x64) AppleWebKit/537.36 (KHTML, like Gecko) Chrome/88.0.4324.146 Safari/537.36","v1","","","","","","","","","","","","","","","","",""
"echo-presentation","118","783028","0.0-118.0","5f3f0a2bbc64cf1fe881c7ba","5fef55e628823a0076ec12ee","601f4475a5824c47ab598584","Mozilla/5.0 (Windows NT 10.0; Win64; x64) AppleWebKit/537.36 (KHTML, like Gecko) Chrome/88.0.4324.146 Safari/537.36","v1","","","","","","","","-80,-70,-60,-50,-40","media/audio/stims/spherical_300cm_s20_c20_cd-full_matched_a-70.wav","spherical","20","20","full","matched","-70","-80","2216"
"echo-presentation","119","785144","0.0-119.0","5f3f0a2bbc64cf1fe881c7ba","5fef55e628823a0076ec12ee","601f4475a5824c47ab598584","Mozilla/5.0 (Windows NT 10.0; Win64; x64) AppleWebKit/537.36 (KHTML, like Gecko) Chrome/88.0.4324.146 Safari/537.36","v1","","","","","","","","-80,-70,-60,-50,-40","media/audio/stims/spherical_300cm_s20_c20_cd-full_matched_a-60.wav","spherical","20","20","full","matched","-60","-70","1231"
"echo-presentation","120","787407","0.0-120.0","5f3f0a2bbc64cf1fe881c7ba","5fef55e628823a0076ec12ee","601f4475a5824c47ab598584","Mozilla/5.0 (Windows NT 10.0; Win64; x64) AppleWebKit/537.36 (KHTML, like Gecko) Chrome/88.0.4324.146 Safari/537.36","v1","","","","","","","","-80,-70,-60,-50,-40","media/audio/stims/spherical_300cm_s20_c20_cd-full_matched_a-60.wav","spherical","20","20","full","matched","-60","-60","1454"
"echo-presentation","121","789322","0.0-121.0","5f3f0a2bbc64cf1fe881c7ba","5fef55e628823a0076ec12ee","601f4475a5824c47ab598584","Mozilla/5.0 (Windows NT 10.0; Win64; x64) AppleWebKit/537.36 (KHTML, like Gecko) Chrome/88.0.4324.146 Safari/537.36","v1","","","","","","","","-80,-70,-60,-50,-40","media/audio/stims/spherical_300cm_s20_c20_cd-full_matched_a-70.wav","spherical","20","20","full","matched","-70","-60","1135"
"echo-presentation","122","791174","0.0-122.0","5f3f0a2bbc64cf1fe881c7ba","5fef55e628823a0076ec12ee","601f4475a5824c47ab598584","Mozilla/5.0 (Windows NT 10.0; Win64; x64) AppleWebKit/537.36 (KHTML, like Gecko) Chrome/88.0.4324.146 Safari/537.36","v1","","","","","","","","-80,-70,-60,-50,-40","media/audio/stims/spherical_300cm_s20_c20_cd-full_matched_a-40.wav","spherical","20","20","full","matched","-40","-60","1087"
"echo-presentation","123","792921","0.0-123.0","5f3f0a2bbc64cf1fe881c7ba","5fef55e628823a0076ec12ee","601f4475a5824c47ab598584","Mozilla/5.0 (Windows NT 10.0; Win64; x64) AppleWebKit/537.36 (KHTML, like Gecko) Chrome/88.0.4324.146 Safari/537.36","v1","","","","","","","","-80,-70,-60,-50,-40","media/audio/stims/spherical_300cm_s20_c20_cd-full_matched_a-50.wav","spherical","20","20","full","matched","-50","-50","991"
"echo-presentation","124","795275","0.0-124.0","5f3f0a2bbc64cf1fe881c7ba","5fef55e628823a0076ec12ee","601f4475a5824c47ab598584","Mozilla/5.0 (Windows NT 10.0; Win64; x64) AppleWebKit/537.36 (KHTML, like Gecko) Chrome/88.0.4324.146 Safari/537.36","v1","","","","","","","","-80,-70,-60,-50,-40","media/audio/stims/spherical_300cm_s20_c20_cd-full_matched_a-50.wav","spherical","20","20","full","matched","-50","-60","1527"
"echo-presentation","125","797585","0.0-125.0","5f3f0a2bbc64cf1fe881c7ba","5fef55e628823a0076ec12ee","601f4475a5824c47ab598584","Mozilla/5.0 (Windows NT 10.0; Win64; x64) AppleWebKit/537.36 (KHTML, like Gecko) Chrome/88.0.4324.146 Safari/537.36","v1","","","","","","","","-80,-70,-60,-50,-40","media/audio/stims/spherical_300cm_s20_c20_cd-full_matched_a-80.wav","spherical","20","20","full","matched","-80","-70","1487"
"echo-presentation","126","799296","0.0-126.0","5f3f0a2bbc64cf1fe881c7ba","5fef55e628823a0076ec12ee","601f4475a5824c47ab598584","Mozilla/5.0 (Windows NT 10.0; Win64; x64) AppleWebKit/537.36 (KHTML, like Gecko) Chrome/88.0.4324.146 Safari/537.36","v1","","","","","","","","-80,-70,-60,-50,-40","media/audio/stims/spherical_300cm_s20_c20_cd-full_matched_a-80.wav","spherical","20","20","full","matched","-80","-80","1071"
"echo-presentation","127","801498","0.0-127.0","5f3f0a2bbc64cf1fe881c7ba","5fef55e628823a0076ec12ee","601f4475a5824c47ab598584","Mozilla/5.0 (Windows NT 10.0; Win64; x64) AppleWebKit/537.36 (KHTML, like Gecko) Chrome/88.0.4324.146 Safari/537.36","v1","","","","","","","","-80,-70,-60,-50,-40","media/audio/stims/spherical_300cm_s20_c20_cd-full_matched_a-60.wav","spherical","20","20","full","matched","-60","-70","1215"
"echo-presentation","128","803318","0.0-128.0","5f3f0a2bbc64cf1fe881c7ba","5fef55e628823a0076ec12ee","601f4475a5824c47ab598584","Mozilla/5.0 (Windows NT 10.0; Win64; x64) AppleWebKit/537.36 (KHTML, like Gecko) Chrome/88.0.4324.146 Safari/537.36","v1","","","","","","","","-80,-70,-60,-50,-40","media/audio/stims/spherical_300cm_s20_c20_cd-full_matched_a-80.wav","spherical","20","20","full","matched","-80","-70","1151"
"echo-presentation","129","805482","0.0-129.0","5f3f0a2bbc64cf1fe881c7ba","5fef55e628823a0076ec12ee","601f4475a5824c47ab598584","Mozilla/5.0 (Windows NT 10.0; Win64; x64) AppleWebKit/537.36 (KHTML, like Gecko) Chrome/88.0.4324.146 Safari/537.36","v1","","","","","","","","-80,-70,-60,-50,-40","media/audio/stims/spherical_300cm_s20_c20_cd-full_matched_a-40.wav","spherical","20","20","full","matched","-40","-70","1415"
"echo-presentation","130","807505","0.0-130.0","5f3f0a2bbc64cf1fe881c7ba","5fef55e628823a0076ec12ee","601f4475a5824c47ab598584","Mozilla/5.0 (Windows NT 10.0; Win64; x64) AppleWebKit/537.36 (KHTML, like Gecko) Chrome/88.0.4324.146 Safari/537.36","v1","","","","","","","","-80,-70,-60,-50,-40","media/audio/stims/spherical_300cm_s20_c20_cd-full_matched_a-50.wav","spherical","20","20","full","matched","-50","-70","1279"
"echo-presentation","131","809269","0.0-131.0","5f3f0a2bbc64cf1fe881c7ba","5fef55e628823a0076ec12ee","601f4475a5824c47ab598584","Mozilla/5.0 (Windows NT 10.0; Win64; x64) AppleWebKit/537.36 (KHTML, like Gecko) Chrome/88.0.4324.146 Safari/537.36","v1","","","","","","","","-80,-70,-60,-50,-40","media/audio/stims/spherical_300cm_s20_c20_cd-full_matched_a-40.wav","spherical","20","20","full","matched","-40","-60","1215"
"echo-presentation","132","811934","0.0-132.0","5f3f0a2bbc64cf1fe881c7ba","5fef55e628823a0076ec12ee","601f4475a5824c47ab598584","Mozilla/5.0 (Windows NT 10.0; Win64; x64) AppleWebKit/537.36 (KHTML, like Gecko) Chrome/88.0.4324.146 Safari/537.36","v1","","","","","","","","-80,-70,-60,-50,-40","media/audio/stims/spherical_300cm_s20_c20_cd-full_matched_a-70.wav","spherical","20","20","full","matched","-70","-60","1966"
"echo-presentation","133","813877","0.0-133.0","5f3f0a2bbc64cf1fe881c7ba","5fef55e628823a0076ec12ee","601f4475a5824c47ab598584","Mozilla/5.0 (Windows NT 10.0; Win64; x64) AppleWebKit/537.36 (KHTML, like Gecko) Chrome/88.0.4324.146 Safari/537.36","v1","","","","","","","","-80,-70,-60,-50,-40","media/audio/stims/spherical_300cm_s20_c20_cd-full_matched_a-80.wav","spherical","20","20","full","matched","-80","-50","1054"
"echo-presentation","134","816081","0.0-134.0","5f3f0a2bbc64cf1fe881c7ba","5fef55e628823a0076ec12ee","601f4475a5824c47ab598584","Mozilla/5.0 (Windows NT 10.0; Win64; x64) AppleWebKit/537.36 (KHTML, like Gecko) Chrome/88.0.4324.146 Safari/537.36","v1","","","","","","","","-80,-70,-60,-50,-40","media/audio/stims/spherical_300cm_s20_c20_cd-full_matched_a-60.wav","spherical","20","20","full","matched","-60","-60","1342"
"echo-presentation","135","818042","0.0-135.0","5f3f0a2bbc64cf1fe881c7ba","5fef55e628823a0076ec12ee","601f4475a5824c47ab598584","Mozilla/5.0 (Windows NT 10.0; Win64; x64) AppleWebKit/537.36 (KHTML, like Gecko) Chrome/88.0.4324.146 Safari/537.36","v1","","","","","","","","-80,-70,-60,-50,-40","media/audio/stims/spherical_300cm_s20_c20_cd-full_matched_a-50.wav","spherical","20","20","full","matched","-50","-70","949"
"echo-presentation","136","820803","0.0-136.0","5f3f0a2bbc64cf1fe881c7ba","5fef55e628823a0076ec12ee","601f4475a5824c47ab598584","Mozilla/5.0 (Windows NT 10.0; Win64; x64) AppleWebKit/537.36 (KHTML, like Gecko) Chrome/88.0.4324.146 Safari/537.36","v1","","","","","","","","-80,-70,-60,-50,-40","media/audio/stims/spherical_300cm_s20_c20_cd-full_matched_a-70.wav","spherical","20","20","full","matched","-70","-70","2055"
"echo-presentation","137","823414","0.0-137.0","5f3f0a2bbc64cf1fe881c7ba","5fef55e628823a0076ec12ee","601f4475a5824c47ab598584","Mozilla/5.0 (Windows NT 10.0; Win64; x64) AppleWebKit/537.36 (KHTML, like Gecko) Chrome/88.0.4324.146 Safari/537.36","v1","","","","","","","","-80,-70,-60,-50,-40","media/audio/stims/spherical_300cm_s20_c20_cd-full_matched_a-40.wav","spherical","20","20","full","matched","-40","-60","1727"
"block-bookend","138","824633","0.0-138.0","5f3f0a2bbc64cf1fe881c7ba","5fef55e628823a0076ec12ee","601f4475a5824c47ab598584","Mozilla/5.0 (Windows NT 10.0; Win64; x64) AppleWebKit/537.36 (KHTML, like Gecko) Chrome/88.0.4324.146 Safari/537.36","v1","","","","","","","","","","","","","","","","",""
