"trial_type","trial_index","time_elapsed","internal_node_id","prolificPid","studyId","sessionId","userAgent","version","rt","stimulus","key_press","chosenKeyset","failureCount","testIndex","globalVolume","choices","filename","modelName","slowdown","compensation","compensationDescriptor","receiverOrientationType","azimuth","responseAzimuth","responseDelay"
"pavlovia","0","8","0.0-0.0","5ef618993fecc70b5984e05c","60242478c74f84097a222710","602426852b1c7209134d9540","Mozilla/5.0 (Windows NT 10.0; Win64; x64; rv:85.0) Gecko/20100101 Firefox/85.0","v1-up-stims","","","","","","","","","","","","","","","","",""
"html-keyboard-response","1","2859","0.0-1.0","5ef618993fecc70b5984e05c","60242478c74f84097a222710","602426852b1c7209134d9540","Mozilla/5.0 (Windows NT 10.0; Win64; x64; rv:85.0) Gecko/20100101 Firefox/85.0","v1-up-stims","2850","<div><h1>Welcome!</h1><p>Press any key to continue.</p></div>","222","","","","","","","","","","","","","",""
"consent-form","2","44974","0.0-2.0","5ef618993fecc70b5984e05c","60242478c74f84097a222710","602426852b1c7209134d9540","Mozilla/5.0 (Windows NT 10.0; Win64; x64; rv:85.0) Gecko/20100101 Firefox/85.0","v1-up-stims","","","","","","","","","","","","","","","","",""
"keyset-select","3","68682","0.0-3.0","5ef618993fecc70b5984e05c","60242478c74f84097a222710","602426852b1c7209134d9540","Mozilla/5.0 (Windows NT 10.0; Win64; x64; rv:85.0) Gecko/20100101 Firefox/85.0","v1-up-stims","","","","left-hand","","","","","","","","","","","","",""
"headphone-check","4","139015","0.0-4.0","5ef618993fecc70b5984e05c","60242478c74f84097a222710","602426852b1c7209134d9540","Mozilla/5.0 (Windows NT 10.0; Win64; x64; rv:85.0) Gecko/20100101 Firefox/85.0","v1-up-stims","","","","","0","6","0.3","","","","","","","","","",""
"headphone-backwards-check","5","146188","0.0-5.0","5ef618993fecc70b5984e05c","60242478c74f84097a222710","602426852b1c7209134d9540","Mozilla/5.0 (Windows NT 10.0; Win64; x64; rv:85.0) Gecko/20100101 Firefox/85.0","v1-up-stims","","","","","0","","","","","","","","","","","",""
"training","6","230613","0.0-6.0","5ef618993fecc70b5984e05c","60242478c74f84097a222710","602426852b1c7209134d9540","Mozilla/5.0 (Windows NT 10.0; Win64; x64; rv:85.0) Gecko/20100101 Firefox/85.0","v1-up-stims","","","","","","","","","","","","","","","","",""
"block-bookend","7","249278","0.0-7.0","5ef618993fecc70b5984e05c","60242478c74f84097a222710","602426852b1c7209134d9540","Mozilla/5.0 (Windows NT 10.0; Win64; x64; rv:85.0) Gecko/20100101 Firefox/85.0","v1-up-stims","","","","","","","","","","","","","","","","",""
"echo-presentation","8","256622","0.0-8.0","5ef618993fecc70b5984e05c","60242478c74f84097a222710","602426852b1c7209134d9540","Mozilla/5.0 (Windows NT 10.0; Win64; x64; rv:85.0) Gecko/20100101 Firefox/85.0","v1-up-stims","","","","","","","","40,50,60,70,80","media/audio/stims/spherical_300cm_s20_c10_cd-half_matched_a70.wav","spherical","20","10","half","matched","70","60","4309"
"echo-presentation","9","260382","0.0-9.0","5ef618993fecc70b5984e05c","60242478c74f84097a222710","602426852b1c7209134d9540","Mozilla/5.0 (Windows NT 10.0; Win64; x64; rv:85.0) Gecko/20100101 Firefox/85.0","v1-up-stims","","","","","","","","40,50,60,70,80","media/audio/stims/spherical_300cm_s20_c10_cd-half_matched_a70.wav","spherical","20","10","half","matched","70","50","2022"
"echo-presentation","10","266583","0.0-10.0","5ef618993fecc70b5984e05c","60242478c74f84097a222710","602426852b1c7209134d9540","Mozilla/5.0 (Windows NT 10.0; Win64; x64; rv:85.0) Gecko/20100101 Firefox/85.0","v1-up-stims","","","","","","","","40,50,60,70,80","media/audio/stims/spherical_300cm_s20_c10_cd-half_matched_a50.wav","spherical","20","10","half","matched","50","40","3486"
"echo-presentation","11","272103","0.0-11.0","5ef618993fecc70b5984e05c","60242478c74f84097a222710","602426852b1c7209134d9540","Mozilla/5.0 (Windows NT 10.0; Win64; x64; rv:85.0) Gecko/20100101 Firefox/85.0","v1-up-stims","","","","","","","","40,50,60,70,80","media/audio/stims/spherical_300cm_s20_c10_cd-half_matched_a50.wav","spherical","20","10","half","matched","50","70","2616"
"echo-presentation","12","278268","0.0-12.0","5ef618993fecc70b5984e05c","60242478c74f84097a222710","602426852b1c7209134d9540","Mozilla/5.0 (Windows NT 10.0; Win64; x64; rv:85.0) Gecko/20100101 Firefox/85.0","v1-up-stims","","","","","","","","40,50,60,70,80","media/audio/stims/spherical_300cm_s20_c10_cd-half_matched_a60.wav","spherical","20","10","half","matched","60","60","4263"
"echo-presentation","13","282753","0.0-13.0","5ef618993fecc70b5984e05c","60242478c74f84097a222710","602426852b1c7209134d9540","Mozilla/5.0 (Windows NT 10.0; Win64; x64; rv:85.0) Gecko/20100101 Firefox/85.0","v1-up-stims","","","","","","","","40,50,60,70,80","media/audio/stims/spherical_300cm_s20_c10_cd-half_matched_a70.wav","spherical","20","10","half","matched","70","80","2561"
"echo-presentation","14","286512","0.0-14.0","5ef618993fecc70b5984e05c","60242478c74f84097a222710","602426852b1c7209134d9540","Mozilla/5.0 (Windows NT 10.0; Win64; x64; rv:85.0) Gecko/20100101 Firefox/85.0","v1-up-stims","","","","","","","","40,50,60,70,80","media/audio/stims/spherical_300cm_s20_c10_cd-half_matched_a40.wav","spherical","20","10","half","matched","40","50","2035"
"echo-presentation","15","291762","0.0-15.0","5ef618993fecc70b5984e05c","60242478c74f84097a222710","602426852b1c7209134d9540","Mozilla/5.0 (Windows NT 10.0; Win64; x64; rv:85.0) Gecko/20100101 Firefox/85.0","v1-up-stims","","","","","","","","40,50,60,70,80","media/audio/stims/spherical_300cm_s20_c10_cd-half_matched_a60.wav","spherical","20","10","half","matched","60","40","2737"
"echo-presentation","16","296027","0.0-16.0","5ef618993fecc70b5984e05c","60242478c74f84097a222710","602426852b1c7209134d9540","Mozilla/5.0 (Windows NT 10.0; Win64; x64; rv:85.0) Gecko/20100101 Firefox/85.0","v1-up-stims","","","","","","","","40,50,60,70,80","media/audio/stims/spherical_300cm_s20_c10_cd-half_matched_a80.wav","spherical","20","10","half","matched","80","50","2089"
"echo-presentation","17","301113","0.0-17.0","5ef618993fecc70b5984e05c","60242478c74f84097a222710","602426852b1c7209134d9540","Mozilla/5.0 (Windows NT 10.0; Win64; x64; rv:85.0) Gecko/20100101 Firefox/85.0","v1-up-stims","","","","","","","","40,50,60,70,80","media/audio/stims/spherical_300cm_s20_c10_cd-half_matched_a40.wav","spherical","20","10","half","matched","40","70","2131"
"echo-presentation","18","304578","0.0-18.0","5ef618993fecc70b5984e05c","60242478c74f84097a222710","602426852b1c7209134d9540","Mozilla/5.0 (Windows NT 10.0; Win64; x64; rv:85.0) Gecko/20100101 Firefox/85.0","v1-up-stims","","","","","","","","40,50,60,70,80","media/audio/stims/spherical_300cm_s20_c10_cd-half_matched_a50.wav","spherical","20","10","half","matched","50","80","1491"
"echo-presentation","19","308352","0.0-19.0","5ef618993fecc70b5984e05c","60242478c74f84097a222710","602426852b1c7209134d9540","Mozilla/5.0 (Windows NT 10.0; Win64; x64; rv:85.0) Gecko/20100101 Firefox/85.0","v1-up-stims","","","","","","","","40,50,60,70,80","media/audio/stims/spherical_300cm_s20_c10_cd-half_matched_a80.wav","spherical","20","10","half","matched","80","80","2639"
"echo-presentation","20","311447","0.0-20.0","5ef618993fecc70b5984e05c","60242478c74f84097a222710","602426852b1c7209134d9540","Mozilla/5.0 (Windows NT 10.0; Win64; x64; rv:85.0) Gecko/20100101 Firefox/85.0","v1-up-stims","","","","","","","","40,50,60,70,80","media/audio/stims/spherical_300cm_s20_c10_cd-half_matched_a40.wav","spherical","20","10","half","matched","40","70","1797"
"echo-presentation","21","316742","0.0-21.0","5ef618993fecc70b5984e05c","60242478c74f84097a222710","602426852b1c7209134d9540","Mozilla/5.0 (Windows NT 10.0; Win64; x64; rv:85.0) Gecko/20100101 Firefox/85.0","v1-up-stims","","","","","","","","40,50,60,70,80","media/audio/stims/spherical_300cm_s20_c10_cd-half_matched_a60.wav","spherical","20","10","half","matched","60","60","2179"
"echo-presentation","22","322262","0.0-22.0","5ef618993fecc70b5984e05c","60242478c74f84097a222710","602426852b1c7209134d9540","Mozilla/5.0 (Windows NT 10.0; Win64; x64; rv:85.0) Gecko/20100101 Firefox/85.0","v1-up-stims","","","","","","","","40,50,60,70,80","media/audio/stims/spherical_300cm_s20_c10_cd-half_matched_a50.wav","spherical","20","10","half","matched","50","40","2082"
"echo-presentation","23","327213","0.0-23.0","5ef618993fecc70b5984e05c","60242478c74f84097a222710","602426852b1c7209134d9540","Mozilla/5.0 (Windows NT 10.0; Win64; x64; rv:85.0) Gecko/20100101 Firefox/85.0","v1-up-stims","","","","","","","","40,50,60,70,80","media/audio/stims/spherical_300cm_s20_c10_cd-half_matched_a40.wav","spherical","20","10","half","matched","40","50","2208"
"echo-presentation","24","331127","0.0-24.0","5ef618993fecc70b5984e05c","60242478c74f84097a222710","602426852b1c7209134d9540","Mozilla/5.0 (Windows NT 10.0; Win64; x64; rv:85.0) Gecko/20100101 Firefox/85.0","v1-up-stims","","","","","","","","40,50,60,70,80","media/audio/stims/spherical_300cm_s20_c10_cd-half_matched_a80.wav","spherical","20","10","half","matched","80","70","1880"
"echo-presentation","25","334350","0.0-25.0","5ef618993fecc70b5984e05c","60242478c74f84097a222710","602426852b1c7209134d9540","Mozilla/5.0 (Windows NT 10.0; Win64; x64; rv:85.0) Gecko/20100101 Firefox/85.0","v1-up-stims","","","","","","","","40,50,60,70,80","media/audio/stims/spherical_300cm_s20_c10_cd-half_matched_a60.wav","spherical","20","10","half","matched","60","70","1879"
"echo-presentation","26","339067","0.0-26.0","5ef618993fecc70b5984e05c","60242478c74f84097a222710","602426852b1c7209134d9540","Mozilla/5.0 (Windows NT 10.0; Win64; x64; rv:85.0) Gecko/20100101 Firefox/85.0","v1-up-stims","","","","","","","","40,50,60,70,80","media/audio/stims/spherical_300cm_s20_c10_cd-half_matched_a80.wav","spherical","20","10","half","matched","80","80","3033"
"echo-presentation","27","342283","0.0-27.0","5ef618993fecc70b5984e05c","60242478c74f84097a222710","602426852b1c7209134d9540","Mozilla/5.0 (Windows NT 10.0; Win64; x64; rv:85.0) Gecko/20100101 Firefox/85.0","v1-up-stims","","","","","","","","40,50,60,70,80","media/audio/stims/spherical_300cm_s20_c10_cd-half_matched_a70.wav","spherical","20","10","half","matched","70","60","2012"
"block-bookend","28","347240","0.0-28.0","5ef618993fecc70b5984e05c","60242478c74f84097a222710","602426852b1c7209134d9540","Mozilla/5.0 (Windows NT 10.0; Win64; x64; rv:85.0) Gecko/20100101 Firefox/85.0","v1-up-stims","","","","","","","","","","","","","","","","",""
"block-bookend","29","363871","0.0-29.0","5ef618993fecc70b5984e05c","60242478c74f84097a222710","602426852b1c7209134d9540","Mozilla/5.0 (Windows NT 10.0; Win64; x64; rv:85.0) Gecko/20100101 Firefox/85.0","v1-up-stims","","","","","","","","","","","","","","","","",""
"echo-presentation","30","368402","0.0-30.0","5ef618993fecc70b5984e05c","60242478c74f84097a222710","602426852b1c7209134d9540","Mozilla/5.0 (Windows NT 10.0; Win64; x64; rv:85.0) Gecko/20100101 Firefox/85.0","v1-up-stims","","","","","","","","40,50,60,70,80","media/audio/stims/spherical_300cm_s20_c10_cd-half_matched_a60.wav","spherical","20","10","half","matched","60","40","2108"
"echo-presentation","31","371368","0.0-31.0","5ef618993fecc70b5984e05c","60242478c74f84097a222710","602426852b1c7209134d9540","Mozilla/5.0 (Windows NT 10.0; Win64; x64; rv:85.0) Gecko/20100101 Firefox/85.0","v1-up-stims","","","","","","","","40,50,60,70,80","media/audio/stims/spherical_300cm_s20_c10_cd-half_matched_a50.wav","spherical","20","10","half","matched","50","50","1536"
"echo-presentation","32","377492","0.0-32.0","5ef618993fecc70b5984e05c","60242478c74f84097a222710","602426852b1c7209134d9540","Mozilla/5.0 (Windows NT 10.0; Win64; x64; rv:85.0) Gecko/20100101 Firefox/85.0","v1-up-stims","","","","","","","","40,50,60,70,80","media/audio/stims/spherical_300cm_s20_c10_cd-half_matched_a60.wav","spherical","20","10","half","matched","60","60","3991"
"echo-presentation","33","386168","0.0-33.0","5ef618993fecc70b5984e05c","60242478c74f84097a222710","602426852b1c7209134d9540","Mozilla/5.0 (Windows NT 10.0; Win64; x64; rv:85.0) Gecko/20100101 Firefox/85.0","v1-up-stims","","","","","","","","40,50,60,70,80","media/audio/stims/spherical_300cm_s20_c10_cd-half_matched_a80.wav","spherical","20","10","half","matched","80","70","7126"
"echo-presentation","34","391582","0.0-34.0","5ef618993fecc70b5984e05c","60242478c74f84097a222710","602426852b1c7209134d9540","Mozilla/5.0 (Windows NT 10.0; Win64; x64; rv:85.0) Gecko/20100101 Firefox/85.0","v1-up-stims","","","","","","","","40,50,60,70,80","media/audio/stims/spherical_300cm_s20_c10_cd-half_matched_a40.wav","spherical","20","10","half","matched","40","80","3955"
"echo-presentation","35","395333","0.0-35.0","5ef618993fecc70b5984e05c","60242478c74f84097a222710","602426852b1c7209134d9540","Mozilla/5.0 (Windows NT 10.0; Win64; x64; rv:85.0) Gecko/20100101 Firefox/85.0","v1-up-stims","","","","","","","","40,50,60,70,80","media/audio/stims/spherical_300cm_s20_c10_cd-half_matched_a40.wav","spherical","20","10","half","matched","40","80","2413"
"echo-presentation","36","399642","0.0-36.0","5ef618993fecc70b5984e05c","60242478c74f84097a222710","602426852b1c7209134d9540","Mozilla/5.0 (Windows NT 10.0; Win64; x64; rv:85.0) Gecko/20100101 Firefox/85.0","v1-up-stims","","","","","","","","40,50,60,70,80","media/audio/stims/spherical_300cm_s20_c10_cd-half_matched_a50.wav","spherical","20","10","half","matched","50","70","2964"
"echo-presentation","37","404333","0.0-37.0","5ef618993fecc70b5984e05c","60242478c74f84097a222710","602426852b1c7209134d9540","Mozilla/5.0 (Windows NT 10.0; Win64; x64; rv:85.0) Gecko/20100101 Firefox/85.0","v1-up-stims","","","","","","","","40,50,60,70,80","media/audio/stims/spherical_300cm_s20_c10_cd-half_matched_a60.wav","spherical","20","10","half","matched","60","60","3098"
"echo-presentation","38","407242","0.0-38.0","5ef618993fecc70b5984e05c","60242478c74f84097a222710","602426852b1c7209134d9540","Mozilla/5.0 (Windows NT 10.0; Win64; x64; rv:85.0) Gecko/20100101 Firefox/85.0","v1-up-stims","","","","","","","","40,50,60,70,80","media/audio/stims/spherical_300cm_s20_c10_cd-half_matched_a80.wav","spherical","20","10","half","matched","80","80","1585"
"echo-presentation","39","409788","0.0-39.0","5ef618993fecc70b5984e05c","60242478c74f84097a222710","602426852b1c7209134d9540","Mozilla/5.0 (Windows NT 10.0; Win64; x64; rv:85.0) Gecko/20100101 Firefox/85.0","v1-up-stims","","","","","","","","40,50,60,70,80","media/audio/stims/spherical_300cm_s20_c10_cd-half_matched_a40.wav","spherical","20","10","half","matched","40","80","1658"
"echo-presentation","40","413137","0.0-40.0","5ef618993fecc70b5984e05c","60242478c74f84097a222710","602426852b1c7209134d9540","Mozilla/5.0 (Windows NT 10.0; Win64; x64; rv:85.0) Gecko/20100101 Firefox/85.0","v1-up-stims","","","","","","","","40,50,60,70,80","media/audio/stims/spherical_300cm_s20_c10_cd-half_matched_a70.wav","spherical","20","10","half","matched","70","70","2380"
"echo-presentation","41","421273","0.0-41.0","5ef618993fecc70b5984e05c","60242478c74f84097a222710","602426852b1c7209134d9540","Mozilla/5.0 (Windows NT 10.0; Win64; x64; rv:85.0) Gecko/20100101 Firefox/85.0","v1-up-stims","","","","","","","","40,50,60,70,80","media/audio/stims/spherical_300cm_s20_c10_cd-half_matched_a80.wav","spherical","20","10","half","matched","80","70","6548"
"echo-presentation","42","424315","0.0-42.0","5ef618993fecc70b5984e05c","60242478c74f84097a222710","602426852b1c7209134d9540","Mozilla/5.0 (Windows NT 10.0; Win64; x64; rv:85.0) Gecko/20100101 Firefox/85.0","v1-up-stims","","","","","","","","40,50,60,70,80","media/audio/stims/spherical_300cm_s20_c10_cd-half_matched_a70.wav","spherical","20","10","half","matched","70","80","1873"
"echo-presentation","43","427982","0.0-43.0","5ef618993fecc70b5984e05c","60242478c74f84097a222710","602426852b1c7209134d9540","Mozilla/5.0 (Windows NT 10.0; Win64; x64; rv:85.0) Gecko/20100101 Firefox/85.0","v1-up-stims","","","","","","","","40,50,60,70,80","media/audio/stims/spherical_300cm_s20_c10_cd-half_matched_a40.wav","spherical","20","10","half","matched","40","50","2432"
"echo-presentation","44","431697","0.0-44.0","5ef618993fecc70b5984e05c","60242478c74f84097a222710","602426852b1c7209134d9540","Mozilla/5.0 (Windows NT 10.0; Win64; x64; rv:85.0) Gecko/20100101 Firefox/85.0","v1-up-stims","","","","","","","","40,50,60,70,80","media/audio/stims/spherical_300cm_s20_c10_cd-half_matched_a50.wav","spherical","20","10","half","matched","50","80","2114"
"echo-presentation","45","434083","0.0-45.0","5ef618993fecc70b5984e05c","60242478c74f84097a222710","602426852b1c7209134d9540","Mozilla/5.0 (Windows NT 10.0; Win64; x64; rv:85.0) Gecko/20100101 Firefox/85.0","v1-up-stims","","","","","","","","40,50,60,70,80","media/audio/stims/spherical_300cm_s20_c10_cd-half_matched_a60.wav","spherical","20","10","half","matched","60","80","1437"
"echo-presentation","46","442052","0.0-46.0","5ef618993fecc70b5984e05c","60242478c74f84097a222710","602426852b1c7209134d9540","Mozilla/5.0 (Windows NT 10.0; Win64; x64; rv:85.0) Gecko/20100101 Firefox/85.0","v1-up-stims","","","","","","","","40,50,60,70,80","media/audio/stims/spherical_300cm_s20_c10_cd-half_matched_a70.wav","spherical","20","10","half","matched","70","70","6613"
"echo-presentation","47","444473","0.0-47.0","5ef618993fecc70b5984e05c","60242478c74f84097a222710","602426852b1c7209134d9540","Mozilla/5.0 (Windows NT 10.0; Win64; x64; rv:85.0) Gecko/20100101 Firefox/85.0","v1-up-stims","","","","","","","","40,50,60,70,80","media/audio/stims/spherical_300cm_s20_c10_cd-half_matched_a70.wav","spherical","20","10","half","matched","70","80","1456"
"echo-presentation","48","450113","0.0-48.0","5ef618993fecc70b5984e05c","60242478c74f84097a222710","602426852b1c7209134d9540","Mozilla/5.0 (Windows NT 10.0; Win64; x64; rv:85.0) Gecko/20100101 Firefox/85.0","v1-up-stims","","","","","","","","40,50,60,70,80","media/audio/stims/spherical_300cm_s20_c10_cd-half_matched_a50.wav","spherical","20","10","half","matched","50","60","4789"
"echo-presentation","49","453863","0.0-49.0","5ef618993fecc70b5984e05c","60242478c74f84097a222710","602426852b1c7209134d9540","Mozilla/5.0 (Windows NT 10.0; Win64; x64; rv:85.0) Gecko/20100101 Firefox/85.0","v1-up-stims","","","","","","","","40,50,60,70,80","media/audio/stims/spherical_300cm_s20_c10_cd-half_matched_a80.wav","spherical","20","10","half","matched","80","80","1623"
"block-bookend","50","457145","0.0-50.0","5ef618993fecc70b5984e05c","60242478c74f84097a222710","602426852b1c7209134d9540","Mozilla/5.0 (Windows NT 10.0; Win64; x64; rv:85.0) Gecko/20100101 Firefox/85.0","v1-up-stims","","","","","","","","","","","","","","","","",""
"block-bookend","51","466071","0.0-51.0","5ef618993fecc70b5984e05c","60242478c74f84097a222710","602426852b1c7209134d9540","Mozilla/5.0 (Windows NT 10.0; Win64; x64; rv:85.0) Gecko/20100101 Firefox/85.0","v1-up-stims","","","","","","","","","","","","","","","","",""
"echo-presentation","52","469922","0.0-52.0","5ef618993fecc70b5984e05c","60242478c74f84097a222710","602426852b1c7209134d9540","Mozilla/5.0 (Windows NT 10.0; Win64; x64; rv:85.0) Gecko/20100101 Firefox/85.0","v1-up-stims","","","","","","","","-80,-70,-60,-50,-40","media/audio/stims/spherical_300cm_s20_c10_cd-half_matched_a-60.wav","spherical","20","10","half","matched","-60","-70","2083"
"echo-presentation","53","472752","0.0-53.0","5ef618993fecc70b5984e05c","60242478c74f84097a222710","602426852b1c7209134d9540","Mozilla/5.0 (Windows NT 10.0; Win64; x64; rv:85.0) Gecko/20100101 Firefox/85.0","v1-up-stims","","","","","","","","-80,-70,-60,-50,-40","media/audio/stims/spherical_300cm_s20_c10_cd-half_matched_a-40.wav","spherical","20","10","half","matched","-40","-80","1561"
"echo-presentation","54","475462","0.0-54.0","5ef618993fecc70b5984e05c","60242478c74f84097a222710","602426852b1c7209134d9540","Mozilla/5.0 (Windows NT 10.0; Win64; x64; rv:85.0) Gecko/20100101 Firefox/85.0","v1-up-stims","","","","","","","","-80,-70,-60,-50,-40","media/audio/stims/spherical_300cm_s20_c10_cd-half_matched_a-80.wav","spherical","20","10","half","matched","-80","-80","1728"
"echo-presentation","55","478167","0.0-55.0","5ef618993fecc70b5984e05c","60242478c74f84097a222710","602426852b1c7209134d9540","Mozilla/5.0 (Windows NT 10.0; Win64; x64; rv:85.0) Gecko/20100101 Firefox/85.0","v1-up-stims","","","","","","","","-80,-70,-60,-50,-40","media/audio/stims/spherical_300cm_s20_c10_cd-half_matched_a-40.wav","spherical","20","10","half","matched","-40","-80","1596"
"echo-presentation","56","480637","0.0-56.0","5ef618993fecc70b5984e05c","60242478c74f84097a222710","602426852b1c7209134d9540","Mozilla/5.0 (Windows NT 10.0; Win64; x64; rv:85.0) Gecko/20100101 Firefox/85.0","v1-up-stims","","","","","","","","-80,-70,-60,-50,-40","media/audio/stims/spherical_300cm_s20_c10_cd-half_matched_a-60.wav","spherical","20","10","half","matched","-60","-70","1387"
"echo-presentation","57","483602","0.0-57.0","5ef618993fecc70b5984e05c","60242478c74f84097a222710","602426852b1c7209134d9540","Mozilla/5.0 (Windows NT 10.0; Win64; x64; rv:85.0) Gecko/20100101 Firefox/85.0","v1-up-stims","","","","","","","","-80,-70,-60,-50,-40","media/audio/stims/spherical_300cm_s20_c10_cd-half_matched_a-60.wav","spherical","20","10","half","matched","-60","-60","2013"
"echo-presentation","58","486212","0.0-58.0","5ef618993fecc70b5984e05c","60242478c74f84097a222710","602426852b1c7209134d9540","Mozilla/5.0 (Windows NT 10.0; Win64; x64; rv:85.0) Gecko/20100101 Firefox/85.0","v1-up-stims","","","","","","","","-80,-70,-60,-50,-40","media/audio/stims/spherical_300cm_s20_c10_cd-half_matched_a-80.wav","spherical","20","10","half","matched","-80","-80","1677"
"echo-presentation","59","488547","0.0-59.0","5ef618993fecc70b5984e05c","60242478c74f84097a222710","602426852b1c7209134d9540","Mozilla/5.0 (Windows NT 10.0; Win64; x64; rv:85.0) Gecko/20100101 Firefox/85.0","v1-up-stims","","","","","","","","-80,-70,-60,-50,-40","media/audio/stims/spherical_300cm_s20_c10_cd-half_matched_a-80.wav","spherical","20","10","half","matched","-80","-80","1316"
"echo-presentation","60","491302","0.0-60.0","5ef618993fecc70b5984e05c","60242478c74f84097a222710","602426852b1c7209134d9540","Mozilla/5.0 (Windows NT 10.0; Win64; x64; rv:85.0) Gecko/20100101 Firefox/85.0","v1-up-stims","","","","","","","","-80,-70,-60,-50,-40","media/audio/stims/spherical_300cm_s20_c10_cd-half_matched_a-50.wav","spherical","20","10","half","matched","-50","-60","1604"
"echo-presentation","61","494252","0.0-61.0","5ef618993fecc70b5984e05c","60242478c74f84097a222710","602426852b1c7209134d9540","Mozilla/5.0 (Windows NT 10.0; Win64; x64; rv:85.0) Gecko/20100101 Firefox/85.0","v1-up-stims","","","","","","","","-80,-70,-60,-50,-40","media/audio/stims/spherical_300cm_s20_c10_cd-half_matched_a-70.wav","spherical","20","10","half","matched","-70","-70","1772"
"echo-presentation","62","496393","0.0-62.0","5ef618993fecc70b5984e05c","60242478c74f84097a222710","602426852b1c7209134d9540","Mozilla/5.0 (Windows NT 10.0; Win64; x64; rv:85.0) Gecko/20100101 Firefox/85.0","v1-up-stims","","","","","","","","-80,-70,-60,-50,-40","media/audio/stims/spherical_300cm_s20_c10_cd-half_matched_a-40.wav","spherical","20","10","half","matched","-40","-80","1174"
"echo-presentation","63","499758","0.0-63.0","5ef618993fecc70b5984e05c","60242478c74f84097a222710","602426852b1c7209134d9540","Mozilla/5.0 (Windows NT 10.0; Win64; x64; rv:85.0) Gecko/20100101 Firefox/85.0","v1-up-stims","","","","","","","","-80,-70,-60,-50,-40","media/audio/stims/spherical_300cm_s20_c10_cd-half_matched_a-70.wav","spherical","20","10","half","matched","-70","-60","2060"
"echo-presentation","64","504018","0.0-64.0","5ef618993fecc70b5984e05c","60242478c74f84097a222710","602426852b1c7209134d9540","Mozilla/5.0 (Windows NT 10.0; Win64; x64; rv:85.0) Gecko/20100101 Firefox/85.0","v1-up-stims","","","","","","","","-80,-70,-60,-50,-40","media/audio/stims/spherical_300cm_s20_c10_cd-half_matched_a-50.wav","spherical","20","10","half","matched","-50","-60","3295"
"echo-presentation","65","506812","0.0-65.0","5ef618993fecc70b5984e05c","60242478c74f84097a222710","602426852b1c7209134d9540","Mozilla/5.0 (Windows NT 10.0; Win64; x64; rv:85.0) Gecko/20100101 Firefox/85.0","v1-up-stims","","","","","","","","-80,-70,-60,-50,-40","media/audio/stims/spherical_300cm_s20_c10_cd-half_matched_a-70.wav","spherical","20","10","half","matched","-70","-70","1723"
"echo-presentation","66","511503","0.0-66.0","5ef618993fecc70b5984e05c","60242478c74f84097a222710","602426852b1c7209134d9540","Mozilla/5.0 (Windows NT 10.0; Win64; x64; rv:85.0) Gecko/20100101 Firefox/85.0","v1-up-stims","","","","","","","","-80,-70,-60,-50,-40","media/audio/stims/spherical_300cm_s20_c10_cd-half_matched_a-40.wav","spherical","20","10","half","matched","-40","-60","3735"
"echo-presentation","67","514419","0.0-67.0","5ef618993fecc70b5984e05c","60242478c74f84097a222710","602426852b1c7209134d9540","Mozilla/5.0 (Windows NT 10.0; Win64; x64; rv:85.0) Gecko/20100101 Firefox/85.0","v1-up-stims","","","","","","","","-80,-70,-60,-50,-40","media/audio/stims/spherical_300cm_s20_c10_cd-half_matched_a-60.wav","spherical","20","10","half","matched","-60","-50","2054"
"echo-presentation","68","517167","0.0-68.0","5ef618993fecc70b5984e05c","60242478c74f84097a222710","602426852b1c7209134d9540","Mozilla/5.0 (Windows NT 10.0; Win64; x64; rv:85.0) Gecko/20100101 Firefox/85.0","v1-up-stims","","","","","","","","-80,-70,-60,-50,-40","media/audio/stims/spherical_300cm_s20_c10_cd-half_matched_a-50.wav","spherical","20","10","half","matched","-50","-40","1893"
"echo-presentation","69","519797","0.0-69.0","5ef618993fecc70b5984e05c","60242478c74f84097a222710","602426852b1c7209134d9540","Mozilla/5.0 (Windows NT 10.0; Win64; x64; rv:85.0) Gecko/20100101 Firefox/85.0","v1-up-stims","","","","","","","","-80,-70,-60,-50,-40","media/audio/stims/spherical_300cm_s20_c10_cd-half_matched_a-80.wav","spherical","20","10","half","matched","-80","-70","1538"
"echo-presentation","70","522878","0.0-70.0","5ef618993fecc70b5984e05c","60242478c74f84097a222710","602426852b1c7209134d9540","Mozilla/5.0 (Windows NT 10.0; Win64; x64; rv:85.0) Gecko/20100101 Firefox/85.0","v1-up-stims","","","","","","","","-80,-70,-60,-50,-40","media/audio/stims/spherical_300cm_s20_c10_cd-half_matched_a-70.wav","spherical","20","10","half","matched","-70","-60","1984"
"echo-presentation","71","525503","0.0-71.0","5ef618993fecc70b5984e05c","60242478c74f84097a222710","602426852b1c7209134d9540","Mozilla/5.0 (Windows NT 10.0; Win64; x64; rv:85.0) Gecko/20100101 Firefox/85.0","v1-up-stims","","","","","","","","-80,-70,-60,-50,-40","media/audio/stims/spherical_300cm_s20_c10_cd-half_matched_a-50.wav","spherical","20","10","half","matched","-50","-80","1457"
"block-bookend","72","527763","0.0-72.0","5ef618993fecc70b5984e05c","60242478c74f84097a222710","602426852b1c7209134d9540","Mozilla/5.0 (Windows NT 10.0; Win64; x64; rv:85.0) Gecko/20100101 Firefox/85.0","v1-up-stims","","","","","","","","","","","","","","","","",""
"block-bookend","73","534115","0.0-73.0","5ef618993fecc70b5984e05c","60242478c74f84097a222710","602426852b1c7209134d9540","Mozilla/5.0 (Windows NT 10.0; Win64; x64; rv:85.0) Gecko/20100101 Firefox/85.0","v1-up-stims","","","","","","","","","","","","","","","","",""
"echo-presentation","74","537192","0.0-74.0","5ef618993fecc70b5984e05c","60242478c74f84097a222710","602426852b1c7209134d9540","Mozilla/5.0 (Windows NT 10.0; Win64; x64; rv:85.0) Gecko/20100101 Firefox/85.0","v1-up-stims","","","","","","","","-80,-70,-60,-50,-40","media/audio/stims/spherical_300cm_s20_c10_cd-half_matched_a-60.wav","spherical","20","10","half","matched","-60","-70","1195"
"echo-presentation","75","539327","0.0-75.0","5ef618993fecc70b5984e05c","60242478c74f84097a222710","602426852b1c7209134d9540","Mozilla/5.0 (Windows NT 10.0; Win64; x64; rv:85.0) Gecko/20100101 Firefox/85.0","v1-up-stims","","","","","","","","-80,-70,-60,-50,-40","media/audio/stims/spherical_300cm_s20_c10_cd-half_matched_a-70.wav","spherical","20","10","half","matched","-70","-60","1321"
"echo-presentation","76","542648","0.0-76.0","5ef618993fecc70b5984e05c","60242478c74f84097a222710","602426852b1c7209134d9540","Mozilla/5.0 (Windows NT 10.0; Win64; x64; rv:85.0) Gecko/20100101 Firefox/85.0","v1-up-stims","","","","","","","","-80,-70,-60,-50,-40","media/audio/stims/spherical_300cm_s20_c10_cd-half_matched_a-60.wav","spherical","20","10","half","matched","-60","-40","1932"
"echo-presentation","77","544583","0.0-77.0","5ef618993fecc70b5984e05c","60242478c74f84097a222710","602426852b1c7209134d9540","Mozilla/5.0 (Windows NT 10.0; Win64; x64; rv:85.0) Gecko/20100101 Firefox/85.0","v1-up-stims","","","","","","","","-80,-70,-60,-50,-40","media/audio/stims/spherical_300cm_s20_c10_cd-half_matched_a-80.wav","spherical","20","10","half","matched","-80","-80","985"
"echo-presentation","78","549853","0.0-78.0","5ef618993fecc70b5984e05c","60242478c74f84097a222710","602426852b1c7209134d9540","Mozilla/5.0 (Windows NT 10.0; Win64; x64; rv:85.0) Gecko/20100101 Firefox/85.0","v1-up-stims","","","","","","","","-80,-70,-60,-50,-40","media/audio/stims/spherical_300cm_s20_c10_cd-half_matched_a-70.wav","spherical","20","10","half","matched","-70","-60","4422"
"echo-presentation","79","551977","0.0-79.0","5ef618993fecc70b5984e05c","60242478c74f84097a222710","602426852b1c7209134d9540","Mozilla/5.0 (Windows NT 10.0; Win64; x64; rv:85.0) Gecko/20100101 Firefox/85.0","v1-up-stims","","","","","","","","-80,-70,-60,-50,-40","media/audio/stims/spherical_300cm_s20_c10_cd-half_matched_a-70.wav","spherical","20","10","half","matched","-70","-50","1345"
"echo-presentation","80","556252","0.0-80.0","5ef618993fecc70b5984e05c","60242478c74f84097a222710","602426852b1c7209134d9540","Mozilla/5.0 (Windows NT 10.0; Win64; x64; rv:85.0) Gecko/20100101 Firefox/85.0","v1-up-stims","","","","","","","","-80,-70,-60,-50,-40","media/audio/stims/spherical_300cm_s20_c10_cd-half_matched_a-50.wav","spherical","20","10","half","matched","-50","-70","3363"
"echo-presentation","81","558372","0.0-81.0","5ef618993fecc70b5984e05c","60242478c74f84097a222710","602426852b1c7209134d9540","Mozilla/5.0 (Windows NT 10.0; Win64; x64; rv:85.0) Gecko/20100101 Firefox/85.0","v1-up-stims","","","","","","","","-80,-70,-60,-50,-40","media/audio/stims/spherical_300cm_s20_c10_cd-half_matched_a-80.wav","spherical","20","10","half","matched","-80","-80","1302"
"echo-presentation","82","560442","0.0-82.0","5ef618993fecc70b5984e05c","60242478c74f84097a222710","602426852b1c7209134d9540","Mozilla/5.0 (Windows NT 10.0; Win64; x64; rv:85.0) Gecko/20100101 Firefox/85.0","v1-up-stims","","","","","","","","-80,-70,-60,-50,-40","media/audio/stims/spherical_300cm_s20_c10_cd-half_matched_a-80.wav","spherical","20","10","half","matched","-80","-70","1268"
"echo-presentation","83","564397","0.0-83.0","5ef618993fecc70b5984e05c","60242478c74f84097a222710","602426852b1c7209134d9540","Mozilla/5.0 (Windows NT 10.0; Win64; x64; rv:85.0) Gecko/20100101 Firefox/85.0","v1-up-stims","","","","","","","","-80,-70,-60,-50,-40","media/audio/stims/spherical_300cm_s20_c10_cd-half_matched_a-60.wav","spherical","20","10","half","matched","-60","-80","2992"
"echo-presentation","84","566187","0.0-84.0","5ef618993fecc70b5984e05c","60242478c74f84097a222710","602426852b1c7209134d9540","Mozilla/5.0 (Windows NT 10.0; Win64; x64; rv:85.0) Gecko/20100101 Firefox/85.0","v1-up-stims","","","","","","","","-80,-70,-60,-50,-40","media/audio/stims/spherical_300cm_s20_c10_cd-half_matched_a-50.wav","spherical","20","10","half","matched","-50","-80","1230"
"echo-presentation","85","568293","0.0-85.0","5ef618993fecc70b5984e05c","60242478c74f84097a222710","602426852b1c7209134d9540","Mozilla/5.0 (Windows NT 10.0; Win64; x64; rv:85.0) Gecko/20100101 Firefox/85.0","v1-up-stims","","","","","","","","-80,-70,-60,-50,-40","media/audio/stims/spherical_300cm_s20_c10_cd-half_matched_a-80.wav","spherical","20","10","half","matched","-80","-60","1209"
"echo-presentation","86","571722","0.0-86.0","5ef618993fecc70b5984e05c","60242478c74f84097a222710","602426852b1c7209134d9540","Mozilla/5.0 (Windows NT 10.0; Win64; x64; rv:85.0) Gecko/20100101 Firefox/85.0","v1-up-stims","","","","","","","","-80,-70,-60,-50,-40","media/audio/stims/spherical_300cm_s20_c10_cd-half_matched_a-70.wav","spherical","20","10","half","matched","-70","-70","2313"
"echo-presentation","87","576632","0.0-87.0","5ef618993fecc70b5984e05c","60242478c74f84097a222710","602426852b1c7209134d9540","Mozilla/5.0 (Windows NT 10.0; Win64; x64; rv:85.0) Gecko/20100101 Firefox/85.0","v1-up-stims","","","","","","","","-80,-70,-60,-50,-40","media/audio/stims/spherical_300cm_s20_c10_cd-half_matched_a-50.wav","spherical","20","10","half","matched","-50","-50","3764"
"echo-presentation","88","578822","0.0-88.0","5ef618993fecc70b5984e05c","60242478c74f84097a222710","602426852b1c7209134d9540","Mozilla/5.0 (Windows NT 10.0; Win64; x64; rv:85.0) Gecko/20100101 Firefox/85.0","v1-up-stims","","","","","","","","-80,-70,-60,-50,-40","media/audio/stims/spherical_300cm_s20_c10_cd-half_matched_a-40.wav","spherical","20","10","half","matched","-40","-50","1379"
"echo-presentation","89","581553","0.0-89.0","5ef618993fecc70b5984e05c","60242478c74f84097a222710","602426852b1c7209134d9540","Mozilla/5.0 (Windows NT 10.0; Win64; x64; rv:85.0) Gecko/20100101 Firefox/85.0","v1-up-stims","","","","","","","","-80,-70,-60,-50,-40","media/audio/stims/spherical_300cm_s20_c10_cd-half_matched_a-40.wav","spherical","20","10","half","matched","-40","-50","1527"
"echo-presentation","90","584233","0.0-90.0","5ef618993fecc70b5984e05c","60242478c74f84097a222710","602426852b1c7209134d9540","Mozilla/5.0 (Windows NT 10.0; Win64; x64; rv:85.0) Gecko/20100101 Firefox/85.0","v1-up-stims","","","","","","","","-80,-70,-60,-50,-40","media/audio/stims/spherical_300cm_s20_c10_cd-half_matched_a-60.wav","spherical","20","10","half","matched","-60","-80","1718"
"echo-presentation","91","587698","0.0-91.0","5ef618993fecc70b5984e05c","60242478c74f84097a222710","602426852b1c7209134d9540","Mozilla/5.0 (Windows NT 10.0; Win64; x64; rv:85.0) Gecko/20100101 Firefox/85.0","v1-up-stims","","","","","","","","-80,-70,-60,-50,-40","media/audio/stims/spherical_300cm_s20_c10_cd-half_matched_a-50.wav","spherical","20","10","half","matched","-50","-70","2661"
"echo-presentation","92","590002","0.0-92.0","5ef618993fecc70b5984e05c","60242478c74f84097a222710","602426852b1c7209134d9540","Mozilla/5.0 (Windows NT 10.0; Win64; x64; rv:85.0) Gecko/20100101 Firefox/85.0","v1-up-stims","","","","","","","","-80,-70,-60,-50,-40","media/audio/stims/spherical_300cm_s20_c10_cd-half_matched_a-40.wav","spherical","20","10","half","matched","-40","-80","1314"
"echo-presentation","93","592343","0.0-93.0","5ef618993fecc70b5984e05c","60242478c74f84097a222710","602426852b1c7209134d9540","Mozilla/5.0 (Windows NT 10.0; Win64; x64; rv:85.0) Gecko/20100101 Firefox/85.0","v1-up-stims","","","","","","","","-80,-70,-60,-50,-40","media/audio/stims/spherical_300cm_s20_c10_cd-half_matched_a-40.wav","spherical","20","10","half","matched","-40","-80","1287"
"block-bookend","94","594137","0.0-94.0","5ef618993fecc70b5984e05c","60242478c74f84097a222710","602426852b1c7209134d9540","Mozilla/5.0 (Windows NT 10.0; Win64; x64; rv:85.0) Gecko/20100101 Firefox/85.0","v1-up-stims","","","","","","","","","","","","","","","","",""
"block-bookend","95","601460","0.0-95.0","5ef618993fecc70b5984e05c","60242478c74f84097a222710","602426852b1c7209134d9540","Mozilla/5.0 (Windows NT 10.0; Win64; x64; rv:85.0) Gecko/20100101 Firefox/85.0","v1-up-stims","","","","","","","","","","","","","","","","",""
"echo-presentation","96","604252","0.0-96.0","5ef618993fecc70b5984e05c","60242478c74f84097a222710","602426852b1c7209134d9540","Mozilla/5.0 (Windows NT 10.0; Win64; x64; rv:85.0) Gecko/20100101 Firefox/85.0","v1-up-stims","","","","","","","","-20,-10,0,10,20","media/audio/stims/spherical_300cm_s20_c10_cd-half_matched_a20.wav","spherical","20","10","half","matched","20","20","1633"
"echo-presentation","97","607072","0.0-97.0","5ef618993fecc70b5984e05c","60242478c74f84097a222710","602426852b1c7209134d9540","Mozilla/5.0 (Windows NT 10.0; Win64; x64; rv:85.0) Gecko/20100101 Firefox/85.0","v1-up-stims","","","","","","","","-20,-10,0,10,20","media/audio/stims/spherical_300cm_s20_c10_cd-half_matched_a-10.wav","spherical","20","10","half","matched","-10","-10","1689"
"echo-presentation","98","613763","0.0-98.0","5ef618993fecc70b5984e05c","60242478c74f84097a222710","602426852b1c7209134d9540","Mozilla/5.0 (Windows NT 10.0; Win64; x64; rv:85.0) Gecko/20100101 Firefox/85.0","v1-up-stims","","","","","","","","-20,-10,0,10,20","media/audio/stims/spherical_300cm_s20_c10_cd-half_matched_a10.wav","spherical","20","10","half","matched","10","10","2244"
"echo-presentation","99","616342","0.0-99.0","5ef618993fecc70b5984e05c","60242478c74f84097a222710","602426852b1c7209134d9540","Mozilla/5.0 (Windows NT 10.0; Win64; x64; rv:85.0) Gecko/20100101 Firefox/85.0","v1-up-stims","","","","","","","","-20,-10,0,10,20","media/audio/stims/spherical_300cm_s20_c10_cd-half_matched_a20.wav","spherical","20","10","half","matched","20","20","1443"
"echo-presentation","100","619652","0.0-100.0","5ef618993fecc70b5984e05c","60242478c74f84097a222710","602426852b1c7209134d9540","Mozilla/5.0 (Windows NT 10.0; Win64; x64; rv:85.0) Gecko/20100101 Firefox/85.0","v1-up-stims","","","","","","","","-20,-10,0,10,20","media/audio/stims/spherical_300cm_s20_c10_cd-half_matched_a10.wav","spherical","20","10","half","matched","10","-10","1927"
"echo-presentation","101","627012","0.0-101.0","5ef618993fecc70b5984e05c","60242478c74f84097a222710","602426852b1c7209134d9540","Mozilla/5.0 (Windows NT 10.0; Win64; x64; rv:85.0) Gecko/20100101 Firefox/85.0","v1-up-stims","","","","","","","","-20,-10,0,10,20","media/audio/stims/spherical_300cm_s20_c10_cd-half_matched_a10.wav","spherical","20","10","half","matched","10","0","6303"
"echo-presentation","102","629542","0.0-102.0","5ef618993fecc70b5984e05c","60242478c74f84097a222710","602426852b1c7209134d9540","Mozilla/5.0 (Windows NT 10.0; Win64; x64; rv:85.0) Gecko/20100101 Firefox/85.0","v1-up-stims","","","","","","","","-20,-10,0,10,20","media/audio/stims/spherical_300cm_s20_c10_cd-half_matched_a-20.wav","spherical","20","10","half","matched","-20","-20","1312"
"echo-presentation","103","633584","0.0-103.0","5ef618993fecc70b5984e05c","60242478c74f84097a222710","602426852b1c7209134d9540","Mozilla/5.0 (Windows NT 10.0; Win64; x64; rv:85.0) Gecko/20100101 Firefox/85.0","v1-up-stims","","","","","","","","-20,-10,0,10,20","media/audio/stims/spherical_300cm_s20_c10_cd-half_matched_a10.wav","spherical","20","10","half","matched","10","-10","3209"
"echo-presentation","104","637672","0.0-104.0","5ef618993fecc70b5984e05c","60242478c74f84097a222710","602426852b1c7209134d9540","Mozilla/5.0 (Windows NT 10.0; Win64; x64; rv:85.0) Gecko/20100101 Firefox/85.0","v1-up-stims","","","","","","","","-20,-10,0,10,20","media/audio/stims/spherical_300cm_s20_c10_cd-half_matched_a0.wav","spherical","20","10","half","matched","0","10","2511"
"echo-presentation","105","643142","0.0-105.0","5ef618993fecc70b5984e05c","60242478c74f84097a222710","602426852b1c7209134d9540","Mozilla/5.0 (Windows NT 10.0; Win64; x64; rv:85.0) Gecko/20100101 Firefox/85.0","v1-up-stims","","","","","","","","-20,-10,0,10,20","media/audio/stims/spherical_300cm_s20_c10_cd-half_matched_a-10.wav","spherical","20","10","half","matched","-10","0","4093"
"echo-presentation","106","646222","0.0-106.0","5ef618993fecc70b5984e05c","60242478c74f84097a222710","602426852b1c7209134d9540","Mozilla/5.0 (Windows NT 10.0; Win64; x64; rv:85.0) Gecko/20100101 Firefox/85.0","v1-up-stims","","","","","","","","-20,-10,0,10,20","media/audio/stims/spherical_300cm_s20_c10_cd-half_matched_a20.wav","spherical","20","10","half","matched","20","20","1275"
"echo-presentation","107","649152","0.0-107.0","5ef618993fecc70b5984e05c","60242478c74f84097a222710","602426852b1c7209134d9540","Mozilla/5.0 (Windows NT 10.0; Win64; x64; rv:85.0) Gecko/20100101 Firefox/85.0","v1-up-stims","","","","","","","","-20,-10,0,10,20","media/audio/stims/spherical_300cm_s20_c10_cd-half_matched_a20.wav","spherical","20","10","half","matched","20","20","1972"
"echo-presentation","108","651932","0.0-108.0","5ef618993fecc70b5984e05c","60242478c74f84097a222710","602426852b1c7209134d9540","Mozilla/5.0 (Windows NT 10.0; Win64; x64; rv:85.0) Gecko/20100101 Firefox/85.0","v1-up-stims","","","","","","","","-20,-10,0,10,20","media/audio/stims/spherical_300cm_s20_c10_cd-half_matched_a-20.wav","spherical","20","10","half","matched","-20","-10","1886"
"echo-presentation","109","655968","0.0-109.0","5ef618993fecc70b5984e05c","60242478c74f84097a222710","602426852b1c7209134d9540","Mozilla/5.0 (Windows NT 10.0; Win64; x64; rv:85.0) Gecko/20100101 Firefox/85.0","v1-up-stims","","","","","","","","-20,-10,0,10,20","media/audio/stims/spherical_300cm_s20_c10_cd-half_matched_a0.wav","spherical","20","10","half","matched","0","-10","2560"
"echo-presentation","110","661592","0.0-110.0","5ef618993fecc70b5984e05c","60242478c74f84097a222710","602426852b1c7209134d9540","Mozilla/5.0 (Windows NT 10.0; Win64; x64; rv:85.0) Gecko/20100101 Firefox/85.0","v1-up-stims","","","","","","","","-20,-10,0,10,20","media/audio/stims/spherical_300cm_s20_c10_cd-half_matched_a0.wav","spherical","20","10","half","matched","0","10","4218"
"echo-presentation","111","664923","0.0-111.0","5ef618993fecc70b5984e05c","60242478c74f84097a222710","602426852b1c7209134d9540","Mozilla/5.0 (Windows NT 10.0; Win64; x64; rv:85.0) Gecko/20100101 Firefox/85.0","v1-up-stims","","","","","","","","-20,-10,0,10,20","media/audio/stims/spherical_300cm_s20_c10_cd-half_matched_a0.wav","spherical","20","10","half","matched","0","-10","2175"
"echo-presentation","112","667572","0.0-112.0","5ef618993fecc70b5984e05c","60242478c74f84097a222710","602426852b1c7209134d9540","Mozilla/5.0 (Windows NT 10.0; Win64; x64; rv:85.0) Gecko/20100101 Firefox/85.0","v1-up-stims","","","","","","","","-20,-10,0,10,20","media/audio/stims/spherical_300cm_s20_c10_cd-half_matched_a-20.wav","spherical","20","10","half","matched","-20","-10","1302"
"echo-presentation","113","669862","0.0-113.0","5ef618993fecc70b5984e05c","60242478c74f84097a222710","602426852b1c7209134d9540","Mozilla/5.0 (Windows NT 10.0; Win64; x64; rv:85.0) Gecko/20100101 Firefox/85.0","v1-up-stims","","","","","","","","-20,-10,0,10,20","media/audio/stims/spherical_300cm_s20_c10_cd-half_matched_a-10.wav","spherical","20","10","half","matched","-10","-20","1198"
"echo-presentation","114","672442","0.0-114.0","5ef618993fecc70b5984e05c","60242478c74f84097a222710","602426852b1c7209134d9540","Mozilla/5.0 (Windows NT 10.0; Win64; x64; rv:85.0) Gecko/20100101 Firefox/85.0","v1-up-stims","","","","","","","","-20,-10,0,10,20","media/audio/stims/spherical_300cm_s20_c10_cd-half_matched_a-20.wav","spherical","20","10","half","matched","-20","-20","1500"
"echo-presentation","115","677973","0.0-115.0","5ef618993fecc70b5984e05c","60242478c74f84097a222710","602426852b1c7209134d9540","Mozilla/5.0 (Windows NT 10.0; Win64; x64; rv:85.0) Gecko/20100101 Firefox/85.0","v1-up-stims","","","","","","","","-20,-10,0,10,20","media/audio/stims/spherical_300cm_s20_c10_cd-half_matched_a-10.wav","spherical","20","10","half","matched","-10","20","3636"
"block-bookend","116","680348","0.0-116.0","5ef618993fecc70b5984e05c","60242478c74f84097a222710","602426852b1c7209134d9540","Mozilla/5.0 (Windows NT 10.0; Win64; x64; rv:85.0) Gecko/20100101 Firefox/85.0","v1-up-stims","","","","","","","","","","","","","","","","",""
"block-bookend","117","694333","0.0-117.0","5ef618993fecc70b5984e05c","60242478c74f84097a222710","602426852b1c7209134d9540","Mozilla/5.0 (Windows NT 10.0; Win64; x64; rv:85.0) Gecko/20100101 Firefox/85.0","v1-up-stims","","","","","","","","","","","","","","","","",""
"echo-presentation","118","698612","0.0-118.0","5ef618993fecc70b5984e05c","60242478c74f84097a222710","602426852b1c7209134d9540","Mozilla/5.0 (Windows NT 10.0; Win64; x64; rv:85.0) Gecko/20100101 Firefox/85.0","v1-up-stims","","","","","","","","-20,-10,0,10,20","media/audio/stims/spherical_300cm_s20_c10_cd-half_matched_a10.wav","spherical","20","10","half","matched","10","10","1695"
"echo-presentation","119","701412","0.0-119.0","5ef618993fecc70b5984e05c","60242478c74f84097a222710","602426852b1c7209134d9540","Mozilla/5.0 (Windows NT 10.0; Win64; x64; rv:85.0) Gecko/20100101 Firefox/85.0","v1-up-stims","","","","","","","","-20,-10,0,10,20","media/audio/stims/spherical_300cm_s20_c10_cd-half_matched_a-10.wav","spherical","20","10","half","matched","-10","0","1579"
"echo-presentation","120","703552","0.0-120.0","5ef618993fecc70b5984e05c","60242478c74f84097a222710","602426852b1c7209134d9540","Mozilla/5.0 (Windows NT 10.0; Win64; x64; rv:85.0) Gecko/20100101 Firefox/85.0","v1-up-stims","","","","","","","","-20,-10,0,10,20","media/audio/stims/spherical_300cm_s20_c10_cd-half_matched_a0.wav","spherical","20","10","half","matched","0","-10","1358"
"echo-presentation","121","705401","0.0-121.0","5ef618993fecc70b5984e05c","60242478c74f84097a222710","602426852b1c7209134d9540","Mozilla/5.0 (Windows NT 10.0; Win64; x64; rv:85.0) Gecko/20100101 Firefox/85.0","v1-up-stims","","","","","","","","-20,-10,0,10,20","media/audio/stims/spherical_300cm_s20_c10_cd-half_matched_a-10.wav","spherical","20","10","half","matched","-10","-20","1016"
"echo-presentation","122","708462","0.0-122.0","5ef618993fecc70b5984e05c","60242478c74f84097a222710","602426852b1c7209134d9540","Mozilla/5.0 (Windows NT 10.0; Win64; x64; rv:85.0) Gecko/20100101 Firefox/85.0","v1-up-stims","","","","","","","","-20,-10,0,10,20","media/audio/stims/spherical_300cm_s20_c10_cd-half_matched_a0.wav","spherical","20","10","half","matched","0","-10","1830"
"echo-presentation","123","711112","0.0-123.0","5ef618993fecc70b5984e05c","60242478c74f84097a222710","602426852b1c7209134d9540","Mozilla/5.0 (Windows NT 10.0; Win64; x64; rv:85.0) Gecko/20100101 Firefox/85.0","v1-up-stims","","","","","","","","-20,-10,0,10,20","media/audio/stims/spherical_300cm_s20_c10_cd-half_matched_a10.wav","spherical","20","10","half","matched","10","0","1748"
"echo-presentation","124","713362","0.0-124.0","5ef618993fecc70b5984e05c","60242478c74f84097a222710","602426852b1c7209134d9540","Mozilla/5.0 (Windows NT 10.0; Win64; x64; rv:85.0) Gecko/20100101 Firefox/85.0","v1-up-stims","","","","","","","","-20,-10,0,10,20","media/audio/stims/spherical_300cm_s20_c10_cd-half_matched_a10.wav","spherical","20","10","half","matched","10","10","1477"
"echo-presentation","125","715702","0.0-125.0","5ef618993fecc70b5984e05c","60242478c74f84097a222710","602426852b1c7209134d9540","Mozilla/5.0 (Windows NT 10.0; Win64; x64; rv:85.0) Gecko/20100101 Firefox/85.0","v1-up-stims","","","","","","","","-20,-10,0,10,20","media/audio/stims/spherical_300cm_s20_c10_cd-half_matched_a-10.wav","spherical","20","10","half","matched","-10","20","1496"
"echo-presentation","126","717957","0.0-126.0","5ef618993fecc70b5984e05c","60242478c74f84097a222710","602426852b1c7209134d9540","Mozilla/5.0 (Windows NT 10.0; Win64; x64; rv:85.0) Gecko/20100101 Firefox/85.0","v1-up-stims","","","","","","","","-20,-10,0,10,20","media/audio/stims/spherical_300cm_s20_c10_cd-half_matched_a10.wav","spherical","20","10","half","matched","10","20","1278"
"echo-presentation","127","720357","0.0-127.0","5ef618993fecc70b5984e05c","60242478c74f84097a222710","602426852b1c7209134d9540","Mozilla/5.0 (Windows NT 10.0; Win64; x64; rv:85.0) Gecko/20100101 Firefox/85.0","v1-up-stims","","","","","","","","-20,-10,0,10,20","media/audio/stims/spherical_300cm_s20_c10_cd-half_matched_a-20.wav","spherical","20","10","half","matched","-20","-20","1242"
"echo-presentation","128","722622","0.0-128.0","5ef618993fecc70b5984e05c","60242478c74f84097a222710","602426852b1c7209134d9540","Mozilla/5.0 (Windows NT 10.0; Win64; x64; rv:85.0) Gecko/20100101 Firefox/85.0","v1-up-stims","","","","","","","","-20,-10,0,10,20","media/audio/stims/spherical_300cm_s20_c10_cd-half_matched_a20.wav","spherical","20","10","half","matched","20","20","1322"
"echo-presentation","129","725122","0.0-129.0","5ef618993fecc70b5984e05c","60242478c74f84097a222710","602426852b1c7209134d9540","Mozilla/5.0 (Windows NT 10.0; Win64; x64; rv:85.0) Gecko/20100101 Firefox/85.0","v1-up-stims","","","","","","","","-20,-10,0,10,20","media/audio/stims/spherical_300cm_s20_c10_cd-half_matched_a20.wav","spherical","20","10","half","matched","20","0","1654"
"echo-presentation","130","727457","0.0-130.0","5ef618993fecc70b5984e05c","60242478c74f84097a222710","602426852b1c7209134d9540","Mozilla/5.0 (Windows NT 10.0; Win64; x64; rv:85.0) Gecko/20100101 Firefox/85.0","v1-up-stims","","","","","","","","-20,-10,0,10,20","media/audio/stims/spherical_300cm_s20_c10_cd-half_matched_a20.wav","spherical","20","10","half","matched","20","20","1375"
"echo-presentation","131","729677","0.0-131.0","5ef618993fecc70b5984e05c","60242478c74f84097a222710","602426852b1c7209134d9540","Mozilla/5.0 (Windows NT 10.0; Win64; x64; rv:85.0) Gecko/20100101 Firefox/85.0","v1-up-stims","","","","","","","","-20,-10,0,10,20","media/audio/stims/spherical_300cm_s20_c10_cd-half_matched_a-20.wav","spherical","20","10","half","matched","-20","-20","1452"
"echo-presentation","132","732512","0.0-132.0","5ef618993fecc70b5984e05c","60242478c74f84097a222710","602426852b1c7209134d9540","Mozilla/5.0 (Windows NT 10.0; Win64; x64; rv:85.0) Gecko/20100101 Firefox/85.0","v1-up-stims","","","","","","","","-20,-10,0,10,20","media/audio/stims/spherical_300cm_s20_c10_cd-half_matched_a0.wav","spherical","20","10","half","matched","0","10","1952"
"echo-presentation","133","734603","0.0-133.0","5ef618993fecc70b5984e05c","60242478c74f84097a222710","602426852b1c7209134d9540","Mozilla/5.0 (Windows NT 10.0; Win64; x64; rv:85.0) Gecko/20100101 Firefox/85.0","v1-up-stims","","","","","","","","-20,-10,0,10,20","media/audio/stims/spherical_300cm_s20_c10_cd-half_matched_a0.wav","spherical","20","10","half","matched","0","-10","1169"
"echo-presentation","134","736877","0.0-134.0","5ef618993fecc70b5984e05c","60242478c74f84097a222710","602426852b1c7209134d9540","Mozilla/5.0 (Windows NT 10.0; Win64; x64; rv:85.0) Gecko/20100101 Firefox/85.0","v1-up-stims","","","","","","","","-20,-10,0,10,20","media/audio/stims/spherical_300cm_s20_c10_cd-half_matched_a20.wav","spherical","20","10","half","matched","20","20","1407"
"echo-presentation","135","739189","0.0-135.0","5ef618993fecc70b5984e05c","60242478c74f84097a222710","602426852b1c7209134d9540","Mozilla/5.0 (Windows NT 10.0; Win64; x64; rv:85.0) Gecko/20100101 Firefox/85.0","v1-up-stims","","","","","","","","-20,-10,0,10,20","media/audio/stims/spherical_300cm_s20_c10_cd-half_matched_a-20.wav","spherical","20","10","half","matched","-20","-20","1379"
"echo-presentation","136","741622","0.0-136.0","5ef618993fecc70b5984e05c","60242478c74f84097a222710","602426852b1c7209134d9540","Mozilla/5.0 (Windows NT 10.0; Win64; x64; rv:85.0) Gecko/20100101 Firefox/85.0","v1-up-stims","","","","","","","","-20,-10,0,10,20","media/audio/stims/spherical_300cm_s20_c10_cd-half_matched_a-10.wav","spherical","20","10","half","matched","-10","-10","1389"
"echo-presentation","137","746712","0.0-137.0","5ef618993fecc70b5984e05c","60242478c74f84097a222710","602426852b1c7209134d9540","Mozilla/5.0 (Windows NT 10.0; Win64; x64; rv:85.0) Gecko/20100101 Firefox/85.0","v1-up-stims","","","","","","","","-20,-10,0,10,20","media/audio/stims/spherical_300cm_s20_c10_cd-half_matched_a-20.wav","spherical","20","10","half","matched","-20","10","4172"
"block-bookend","138","748803","0.0-138.0","5ef618993fecc70b5984e05c","60242478c74f84097a222710","602426852b1c7209134d9540","Mozilla/5.0 (Windows NT 10.0; Win64; x64; rv:85.0) Gecko/20100101 Firefox/85.0","v1-up-stims","","","","","","","","","","","","","","","","",""
