"trial_type","trial_index","time_elapsed","internal_node_id","prolificPid","studyId","sessionId","userAgent","version","rt","stimulus","key_press","chosenKeyset","failureCount","testIndex","globalVolume","choices","filename","modelName","slowdown","compensation","compensationDescriptor","receiverOrientationType","azimuth","responseAzimuth","responseDelay"
"pavlovia","0","15","0.0-0.0","5e328fc0a7365325cc819dae","60242478c74f84097a222710","602425d69c8de90982d6a74b","Mozilla/5.0 (Macintosh; Intel Mac OS X 10_15_6) AppleWebKit/605.1.15 (KHTML, like Gecko) Version/14.0 Safari/605.1.15","v1-up-stims","","","","","","","","","","","","","","","","",""
"html-keyboard-response","1","2266","0.0-1.0","5e328fc0a7365325cc819dae","60242478c74f84097a222710","602425d69c8de90982d6a74b","Mozilla/5.0 (Macintosh; Intel Mac OS X 10_15_6) AppleWebKit/605.1.15 (KHTML, like Gecko) Version/14.0 Safari/605.1.15","v1-up-stims","2248","<div><h1>Welcome!</h1><p>Press any key to continue.</p></div>","87","","","","","","","","","","","","","",""
"consent-form","2","17822","0.0-2.0","5e328fc0a7365325cc819dae","60242478c74f84097a222710","602425d69c8de90982d6a74b","Mozilla/5.0 (Macintosh; Intel Mac OS X 10_15_6) AppleWebKit/605.1.15 (KHTML, like Gecko) Version/14.0 Safari/605.1.15","v1-up-stims","","","","","","","","","","","","","","","","",""
"keyset-select","3","40006","0.0-3.0","5e328fc0a7365325cc819dae","60242478c74f84097a222710","602425d69c8de90982d6a74b","Mozilla/5.0 (Macintosh; Intel Mac OS X 10_15_6) AppleWebKit/605.1.15 (KHTML, like Gecko) Version/14.0 Safari/605.1.15","v1-up-stims","","","","left-hand","","","","","","","","","","","","",""
"headphone-check","4","163333","0.0-4.0","5e328fc0a7365325cc819dae","60242478c74f84097a222710","602425d69c8de90982d6a74b","Mozilla/5.0 (Macintosh; Intel Mac OS X 10_15_6) AppleWebKit/605.1.15 (KHTML, like Gecko) Version/14.0 Safari/605.1.15","v1-up-stims","","","","","1","6","0.3","","","","","","","","","",""
"headphone-backwards-check","5","180319","0.0-5.0","5e328fc0a7365325cc819dae","60242478c74f84097a222710","602425d69c8de90982d6a74b","Mozilla/5.0 (Macintosh; Intel Mac OS X 10_15_6) AppleWebKit/605.1.15 (KHTML, like Gecko) Version/14.0 Safari/605.1.15","v1-up-stims","","","","","0","","","","","","","","","","","",""
"training","6","275174","0.0-6.0","5e328fc0a7365325cc819dae","60242478c74f84097a222710","602425d69c8de90982d6a74b","Mozilla/5.0 (Macintosh; Intel Mac OS X 10_15_6) AppleWebKit/605.1.15 (KHTML, like Gecko) Version/14.0 Safari/605.1.15","v1-up-stims","","","","","","","","","","","","","","","","",""
"block-bookend","7","288673","0.0-7.0","5e328fc0a7365325cc819dae","60242478c74f84097a222710","602425d69c8de90982d6a74b","Mozilla/5.0 (Macintosh; Intel Mac OS X 10_15_6) AppleWebKit/605.1.15 (KHTML, like Gecko) Version/14.0 Safari/605.1.15","v1-up-stims","","","","","","","","","","","","","","","","",""
"echo-presentation","8","298879","0.0-8.0","5e328fc0a7365325cc819dae","60242478c74f84097a222710","602425d69c8de90982d6a74b","Mozilla/5.0 (Macintosh; Intel Mac OS X 10_15_6) AppleWebKit/605.1.15 (KHTML, like Gecko) Version/14.0 Safari/605.1.15","v1-up-stims","","","","","","","","40,50,60,70,80","media/audio/stims/spherical_300cm_s20_c10_cd-half_matched_a60.wav","spherical","20","10","half","matched","60","40","4421"
"echo-presentation","9","302430","0.0-9.0","5e328fc0a7365325cc819dae","60242478c74f84097a222710","602425d69c8de90982d6a74b","Mozilla/5.0 (Macintosh; Intel Mac OS X 10_15_6) AppleWebKit/605.1.15 (KHTML, like Gecko) Version/14.0 Safari/605.1.15","v1-up-stims","","","","","","","","40,50,60,70,80","media/audio/stims/spherical_300cm_s20_c10_cd-half_matched_a70.wav","spherical","20","10","half","matched","70","40","1383"
"echo-presentation","10","307289","0.0-10.0","5e328fc0a7365325cc819dae","60242478c74f84097a222710","602425d69c8de90982d6a74b","Mozilla/5.0 (Macintosh; Intel Mac OS X 10_15_6) AppleWebKit/605.1.15 (KHTML, like Gecko) Version/14.0 Safari/605.1.15","v1-up-stims","","","","","","","","40,50,60,70,80","media/audio/stims/spherical_300cm_s20_c10_cd-half_matched_a80.wav","spherical","20","10","half","matched","80","40","2865"
"echo-presentation","11","310046","0.0-11.0","5e328fc0a7365325cc819dae","60242478c74f84097a222710","602425d69c8de90982d6a74b","Mozilla/5.0 (Macintosh; Intel Mac OS X 10_15_6) AppleWebKit/605.1.15 (KHTML, like Gecko) Version/14.0 Safari/605.1.15","v1-up-stims","","","","","","","","40,50,60,70,80","media/audio/stims/spherical_300cm_s20_c10_cd-half_matched_a50.wav","spherical","20","10","half","matched","50","40","1495"
"echo-presentation","12","313117","0.0-12.0","5e328fc0a7365325cc819dae","60242478c74f84097a222710","602425d69c8de90982d6a74b","Mozilla/5.0 (Macintosh; Intel Mac OS X 10_15_6) AppleWebKit/605.1.15 (KHTML, like Gecko) Version/14.0 Safari/605.1.15","v1-up-stims","","","","","","","","40,50,60,70,80","media/audio/stims/spherical_300cm_s20_c10_cd-half_matched_a80.wav","spherical","20","10","half","matched","80","40","1533"
"echo-presentation","13","315923","0.0-13.0","5e328fc0a7365325cc819dae","60242478c74f84097a222710","602425d69c8de90982d6a74b","Mozilla/5.0 (Macintosh; Intel Mac OS X 10_15_6) AppleWebKit/605.1.15 (KHTML, like Gecko) Version/14.0 Safari/605.1.15","v1-up-stims","","","","","","","","40,50,60,70,80","media/audio/stims/spherical_300cm_s20_c10_cd-half_matched_a40.wav","spherical","20","10","half","matched","40","40","1787"
"echo-presentation","14","318676","0.0-14.0","5e328fc0a7365325cc819dae","60242478c74f84097a222710","602425d69c8de90982d6a74b","Mozilla/5.0 (Macintosh; Intel Mac OS X 10_15_6) AppleWebKit/605.1.15 (KHTML, like Gecko) Version/14.0 Safari/605.1.15","v1-up-stims","","","","","","","","40,50,60,70,80","media/audio/stims/spherical_300cm_s20_c10_cd-half_matched_a70.wav","spherical","20","10","half","matched","70","50","1724"
"echo-presentation","15","321667","0.0-15.0","5e328fc0a7365325cc819dae","60242478c74f84097a222710","602425d69c8de90982d6a74b","Mozilla/5.0 (Macintosh; Intel Mac OS X 10_15_6) AppleWebKit/605.1.15 (KHTML, like Gecko) Version/14.0 Safari/605.1.15","v1-up-stims","","","","","","","","40,50,60,70,80","media/audio/stims/spherical_300cm_s20_c10_cd-half_matched_a40.wav","spherical","20","10","half","matched","40","50","1746"
"echo-presentation","16","324250","0.0-16.0","5e328fc0a7365325cc819dae","60242478c74f84097a222710","602425d69c8de90982d6a74b","Mozilla/5.0 (Macintosh; Intel Mac OS X 10_15_6) AppleWebKit/605.1.15 (KHTML, like Gecko) Version/14.0 Safari/605.1.15","v1-up-stims","","","","","","","","40,50,60,70,80","media/audio/stims/spherical_300cm_s20_c10_cd-half_matched_a60.wav","spherical","20","10","half","matched","60","50","1270"
"echo-presentation","17","326751","0.0-17.0","5e328fc0a7365325cc819dae","60242478c74f84097a222710","602425d69c8de90982d6a74b","Mozilla/5.0 (Macintosh; Intel Mac OS X 10_15_6) AppleWebKit/605.1.15 (KHTML, like Gecko) Version/14.0 Safari/605.1.15","v1-up-stims","","","","","","","","40,50,60,70,80","media/audio/stims/spherical_300cm_s20_c10_cd-half_matched_a80.wav","spherical","20","10","half","matched","80","50","1229"
"echo-presentation","18","329518","0.0-18.0","5e328fc0a7365325cc819dae","60242478c74f84097a222710","602425d69c8de90982d6a74b","Mozilla/5.0 (Macintosh; Intel Mac OS X 10_15_6) AppleWebKit/605.1.15 (KHTML, like Gecko) Version/14.0 Safari/605.1.15","v1-up-stims","","","","","","","","40,50,60,70,80","media/audio/stims/spherical_300cm_s20_c10_cd-half_matched_a40.wav","spherical","20","10","half","matched","40","50","1744"
"echo-presentation","19","332059","0.0-19.0","5e328fc0a7365325cc819dae","60242478c74f84097a222710","602425d69c8de90982d6a74b","Mozilla/5.0 (Macintosh; Intel Mac OS X 10_15_6) AppleWebKit/605.1.15 (KHTML, like Gecko) Version/14.0 Safari/605.1.15","v1-up-stims","","","","","","","","40,50,60,70,80","media/audio/stims/spherical_300cm_s20_c10_cd-half_matched_a70.wav","spherical","20","10","half","matched","70","50","1384"
"echo-presentation","20","334515","0.0-20.0","5e328fc0a7365325cc819dae","60242478c74f84097a222710","602425d69c8de90982d6a74b","Mozilla/5.0 (Macintosh; Intel Mac OS X 10_15_6) AppleWebKit/605.1.15 (KHTML, like Gecko) Version/14.0 Safari/605.1.15","v1-up-stims","","","","","","","","40,50,60,70,80","media/audio/stims/spherical_300cm_s20_c10_cd-half_matched_a80.wav","spherical","20","10","half","matched","80","60","1520"
"echo-presentation","21","336628","0.0-21.0","5e328fc0a7365325cc819dae","60242478c74f84097a222710","602425d69c8de90982d6a74b","Mozilla/5.0 (Macintosh; Intel Mac OS X 10_15_6) AppleWebKit/605.1.15 (KHTML, like Gecko) Version/14.0 Safari/605.1.15","v1-up-stims","","","","","","","","40,50,60,70,80","media/audio/stims/spherical_300cm_s20_c10_cd-half_matched_a50.wav","spherical","20","10","half","matched","50","60","1092"
"echo-presentation","22","339101","0.0-22.0","5e328fc0a7365325cc819dae","60242478c74f84097a222710","602425d69c8de90982d6a74b","Mozilla/5.0 (Macintosh; Intel Mac OS X 10_15_6) AppleWebKit/605.1.15 (KHTML, like Gecko) Version/14.0 Safari/605.1.15","v1-up-stims","","","","","","","","40,50,60,70,80","media/audio/stims/spherical_300cm_s20_c10_cd-half_matched_a60.wav","spherical","20","10","half","matched","60","60","1272"
"echo-presentation","23","341713","0.0-23.0","5e328fc0a7365325cc819dae","60242478c74f84097a222710","602425d69c8de90982d6a74b","Mozilla/5.0 (Macintosh; Intel Mac OS X 10_15_6) AppleWebKit/605.1.15 (KHTML, like Gecko) Version/14.0 Safari/605.1.15","v1-up-stims","","","","","","","","40,50,60,70,80","media/audio/stims/spherical_300cm_s20_c10_cd-half_matched_a70.wav","spherical","20","10","half","matched","70","50","1543"
"echo-presentation","24","344120","0.0-24.0","5e328fc0a7365325cc819dae","60242478c74f84097a222710","602425d69c8de90982d6a74b","Mozilla/5.0 (Macintosh; Intel Mac OS X 10_15_6) AppleWebKit/605.1.15 (KHTML, like Gecko) Version/14.0 Safari/605.1.15","v1-up-stims","","","","","","","","40,50,60,70,80","media/audio/stims/spherical_300cm_s20_c10_cd-half_matched_a50.wav","spherical","20","10","half","matched","50","50","1316"
"echo-presentation","25","346283","0.0-25.0","5e328fc0a7365325cc819dae","60242478c74f84097a222710","602425d69c8de90982d6a74b","Mozilla/5.0 (Macintosh; Intel Mac OS X 10_15_6) AppleWebKit/605.1.15 (KHTML, like Gecko) Version/14.0 Safari/605.1.15","v1-up-stims","","","","","","","","40,50,60,70,80","media/audio/stims/spherical_300cm_s20_c10_cd-half_matched_a40.wav","spherical","20","10","half","matched","40","50","1182"
"echo-presentation","26","348239","0.0-26.0","5e328fc0a7365325cc819dae","60242478c74f84097a222710","602425d69c8de90982d6a74b","Mozilla/5.0 (Macintosh; Intel Mac OS X 10_15_6) AppleWebKit/605.1.15 (KHTML, like Gecko) Version/14.0 Safari/605.1.15","v1-up-stims","","","","","","","","40,50,60,70,80","media/audio/stims/spherical_300cm_s20_c10_cd-half_matched_a60.wav","spherical","20","10","half","matched","60","50","1024"
"echo-presentation","27","350307","0.0-27.0","5e328fc0a7365325cc819dae","60242478c74f84097a222710","602425d69c8de90982d6a74b","Mozilla/5.0 (Macintosh; Intel Mac OS X 10_15_6) AppleWebKit/605.1.15 (KHTML, like Gecko) Version/14.0 Safari/605.1.15","v1-up-stims","","","","","","","","40,50,60,70,80","media/audio/stims/spherical_300cm_s20_c10_cd-half_matched_a50.wav","spherical","20","10","half","matched","50","50","1159"
"block-bookend","28","354144","0.0-28.0","5e328fc0a7365325cc819dae","60242478c74f84097a222710","602425d69c8de90982d6a74b","Mozilla/5.0 (Macintosh; Intel Mac OS X 10_15_6) AppleWebKit/605.1.15 (KHTML, like Gecko) Version/14.0 Safari/605.1.15","v1-up-stims","","","","","","","","","","","","","","","","",""
"block-bookend","29","364967","0.0-29.0","5e328fc0a7365325cc819dae","60242478c74f84097a222710","602425d69c8de90982d6a74b","Mozilla/5.0 (Macintosh; Intel Mac OS X 10_15_6) AppleWebKit/605.1.15 (KHTML, like Gecko) Version/14.0 Safari/605.1.15","v1-up-stims","","","","","","","","","","","","","","","","",""
"echo-presentation","30","373480","0.0-30.0","5e328fc0a7365325cc819dae","60242478c74f84097a222710","602425d69c8de90982d6a74b","Mozilla/5.0 (Macintosh; Intel Mac OS X 10_15_6) AppleWebKit/605.1.15 (KHTML, like Gecko) Version/14.0 Safari/605.1.15","v1-up-stims","","","","","","","","40,50,60,70,80","media/audio/stims/spherical_300cm_s20_c10_cd-half_matched_a60.wav","spherical","20","10","half","matched","60","50","1633"
"echo-presentation","31","377237","0.0-31.0","5e328fc0a7365325cc819dae","60242478c74f84097a222710","602425d69c8de90982d6a74b","Mozilla/5.0 (Macintosh; Intel Mac OS X 10_15_6) AppleWebKit/605.1.15 (KHTML, like Gecko) Version/14.0 Safari/605.1.15","v1-up-stims","","","","","","","","40,50,60,70,80","media/audio/stims/spherical_300cm_s20_c10_cd-half_matched_a40.wav","spherical","20","10","half","matched","40","50","1700"
"echo-presentation","32","380388","0.0-32.0","5e328fc0a7365325cc819dae","60242478c74f84097a222710","602425d69c8de90982d6a74b","Mozilla/5.0 (Macintosh; Intel Mac OS X 10_15_6) AppleWebKit/605.1.15 (KHTML, like Gecko) Version/14.0 Safari/605.1.15","v1-up-stims","","","","","","","","40,50,60,70,80","media/audio/stims/spherical_300cm_s20_c10_cd-half_matched_a60.wav","spherical","20","10","half","matched","60","50","1520"
"echo-presentation","33","382256","0.0-33.0","5e328fc0a7365325cc819dae","60242478c74f84097a222710","602425d69c8de90982d6a74b","Mozilla/5.0 (Macintosh; Intel Mac OS X 10_15_6) AppleWebKit/605.1.15 (KHTML, like Gecko) Version/14.0 Safari/605.1.15","v1-up-stims","","","","","","","","40,50,60,70,80","media/audio/stims/spherical_300cm_s20_c10_cd-half_matched_a70.wav","spherical","20","10","half","matched","70","50","1007"
"echo-presentation","34","384146","0.0-34.0","5e328fc0a7365325cc819dae","60242478c74f84097a222710","602425d69c8de90982d6a74b","Mozilla/5.0 (Macintosh; Intel Mac OS X 10_15_6) AppleWebKit/605.1.15 (KHTML, like Gecko) Version/14.0 Safari/605.1.15","v1-up-stims","","","","","","","","40,50,60,70,80","media/audio/stims/spherical_300cm_s20_c10_cd-half_matched_a80.wav","spherical","20","10","half","matched","80","50","1003"
"echo-presentation","35","386302","0.0-35.0","5e328fc0a7365325cc819dae","60242478c74f84097a222710","602425d69c8de90982d6a74b","Mozilla/5.0 (Macintosh; Intel Mac OS X 10_15_6) AppleWebKit/605.1.15 (KHTML, like Gecko) Version/14.0 Safari/605.1.15","v1-up-stims","","","","","","","","40,50,60,70,80","media/audio/stims/spherical_300cm_s20_c10_cd-half_matched_a70.wav","spherical","20","10","half","matched","70","50","999"
"echo-presentation","36","388169","0.0-36.0","5e328fc0a7365325cc819dae","60242478c74f84097a222710","602425d69c8de90982d6a74b","Mozilla/5.0 (Macintosh; Intel Mac OS X 10_15_6) AppleWebKit/605.1.15 (KHTML, like Gecko) Version/14.0 Safari/605.1.15","v1-up-stims","","","","","","","","40,50,60,70,80","media/audio/stims/spherical_300cm_s20_c10_cd-half_matched_a80.wav","spherical","20","10","half","matched","80","50","954"
"echo-presentation","37","390085","0.0-37.0","5e328fc0a7365325cc819dae","60242478c74f84097a222710","602425d69c8de90982d6a74b","Mozilla/5.0 (Macintosh; Intel Mac OS X 10_15_6) AppleWebKit/605.1.15 (KHTML, like Gecko) Version/14.0 Safari/605.1.15","v1-up-stims","","","","","","","","40,50,60,70,80","media/audio/stims/spherical_300cm_s20_c10_cd-half_matched_a50.wav","spherical","20","10","half","matched","50","50","980"
"echo-presentation","38","392064","0.0-38.0","5e328fc0a7365325cc819dae","60242478c74f84097a222710","602425d69c8de90982d6a74b","Mozilla/5.0 (Macintosh; Intel Mac OS X 10_15_6) AppleWebKit/605.1.15 (KHTML, like Gecko) Version/14.0 Safari/605.1.15","v1-up-stims","","","","","","","","40,50,60,70,80","media/audio/stims/spherical_300cm_s20_c10_cd-half_matched_a80.wav","spherical","20","10","half","matched","80","50","1179"
"echo-presentation","39","396498","0.0-39.0","5e328fc0a7365325cc819dae","60242478c74f84097a222710","602425d69c8de90982d6a74b","Mozilla/5.0 (Macintosh; Intel Mac OS X 10_15_6) AppleWebKit/605.1.15 (KHTML, like Gecko) Version/14.0 Safari/605.1.15","v1-up-stims","","","","","","","","40,50,60,70,80","media/audio/stims/spherical_300cm_s20_c10_cd-half_matched_a50.wav","spherical","20","10","half","matched","50","50","3432"
"echo-presentation","40","398456","0.0-40.0","5e328fc0a7365325cc819dae","60242478c74f84097a222710","602425d69c8de90982d6a74b","Mozilla/5.0 (Macintosh; Intel Mac OS X 10_15_6) AppleWebKit/605.1.15 (KHTML, like Gecko) Version/14.0 Safari/605.1.15","v1-up-stims","","","","","","","","40,50,60,70,80","media/audio/stims/spherical_300cm_s20_c10_cd-half_matched_a40.wav","spherical","20","10","half","matched","40","50","1048"
"echo-presentation","41","400682","0.0-41.0","5e328fc0a7365325cc819dae","60242478c74f84097a222710","602425d69c8de90982d6a74b","Mozilla/5.0 (Macintosh; Intel Mac OS X 10_15_6) AppleWebKit/605.1.15 (KHTML, like Gecko) Version/14.0 Safari/605.1.15","v1-up-stims","","","","","","","","40,50,60,70,80","media/audio/stims/spherical_300cm_s20_c10_cd-half_matched_a70.wav","spherical","20","10","half","matched","70","50","1067"
"echo-presentation","42","402617","0.0-42.0","5e328fc0a7365325cc819dae","60242478c74f84097a222710","602425d69c8de90982d6a74b","Mozilla/5.0 (Macintosh; Intel Mac OS X 10_15_6) AppleWebKit/605.1.15 (KHTML, like Gecko) Version/14.0 Safari/605.1.15","v1-up-stims","","","","","","","","40,50,60,70,80","media/audio/stims/spherical_300cm_s20_c10_cd-half_matched_a70.wav","spherical","20","10","half","matched","70","50","1033"
"echo-presentation","43","407230","0.0-43.0","5e328fc0a7365325cc819dae","60242478c74f84097a222710","602425d69c8de90982d6a74b","Mozilla/5.0 (Macintosh; Intel Mac OS X 10_15_6) AppleWebKit/605.1.15 (KHTML, like Gecko) Version/14.0 Safari/605.1.15","v1-up-stims","","","","","","","","40,50,60,70,80","media/audio/stims/spherical_300cm_s20_c10_cd-half_matched_a50.wav","spherical","20","10","half","matched","50","50","3657"
"echo-presentation","44","409185","0.0-44.0","5e328fc0a7365325cc819dae","60242478c74f84097a222710","602425d69c8de90982d6a74b","Mozilla/5.0 (Macintosh; Intel Mac OS X 10_15_6) AppleWebKit/605.1.15 (KHTML, like Gecko) Version/14.0 Safari/605.1.15","v1-up-stims","","","","","","","","40,50,60,70,80","media/audio/stims/spherical_300cm_s20_c10_cd-half_matched_a40.wav","spherical","20","10","half","matched","40","50","1028"
"echo-presentation","45","413102","0.0-45.0","5e328fc0a7365325cc819dae","60242478c74f84097a222710","602425d69c8de90982d6a74b","Mozilla/5.0 (Macintosh; Intel Mac OS X 10_15_6) AppleWebKit/605.1.15 (KHTML, like Gecko) Version/14.0 Safari/605.1.15","v1-up-stims","","","","","","","","40,50,60,70,80","media/audio/stims/spherical_300cm_s20_c10_cd-half_matched_a60.wav","spherical","20","10","half","matched","60","50","3051"
"echo-presentation","46","414992","0.0-46.0","5e328fc0a7365325cc819dae","60242478c74f84097a222710","602425d69c8de90982d6a74b","Mozilla/5.0 (Macintosh; Intel Mac OS X 10_15_6) AppleWebKit/605.1.15 (KHTML, like Gecko) Version/14.0 Safari/605.1.15","v1-up-stims","","","","","","","","40,50,60,70,80","media/audio/stims/spherical_300cm_s20_c10_cd-half_matched_a50.wav","spherical","20","10","half","matched","50","50","1001"
"echo-presentation","47","418547","0.0-47.0","5e328fc0a7365325cc819dae","60242478c74f84097a222710","602425d69c8de90982d6a74b","Mozilla/5.0 (Macintosh; Intel Mac OS X 10_15_6) AppleWebKit/605.1.15 (KHTML, like Gecko) Version/14.0 Safari/605.1.15","v1-up-stims","","","","","","","","40,50,60,70,80","media/audio/stims/spherical_300cm_s20_c10_cd-half_matched_a80.wav","spherical","20","10","half","matched","80","50","2623"
"echo-presentation","48","420460","0.0-48.0","5e328fc0a7365325cc819dae","60242478c74f84097a222710","602425d69c8de90982d6a74b","Mozilla/5.0 (Macintosh; Intel Mac OS X 10_15_6) AppleWebKit/605.1.15 (KHTML, like Gecko) Version/14.0 Safari/605.1.15","v1-up-stims","","","","","","","","40,50,60,70,80","media/audio/stims/spherical_300cm_s20_c10_cd-half_matched_a60.wav","spherical","20","10","half","matched","60","50","1074"
"echo-presentation","49","423095","0.0-49.0","5e328fc0a7365325cc819dae","60242478c74f84097a222710","602425d69c8de90982d6a74b","Mozilla/5.0 (Macintosh; Intel Mac OS X 10_15_6) AppleWebKit/605.1.15 (KHTML, like Gecko) Version/14.0 Safari/605.1.15","v1-up-stims","","","","","","","","40,50,60,70,80","media/audio/stims/spherical_300cm_s20_c10_cd-half_matched_a40.wav","spherical","20","10","half","matched","40","50","1725"
"block-bookend","50","425828","0.0-50.0","5e328fc0a7365325cc819dae","60242478c74f84097a222710","602425d69c8de90982d6a74b","Mozilla/5.0 (Macintosh; Intel Mac OS X 10_15_6) AppleWebKit/605.1.15 (KHTML, like Gecko) Version/14.0 Safari/605.1.15","v1-up-stims","","","","","","","","","","","","","","","","",""
"block-bookend","51","444660","0.0-51.0","5e328fc0a7365325cc819dae","60242478c74f84097a222710","602425d69c8de90982d6a74b","Mozilla/5.0 (Macintosh; Intel Mac OS X 10_15_6) AppleWebKit/605.1.15 (KHTML, like Gecko) Version/14.0 Safari/605.1.15","v1-up-stims","","","","","","","","","","","","","","","","",""
"echo-presentation","52","452745","0.0-52.0","5e328fc0a7365325cc819dae","60242478c74f84097a222710","602425d69c8de90982d6a74b","Mozilla/5.0 (Macintosh; Intel Mac OS X 10_15_6) AppleWebKit/605.1.15 (KHTML, like Gecko) Version/14.0 Safari/605.1.15","v1-up-stims","","","","","","","","-80,-70,-60,-50,-40","media/audio/stims/spherical_300cm_s20_c10_cd-half_matched_a-40.wav","spherical","20","10","half","matched","-40","-60","5837"
"echo-presentation","53","457762","0.0-53.0","5e328fc0a7365325cc819dae","60242478c74f84097a222710","602425d69c8de90982d6a74b","Mozilla/5.0 (Macintosh; Intel Mac OS X 10_15_6) AppleWebKit/605.1.15 (KHTML, like Gecko) Version/14.0 Safari/605.1.15","v1-up-stims","","","","","","","","-80,-70,-60,-50,-40","media/audio/stims/spherical_300cm_s20_c10_cd-half_matched_a-50.wav","spherical","20","10","half","matched","-50","-50","3770"
"echo-presentation","54","460778","0.0-54.0","5e328fc0a7365325cc819dae","60242478c74f84097a222710","602425d69c8de90982d6a74b","Mozilla/5.0 (Macintosh; Intel Mac OS X 10_15_6) AppleWebKit/605.1.15 (KHTML, like Gecko) Version/14.0 Safari/605.1.15","v1-up-stims","","","","","","","","-80,-70,-60,-50,-40","media/audio/stims/spherical_300cm_s20_c10_cd-half_matched_a-80.wav","spherical","20","10","half","matched","-80","-60","2039"
"echo-presentation","55","462712","0.0-55.0","5e328fc0a7365325cc819dae","60242478c74f84097a222710","602425d69c8de90982d6a74b","Mozilla/5.0 (Macintosh; Intel Mac OS X 10_15_6) AppleWebKit/605.1.15 (KHTML, like Gecko) Version/14.0 Safari/605.1.15","v1-up-stims","","","","","","","","-80,-70,-60,-50,-40","media/audio/stims/spherical_300cm_s20_c10_cd-half_matched_a-50.wav","spherical","20","10","half","matched","-50","-60","1208"
"echo-presentation","56","467820","0.0-56.0","5e328fc0a7365325cc819dae","60242478c74f84097a222710","602425d69c8de90982d6a74b","Mozilla/5.0 (Macintosh; Intel Mac OS X 10_15_6) AppleWebKit/605.1.15 (KHTML, like Gecko) Version/14.0 Safari/605.1.15","v1-up-stims","","","","","","","","-80,-70,-60,-50,-40","media/audio/stims/spherical_300cm_s20_c10_cd-half_matched_a-70.wav","spherical","20","10","half","matched","-70","-60","2578"
"echo-presentation","57","469936","0.0-57.0","5e328fc0a7365325cc819dae","60242478c74f84097a222710","602425d69c8de90982d6a74b","Mozilla/5.0 (Macintosh; Intel Mac OS X 10_15_6) AppleWebKit/605.1.15 (KHTML, like Gecko) Version/14.0 Safari/605.1.15","v1-up-stims","","","","","","","","-80,-70,-60,-50,-40","media/audio/stims/spherical_300cm_s20_c10_cd-half_matched_a-70.wav","spherical","20","10","half","matched","-70","-50","1250"
"echo-presentation","58","471779","0.0-58.0","5e328fc0a7365325cc819dae","60242478c74f84097a222710","602425d69c8de90982d6a74b","Mozilla/5.0 (Macintosh; Intel Mac OS X 10_15_6) AppleWebKit/605.1.15 (KHTML, like Gecko) Version/14.0 Safari/605.1.15","v1-up-stims","","","","","","","","-80,-70,-60,-50,-40","media/audio/stims/spherical_300cm_s20_c10_cd-half_matched_a-60.wav","spherical","20","10","half","matched","-60","-50","980"
"echo-presentation","59","473482","0.0-59.0","5e328fc0a7365325cc819dae","60242478c74f84097a222710","602425d69c8de90982d6a74b","Mozilla/5.0 (Macintosh; Intel Mac OS X 10_15_6) AppleWebKit/605.1.15 (KHTML, like Gecko) Version/14.0 Safari/605.1.15","v1-up-stims","","","","","","","","-80,-70,-60,-50,-40","media/audio/stims/spherical_300cm_s20_c10_cd-half_matched_a-40.wav","spherical","20","10","half","matched","-40","-50","794"
"echo-presentation","60","475148","0.0-60.0","5e328fc0a7365325cc819dae","60242478c74f84097a222710","602425d69c8de90982d6a74b","Mozilla/5.0 (Macintosh; Intel Mac OS X 10_15_6) AppleWebKit/605.1.15 (KHTML, like Gecko) Version/14.0 Safari/605.1.15","v1-up-stims","","","","","","","","-80,-70,-60,-50,-40","media/audio/stims/spherical_300cm_s20_c10_cd-half_matched_a-50.wav","spherical","20","10","half","matched","-50","-50","840"
"echo-presentation","61","476887","0.0-61.0","5e328fc0a7365325cc819dae","60242478c74f84097a222710","602425d69c8de90982d6a74b","Mozilla/5.0 (Macintosh; Intel Mac OS X 10_15_6) AppleWebKit/605.1.15 (KHTML, like Gecko) Version/14.0 Safari/605.1.15","v1-up-stims","","","","","","","","-80,-70,-60,-50,-40","media/audio/stims/spherical_300cm_s20_c10_cd-half_matched_a-70.wav","spherical","20","10","half","matched","-70","-50","1045"
"echo-presentation","62","478612","0.0-62.0","5e328fc0a7365325cc819dae","60242478c74f84097a222710","602425d69c8de90982d6a74b","Mozilla/5.0 (Macintosh; Intel Mac OS X 10_15_6) AppleWebKit/605.1.15 (KHTML, like Gecko) Version/14.0 Safari/605.1.15","v1-up-stims","","","","","","","","-80,-70,-60,-50,-40","media/audio/stims/spherical_300cm_s20_c10_cd-half_matched_a-60.wav","spherical","20","10","half","matched","-60","-50","859"
"echo-presentation","63","480892","0.0-63.0","5e328fc0a7365325cc819dae","60242478c74f84097a222710","602425d69c8de90982d6a74b","Mozilla/5.0 (Macintosh; Intel Mac OS X 10_15_6) AppleWebKit/605.1.15 (KHTML, like Gecko) Version/14.0 Safari/605.1.15","v1-up-stims","","","","","","","","-80,-70,-60,-50,-40","media/audio/stims/spherical_300cm_s20_c10_cd-half_matched_a-60.wav","spherical","20","10","half","matched","-60","-60","913"
"echo-presentation","64","482827","0.0-64.0","5e328fc0a7365325cc819dae","60242478c74f84097a222710","602425d69c8de90982d6a74b","Mozilla/5.0 (Macintosh; Intel Mac OS X 10_15_6) AppleWebKit/605.1.15 (KHTML, like Gecko) Version/14.0 Safari/605.1.15","v1-up-stims","","","","","","","","-80,-70,-60,-50,-40","media/audio/stims/spherical_300cm_s20_c10_cd-half_matched_a-80.wav","spherical","20","10","half","matched","-80","-60","982"
"echo-presentation","65","484761","0.0-65.0","5e328fc0a7365325cc819dae","60242478c74f84097a222710","602425d69c8de90982d6a74b","Mozilla/5.0 (Macintosh; Intel Mac OS X 10_15_6) AppleWebKit/605.1.15 (KHTML, like Gecko) Version/14.0 Safari/605.1.15","v1-up-stims","","","","","","","","-80,-70,-60,-50,-40","media/audio/stims/spherical_300cm_s20_c10_cd-half_matched_a-80.wav","spherical","20","10","half","matched","-80","-60","1093"
"echo-presentation","66","486443","0.0-66.0","5e328fc0a7365325cc819dae","60242478c74f84097a222710","602425d69c8de90982d6a74b","Mozilla/5.0 (Macintosh; Intel Mac OS X 10_15_6) AppleWebKit/605.1.15 (KHTML, like Gecko) Version/14.0 Safari/605.1.15","v1-up-stims","","","","","","","","-80,-70,-60,-50,-40","media/audio/stims/spherical_300cm_s20_c10_cd-half_matched_a-40.wav","spherical","20","10","half","matched","-40","-60","795"
"echo-presentation","67","488128","0.0-67.0","5e328fc0a7365325cc819dae","60242478c74f84097a222710","602425d69c8de90982d6a74b","Mozilla/5.0 (Macintosh; Intel Mac OS X 10_15_6) AppleWebKit/605.1.15 (KHTML, like Gecko) Version/14.0 Safari/605.1.15","v1-up-stims","","","","","","","","-80,-70,-60,-50,-40","media/audio/stims/spherical_300cm_s20_c10_cd-half_matched_a-50.wav","spherical","20","10","half","matched","-50","-60","793"
"echo-presentation","68","489793","0.0-68.0","5e328fc0a7365325cc819dae","60242478c74f84097a222710","602425d69c8de90982d6a74b","Mozilla/5.0 (Macintosh; Intel Mac OS X 10_15_6) AppleWebKit/605.1.15 (KHTML, like Gecko) Version/14.0 Safari/605.1.15","v1-up-stims","","","","","","","","-80,-70,-60,-50,-40","media/audio/stims/spherical_300cm_s20_c10_cd-half_matched_a-60.wav","spherical","20","10","half","matched","-60","-60","796"
"echo-presentation","69","491557","0.0-69.0","5e328fc0a7365325cc819dae","60242478c74f84097a222710","602425d69c8de90982d6a74b","Mozilla/5.0 (Macintosh; Intel Mac OS X 10_15_6) AppleWebKit/605.1.15 (KHTML, like Gecko) Version/14.0 Safari/605.1.15","v1-up-stims","","","","","","","","-80,-70,-60,-50,-40","media/audio/stims/spherical_300cm_s20_c10_cd-half_matched_a-80.wav","spherical","20","10","half","matched","-80","-60","911"
"echo-presentation","70","493738","0.0-70.0","5e328fc0a7365325cc819dae","60242478c74f84097a222710","602425d69c8de90982d6a74b","Mozilla/5.0 (Macintosh; Intel Mac OS X 10_15_6) AppleWebKit/605.1.15 (KHTML, like Gecko) Version/14.0 Safari/605.1.15","v1-up-stims","","","","","","","","-80,-70,-60,-50,-40","media/audio/stims/spherical_300cm_s20_c10_cd-half_matched_a-70.wav","spherical","20","10","half","matched","-70","-60","1115"
"echo-presentation","71","495968","0.0-71.0","5e328fc0a7365325cc819dae","60242478c74f84097a222710","602425d69c8de90982d6a74b","Mozilla/5.0 (Macintosh; Intel Mac OS X 10_15_6) AppleWebKit/605.1.15 (KHTML, like Gecko) Version/14.0 Safari/605.1.15","v1-up-stims","","","","","","","","-80,-70,-60,-50,-40","media/audio/stims/spherical_300cm_s20_c10_cd-half_matched_a-40.wav","spherical","20","10","half","matched","-40","-50","1236"
"block-bookend","72","499220","0.0-72.0","5e328fc0a7365325cc819dae","60242478c74f84097a222710","602425d69c8de90982d6a74b","Mozilla/5.0 (Macintosh; Intel Mac OS X 10_15_6) AppleWebKit/605.1.15 (KHTML, like Gecko) Version/14.0 Safari/605.1.15","v1-up-stims","","","","","","","","","","","","","","","","",""
"block-bookend","73","515037","0.0-73.0","5e328fc0a7365325cc819dae","60242478c74f84097a222710","602425d69c8de90982d6a74b","Mozilla/5.0 (Macintosh; Intel Mac OS X 10_15_6) AppleWebKit/605.1.15 (KHTML, like Gecko) Version/14.0 Safari/605.1.15","v1-up-stims","","","","","","","","","","","","","","","","",""
"echo-presentation","74","519141","0.0-74.0","5e328fc0a7365325cc819dae","60242478c74f84097a222710","602425d69c8de90982d6a74b","Mozilla/5.0 (Macintosh; Intel Mac OS X 10_15_6) AppleWebKit/605.1.15 (KHTML, like Gecko) Version/14.0 Safari/605.1.15","v1-up-stims","","","","","","","","-80,-70,-60,-50,-40","media/audio/stims/spherical_300cm_s20_c10_cd-half_matched_a-80.wav","spherical","20","10","half","matched","-80","-50","1970"
"echo-presentation","75","521052","0.0-75.0","5e328fc0a7365325cc819dae","60242478c74f84097a222710","602425d69c8de90982d6a74b","Mozilla/5.0 (Macintosh; Intel Mac OS X 10_15_6) AppleWebKit/605.1.15 (KHTML, like Gecko) Version/14.0 Safari/605.1.15","v1-up-stims","","","","","","","","-80,-70,-60,-50,-40","media/audio/stims/spherical_300cm_s20_c10_cd-half_matched_a-50.wav","spherical","20","10","half","matched","-50","-50","956"
"echo-presentation","76","522920","0.0-76.0","5e328fc0a7365325cc819dae","60242478c74f84097a222710","602425d69c8de90982d6a74b","Mozilla/5.0 (Macintosh; Intel Mac OS X 10_15_6) AppleWebKit/605.1.15 (KHTML, like Gecko) Version/14.0 Safari/605.1.15","v1-up-stims","","","","","","","","-80,-70,-60,-50,-40","media/audio/stims/spherical_300cm_s20_c10_cd-half_matched_a-60.wav","spherical","20","10","half","matched","-60","-50","957"
"echo-presentation","77","524623","0.0-77.0","5e328fc0a7365325cc819dae","60242478c74f84097a222710","602425d69c8de90982d6a74b","Mozilla/5.0 (Macintosh; Intel Mac OS X 10_15_6) AppleWebKit/605.1.15 (KHTML, like Gecko) Version/14.0 Safari/605.1.15","v1-up-stims","","","","","","","","-80,-70,-60,-50,-40","media/audio/stims/spherical_300cm_s20_c10_cd-half_matched_a-80.wav","spherical","20","10","half","matched","-80","-50","838"
"echo-presentation","78","526264","0.0-78.0","5e328fc0a7365325cc819dae","60242478c74f84097a222710","602425d69c8de90982d6a74b","Mozilla/5.0 (Macintosh; Intel Mac OS X 10_15_6) AppleWebKit/605.1.15 (KHTML, like Gecko) Version/14.0 Safari/605.1.15","v1-up-stims","","","","","","","","-80,-70,-60,-50,-40","media/audio/stims/spherical_300cm_s20_c10_cd-half_matched_a-50.wav","spherical","20","10","half","matched","-50","-50","795"
"echo-presentation","79","527931","0.0-79.0","5e328fc0a7365325cc819dae","60242478c74f84097a222710","602425d69c8de90982d6a74b","Mozilla/5.0 (Macintosh; Intel Mac OS X 10_15_6) AppleWebKit/605.1.15 (KHTML, like Gecko) Version/14.0 Safari/605.1.15","v1-up-stims","","","","","","","","-80,-70,-60,-50,-40","media/audio/stims/spherical_300cm_s20_c10_cd-half_matched_a-40.wav","spherical","20","10","half","matched","-40","-50","840"
"echo-presentation","80","529670","0.0-80.0","5e328fc0a7365325cc819dae","60242478c74f84097a222710","602425d69c8de90982d6a74b","Mozilla/5.0 (Macintosh; Intel Mac OS X 10_15_6) AppleWebKit/605.1.15 (KHTML, like Gecko) Version/14.0 Safari/605.1.15","v1-up-stims","","","","","","","","-80,-70,-60,-50,-40","media/audio/stims/spherical_300cm_s20_c10_cd-half_matched_a-60.wav","spherical","20","10","half","matched","-60","-50","934"
"echo-presentation","81","531491","0.0-81.0","5e328fc0a7365325cc819dae","60242478c74f84097a222710","602425d69c8de90982d6a74b","Mozilla/5.0 (Macintosh; Intel Mac OS X 10_15_6) AppleWebKit/605.1.15 (KHTML, like Gecko) Version/14.0 Safari/605.1.15","v1-up-stims","","","","","","","","-80,-70,-60,-50,-40","media/audio/stims/spherical_300cm_s20_c10_cd-half_matched_a-80.wav","spherical","20","10","half","matched","-80","-50","934"
"echo-presentation","82","533360","0.0-82.0","5e328fc0a7365325cc819dae","60242478c74f84097a222710","602425d69c8de90982d6a74b","Mozilla/5.0 (Macintosh; Intel Mac OS X 10_15_6) AppleWebKit/605.1.15 (KHTML, like Gecko) Version/14.0 Safari/605.1.15","v1-up-stims","","","","","","","","-80,-70,-60,-50,-40","media/audio/stims/spherical_300cm_s20_c10_cd-half_matched_a-50.wav","spherical","20","10","half","matched","-50","-50","980"
"echo-presentation","83","535138","0.0-83.0","5e328fc0a7365325cc819dae","60242478c74f84097a222710","602425d69c8de90982d6a74b","Mozilla/5.0 (Macintosh; Intel Mac OS X 10_15_6) AppleWebKit/605.1.15 (KHTML, like Gecko) Version/14.0 Safari/605.1.15","v1-up-stims","","","","","","","","-80,-70,-60,-50,-40","media/audio/stims/spherical_300cm_s20_c10_cd-half_matched_a-80.wav","spherical","20","10","half","matched","-80","-50","958"
"echo-presentation","84","536863","0.0-84.0","5e328fc0a7365325cc819dae","60242478c74f84097a222710","602425d69c8de90982d6a74b","Mozilla/5.0 (Macintosh; Intel Mac OS X 10_15_6) AppleWebKit/605.1.15 (KHTML, like Gecko) Version/14.0 Safari/605.1.15","v1-up-stims","","","","","","","","-80,-70,-60,-50,-40","media/audio/stims/spherical_300cm_s20_c10_cd-half_matched_a-70.wav","spherical","20","10","half","matched","-70","-50","837"
"echo-presentation","85","538581","0.0-85.0","5e328fc0a7365325cc819dae","60242478c74f84097a222710","602425d69c8de90982d6a74b","Mozilla/5.0 (Macintosh; Intel Mac OS X 10_15_6) AppleWebKit/605.1.15 (KHTML, like Gecko) Version/14.0 Safari/605.1.15","v1-up-stims","","","","","","","","-80,-70,-60,-50,-40","media/audio/stims/spherical_300cm_s20_c10_cd-half_matched_a-40.wav","spherical","20","10","half","matched","-40","-50","902"
"echo-presentation","86","540290","0.0-86.0","5e328fc0a7365325cc819dae","60242478c74f84097a222710","602425d69c8de90982d6a74b","Mozilla/5.0 (Macintosh; Intel Mac OS X 10_15_6) AppleWebKit/605.1.15 (KHTML, like Gecko) Version/14.0 Safari/605.1.15","v1-up-stims","","","","","","","","-80,-70,-60,-50,-40","media/audio/stims/spherical_300cm_s20_c10_cd-half_matched_a-70.wav","spherical","20","10","half","matched","-70","-50","890"
"echo-presentation","87","542243","0.0-87.0","5e328fc0a7365325cc819dae","60242478c74f84097a222710","602425d69c8de90982d6a74b","Mozilla/5.0 (Macintosh; Intel Mac OS X 10_15_6) AppleWebKit/605.1.15 (KHTML, like Gecko) Version/14.0 Safari/605.1.15","v1-up-stims","","","","","","","","-80,-70,-60,-50,-40","media/audio/stims/spherical_300cm_s20_c10_cd-half_matched_a-40.wav","spherical","20","10","half","matched","-40","-50","955"
"echo-presentation","88","544497","0.0-88.0","5e328fc0a7365325cc819dae","60242478c74f84097a222710","602425d69c8de90982d6a74b","Mozilla/5.0 (Macintosh; Intel Mac OS X 10_15_6) AppleWebKit/605.1.15 (KHTML, like Gecko) Version/14.0 Safari/605.1.15","v1-up-stims","","","","","","","","-80,-70,-60,-50,-40","media/audio/stims/spherical_300cm_s20_c10_cd-half_matched_a-60.wav","spherical","20","10","half","matched","-60","-50","1408"
"echo-presentation","89","546206","0.0-89.0","5e328fc0a7365325cc819dae","60242478c74f84097a222710","602425d69c8de90982d6a74b","Mozilla/5.0 (Macintosh; Intel Mac OS X 10_15_6) AppleWebKit/605.1.15 (KHTML, like Gecko) Version/14.0 Safari/605.1.15","v1-up-stims","","","","","","","","-80,-70,-60,-50,-40","media/audio/stims/spherical_300cm_s20_c10_cd-half_matched_a-70.wav","spherical","20","10","half","matched","-70","-50","941"
"echo-presentation","90","547939","0.0-90.0","5e328fc0a7365325cc819dae","60242478c74f84097a222710","602425d69c8de90982d6a74b","Mozilla/5.0 (Macintosh; Intel Mac OS X 10_15_6) AppleWebKit/605.1.15 (KHTML, like Gecko) Version/14.0 Safari/605.1.15","v1-up-stims","","","","","","","","-80,-70,-60,-50,-40","media/audio/stims/spherical_300cm_s20_c10_cd-half_matched_a-70.wav","spherical","20","10","half","matched","-70","-50","912"
"echo-presentation","91","549941","0.0-91.0","5e328fc0a7365325cc819dae","60242478c74f84097a222710","602425d69c8de90982d6a74b","Mozilla/5.0 (Macintosh; Intel Mac OS X 10_15_6) AppleWebKit/605.1.15 (KHTML, like Gecko) Version/14.0 Safari/605.1.15","v1-up-stims","","","","","","","","-80,-70,-60,-50,-40","media/audio/stims/spherical_300cm_s20_c10_cd-half_matched_a-40.wav","spherical","20","10","half","matched","-40","-50","1182"
"echo-presentation","92","552079","0.0-92.0","5e328fc0a7365325cc819dae","60242478c74f84097a222710","602425d69c8de90982d6a74b","Mozilla/5.0 (Macintosh; Intel Mac OS X 10_15_6) AppleWebKit/605.1.15 (KHTML, like Gecko) Version/14.0 Safari/605.1.15","v1-up-stims","","","","","","","","-80,-70,-60,-50,-40","media/audio/stims/spherical_300cm_s20_c10_cd-half_matched_a-50.wav","spherical","20","10","half","matched","-50","-50","1160"
"echo-presentation","93","554104","0.0-93.0","5e328fc0a7365325cc819dae","60242478c74f84097a222710","602425d69c8de90982d6a74b","Mozilla/5.0 (Macintosh; Intel Mac OS X 10_15_6) AppleWebKit/605.1.15 (KHTML, like Gecko) Version/14.0 Safari/605.1.15","v1-up-stims","","","","","","","","-80,-70,-60,-50,-40","media/audio/stims/spherical_300cm_s20_c10_cd-half_matched_a-60.wav","spherical","20","10","half","matched","-60","-50","1163"
"block-bookend","94","555849","0.0-94.0","5e328fc0a7365325cc819dae","60242478c74f84097a222710","602425d69c8de90982d6a74b","Mozilla/5.0 (Macintosh; Intel Mac OS X 10_15_6) AppleWebKit/605.1.15 (KHTML, like Gecko) Version/14.0 Safari/605.1.15","v1-up-stims","","","","","","","","","","","","","","","","",""
"block-bookend","95","563545","0.0-95.0","5e328fc0a7365325cc819dae","60242478c74f84097a222710","602425d69c8de90982d6a74b","Mozilla/5.0 (Macintosh; Intel Mac OS X 10_15_6) AppleWebKit/605.1.15 (KHTML, like Gecko) Version/14.0 Safari/605.1.15","v1-up-stims","","","","","","","","","","","","","","","","",""
"echo-presentation","96","567874","0.0-96.0","5e328fc0a7365325cc819dae","60242478c74f84097a222710","602425d69c8de90982d6a74b","Mozilla/5.0 (Macintosh; Intel Mac OS X 10_15_6) AppleWebKit/605.1.15 (KHTML, like Gecko) Version/14.0 Safari/605.1.15","v1-up-stims","","","","","","","","-20,-10,0,10,20","media/audio/stims/spherical_300cm_s20_c10_cd-half_matched_a-20.wav","spherical","20","10","half","matched","-20","10","2038"
"echo-presentation","97","569854","0.0-97.0","5e328fc0a7365325cc819dae","60242478c74f84097a222710","602425d69c8de90982d6a74b","Mozilla/5.0 (Macintosh; Intel Mac OS X 10_15_6) AppleWebKit/605.1.15 (KHTML, like Gecko) Version/14.0 Safari/605.1.15","v1-up-stims","","","","","","","","-20,-10,0,10,20","media/audio/stims/spherical_300cm_s20_c10_cd-half_matched_a10.wav","spherical","20","10","half","matched","10","10","1005"
"echo-presentation","98","571465","0.0-98.0","5e328fc0a7365325cc819dae","60242478c74f84097a222710","602425d69c8de90982d6a74b","Mozilla/5.0 (Macintosh; Intel Mac OS X 10_15_6) AppleWebKit/605.1.15 (KHTML, like Gecko) Version/14.0 Safari/605.1.15","v1-up-stims","","","","","","","","-20,-10,0,10,20","media/audio/stims/spherical_300cm_s20_c10_cd-half_matched_a-10.wav","spherical","20","10","half","matched","-10","10","772"
"echo-presentation","99","573476","0.0-99.0","5e328fc0a7365325cc819dae","60242478c74f84097a222710","602425d69c8de90982d6a74b","Mozilla/5.0 (Macintosh; Intel Mac OS X 10_15_6) AppleWebKit/605.1.15 (KHTML, like Gecko) Version/14.0 Safari/605.1.15","v1-up-stims","","","","","","","","-20,-10,0,10,20","media/audio/stims/spherical_300cm_s20_c10_cd-half_matched_a20.wav","spherical","20","10","half","matched","20","10","1272"
"echo-presentation","100","575808","0.0-100.0","5e328fc0a7365325cc819dae","60242478c74f84097a222710","602425d69c8de90982d6a74b","Mozilla/5.0 (Macintosh; Intel Mac OS X 10_15_6) AppleWebKit/605.1.15 (KHTML, like Gecko) Version/14.0 Safari/605.1.15","v1-up-stims","","","","","","","","-20,-10,0,10,20","media/audio/stims/spherical_300cm_s20_c10_cd-half_matched_a0.wav","spherical","20","10","half","matched","0","10","841"
"echo-presentation","101","577637","0.0-101.0","5e328fc0a7365325cc819dae","60242478c74f84097a222710","602425d69c8de90982d6a74b","Mozilla/5.0 (Macintosh; Intel Mac OS X 10_15_6) AppleWebKit/605.1.15 (KHTML, like Gecko) Version/14.0 Safari/605.1.15","v1-up-stims","","","","","","","","-20,-10,0,10,20","media/audio/stims/spherical_300cm_s20_c10_cd-half_matched_a10.wav","spherical","20","10","half","matched","10","10","890"
"echo-presentation","102","579120","0.0-102.0","5e328fc0a7365325cc819dae","60242478c74f84097a222710","602425d69c8de90982d6a74b","Mozilla/5.0 (Macintosh; Intel Mac OS X 10_15_6) AppleWebKit/605.1.15 (KHTML, like Gecko) Version/14.0 Safari/605.1.15","v1-up-stims","","","","","","","","-20,-10,0,10,20","media/audio/stims/spherical_300cm_s20_c10_cd-half_matched_a10.wav","spherical","20","10","half","matched","10","0","911"
"echo-presentation","103","580922","0.0-103.0","5e328fc0a7365325cc819dae","60242478c74f84097a222710","602425d69c8de90982d6a74b","Mozilla/5.0 (Macintosh; Intel Mac OS X 10_15_6) AppleWebKit/605.1.15 (KHTML, like Gecko) Version/14.0 Safari/605.1.15","v1-up-stims","","","","","","","","-20,-10,0,10,20","media/audio/stims/spherical_300cm_s20_c10_cd-half_matched_a20.wav","spherical","20","10","half","matched","20","10","935"
"echo-presentation","104","598156","0.0-104.0","5e328fc0a7365325cc819dae","60242478c74f84097a222710","602425d69c8de90982d6a74b","Mozilla/5.0 (Macintosh; Intel Mac OS X 10_15_6) AppleWebKit/605.1.15 (KHTML, like Gecko) Version/14.0 Safari/605.1.15","v1-up-stims","","","","","","","","-20,-10,0,10,20","media/audio/stims/spherical_300cm_s20_c10_cd-half_matched_a-20.wav","spherical","20","10","half","matched","-20","10","16347"
"echo-presentation","105","600556","0.0-105.0","5e328fc0a7365325cc819dae","60242478c74f84097a222710","602425d69c8de90982d6a74b","Mozilla/5.0 (Macintosh; Intel Mac OS X 10_15_6) AppleWebKit/605.1.15 (KHTML, like Gecko) Version/14.0 Safari/605.1.15","v1-up-stims","","","","","","","","-20,-10,0,10,20","media/audio/stims/spherical_300cm_s20_c10_cd-half_matched_a20.wav","spherical","20","10","half","matched","20","10","1108"
"echo-presentation","106","602520","0.0-106.0","5e328fc0a7365325cc819dae","60242478c74f84097a222710","602425d69c8de90982d6a74b","Mozilla/5.0 (Macintosh; Intel Mac OS X 10_15_6) AppleWebKit/605.1.15 (KHTML, like Gecko) Version/14.0 Safari/605.1.15","v1-up-stims","","","","","","","","-20,-10,0,10,20","media/audio/stims/spherical_300cm_s20_c10_cd-half_matched_a-20.wav","spherical","20","10","half","matched","-20","10","977"
"echo-presentation","107","605560","0.0-107.0","5e328fc0a7365325cc819dae","60242478c74f84097a222710","602425d69c8de90982d6a74b","Mozilla/5.0 (Macintosh; Intel Mac OS X 10_15_6) AppleWebKit/605.1.15 (KHTML, like Gecko) Version/14.0 Safari/605.1.15","v1-up-stims","","","","","","","","-20,-10,0,10,20","media/audio/stims/spherical_300cm_s20_c10_cd-half_matched_a-10.wav","spherical","20","10","half","matched","-10","10","2096"
"echo-presentation","108","608867","0.0-108.0","5e328fc0a7365325cc819dae","60242478c74f84097a222710","602425d69c8de90982d6a74b","Mozilla/5.0 (Macintosh; Intel Mac OS X 10_15_6) AppleWebKit/605.1.15 (KHTML, like Gecko) Version/14.0 Safari/605.1.15","v1-up-stims","","","","","","","","-20,-10,0,10,20","media/audio/stims/spherical_300cm_s20_c10_cd-half_matched_a0.wav","spherical","20","10","half","matched","0","10","1724"
"echo-presentation","109","610690","0.0-109.0","5e328fc0a7365325cc819dae","60242478c74f84097a222710","602425d69c8de90982d6a74b","Mozilla/5.0 (Macintosh; Intel Mac OS X 10_15_6) AppleWebKit/605.1.15 (KHTML, like Gecko) Version/14.0 Safari/605.1.15","v1-up-stims","","","","","","","","-20,-10,0,10,20","media/audio/stims/spherical_300cm_s20_c10_cd-half_matched_a20.wav","spherical","20","10","half","matched","20","10","936"
"echo-presentation","110","612395","0.0-110.0","5e328fc0a7365325cc819dae","60242478c74f84097a222710","602425d69c8de90982d6a74b","Mozilla/5.0 (Macintosh; Intel Mac OS X 10_15_6) AppleWebKit/605.1.15 (KHTML, like Gecko) Version/14.0 Safari/605.1.15","v1-up-stims","","","","","","","","-20,-10,0,10,20","media/audio/stims/spherical_300cm_s20_c10_cd-half_matched_a-20.wav","spherical","20","10","half","matched","-20","10","844"
"echo-presentation","111","614131","0.0-111.0","5e328fc0a7365325cc819dae","60242478c74f84097a222710","602425d69c8de90982d6a74b","Mozilla/5.0 (Macintosh; Intel Mac OS X 10_15_6) AppleWebKit/605.1.15 (KHTML, like Gecko) Version/14.0 Safari/605.1.15","v1-up-stims","","","","","","","","-20,-10,0,10,20","media/audio/stims/spherical_300cm_s20_c10_cd-half_matched_a-10.wav","spherical","20","10","half","matched","-10","10","914"
"echo-presentation","112","615653","0.0-112.0","5e328fc0a7365325cc819dae","60242478c74f84097a222710","602425d69c8de90982d6a74b","Mozilla/5.0 (Macintosh; Intel Mac OS X 10_15_6) AppleWebKit/605.1.15 (KHTML, like Gecko) Version/14.0 Safari/605.1.15","v1-up-stims","","","","","","","","-20,-10,0,10,20","media/audio/stims/spherical_300cm_s20_c10_cd-half_matched_a0.wav","spherical","20","10","half","matched","0","10","771"
"echo-presentation","113","617183","0.0-113.0","5e328fc0a7365325cc819dae","60242478c74f84097a222710","602425d69c8de90982d6a74b","Mozilla/5.0 (Macintosh; Intel Mac OS X 10_15_6) AppleWebKit/605.1.15 (KHTML, like Gecko) Version/14.0 Safari/605.1.15","v1-up-stims","","","","","","","","-20,-10,0,10,20","media/audio/stims/spherical_300cm_s20_c10_cd-half_matched_a10.wav","spherical","20","10","half","matched","10","10","747"
"echo-presentation","114","618806","0.0-114.0","5e328fc0a7365325cc819dae","60242478c74f84097a222710","602425d69c8de90982d6a74b","Mozilla/5.0 (Macintosh; Intel Mac OS X 10_15_6) AppleWebKit/605.1.15 (KHTML, like Gecko) Version/14.0 Safari/605.1.15","v1-up-stims","","","","","","","","-20,-10,0,10,20","media/audio/stims/spherical_300cm_s20_c10_cd-half_matched_a0.wav","spherical","20","10","half","matched","0","10","817"
"echo-presentation","115","620564","0.0-115.0","5e328fc0a7365325cc819dae","60242478c74f84097a222710","602425d69c8de90982d6a74b","Mozilla/5.0 (Macintosh; Intel Mac OS X 10_15_6) AppleWebKit/605.1.15 (KHTML, like Gecko) Version/14.0 Safari/605.1.15","v1-up-stims","","","","","","","","-20,-10,0,10,20","media/audio/stims/spherical_300cm_s20_c10_cd-half_matched_a-10.wav","spherical","20","10","half","matched","-10","10","977"
"block-bookend","116","622515","0.0-116.0","5e328fc0a7365325cc819dae","60242478c74f84097a222710","602425d69c8de90982d6a74b","Mozilla/5.0 (Macintosh; Intel Mac OS X 10_15_6) AppleWebKit/605.1.15 (KHTML, like Gecko) Version/14.0 Safari/605.1.15","v1-up-stims","","","","","","","","","","","","","","","","",""
"block-bookend","117","629130","0.0-117.0","5e328fc0a7365325cc819dae","60242478c74f84097a222710","602425d69c8de90982d6a74b","Mozilla/5.0 (Macintosh; Intel Mac OS X 10_15_6) AppleWebKit/605.1.15 (KHTML, like Gecko) Version/14.0 Safari/605.1.15","v1-up-stims","","","","","","","","","","","","","","","","",""
"echo-presentation","118","632514","0.0-118.0","5e328fc0a7365325cc819dae","60242478c74f84097a222710","602425d69c8de90982d6a74b","Mozilla/5.0 (Macintosh; Intel Mac OS X 10_15_6) AppleWebKit/605.1.15 (KHTML, like Gecko) Version/14.0 Safari/605.1.15","v1-up-stims","","","","","","","","-20,-10,0,10,20","media/audio/stims/spherical_300cm_s20_c10_cd-half_matched_a10.wav","spherical","20","10","half","matched","10","-10","1183"
"echo-presentation","119","634146","0.0-119.0","5e328fc0a7365325cc819dae","60242478c74f84097a222710","602425d69c8de90982d6a74b","Mozilla/5.0 (Macintosh; Intel Mac OS X 10_15_6) AppleWebKit/605.1.15 (KHTML, like Gecko) Version/14.0 Safari/605.1.15","v1-up-stims","","","","","","","","-20,-10,0,10,20","media/audio/stims/spherical_300cm_s20_c10_cd-half_matched_a20.wav","spherical","20","10","half","matched","20","-10","747"
"echo-presentation","120","636022","0.0-120.0","5e328fc0a7365325cc819dae","60242478c74f84097a222710","602425d69c8de90982d6a74b","Mozilla/5.0 (Macintosh; Intel Mac OS X 10_15_6) AppleWebKit/605.1.15 (KHTML, like Gecko) Version/14.0 Safari/605.1.15","v1-up-stims","","","","","","","","-20,-10,0,10,20","media/audio/stims/spherical_300cm_s20_c10_cd-half_matched_a20.wav","spherical","20","10","half","matched","20","0","1074"
"echo-presentation","121","637591","0.0-121.0","5e328fc0a7365325cc819dae","60242478c74f84097a222710","602425d69c8de90982d6a74b","Mozilla/5.0 (Macintosh; Intel Mac OS X 10_15_6) AppleWebKit/605.1.15 (KHTML, like Gecko) Version/14.0 Safari/605.1.15","v1-up-stims","","","","","","","","-20,-10,0,10,20","media/audio/stims/spherical_300cm_s20_c10_cd-half_matched_a-10.wav","spherical","20","10","half","matched","-10","0","819"
"echo-presentation","122","639142","0.0-122.0","5e328fc0a7365325cc819dae","60242478c74f84097a222710","602425d69c8de90982d6a74b","Mozilla/5.0 (Macintosh; Intel Mac OS X 10_15_6) AppleWebKit/605.1.15 (KHTML, like Gecko) Version/14.0 Safari/605.1.15","v1-up-stims","","","","","","","","-20,-10,0,10,20","media/audio/stims/spherical_300cm_s20_c10_cd-half_matched_a-20.wav","spherical","20","10","half","matched","-20","0","754"
"echo-presentation","123","640649","0.0-123.0","5e328fc0a7365325cc819dae","60242478c74f84097a222710","602425d69c8de90982d6a74b","Mozilla/5.0 (Macintosh; Intel Mac OS X 10_15_6) AppleWebKit/605.1.15 (KHTML, like Gecko) Version/14.0 Safari/605.1.15","v1-up-stims","","","","","","","","-20,-10,0,10,20","media/audio/stims/spherical_300cm_s20_c10_cd-half_matched_a-10.wav","spherical","20","10","half","matched","-10","0","664"
"echo-presentation","124","642112","0.0-124.0","5e328fc0a7365325cc819dae","60242478c74f84097a222710","602425d69c8de90982d6a74b","Mozilla/5.0 (Macintosh; Intel Mac OS X 10_15_6) AppleWebKit/605.1.15 (KHTML, like Gecko) Version/14.0 Safari/605.1.15","v1-up-stims","","","","","","","","-20,-10,0,10,20","media/audio/stims/spherical_300cm_s20_c10_cd-half_matched_a10.wav","spherical","20","10","half","matched","10","0","703"
"echo-presentation","125","643450","0.0-125.0","5e328fc0a7365325cc819dae","60242478c74f84097a222710","602425d69c8de90982d6a74b","Mozilla/5.0 (Macintosh; Intel Mac OS X 10_15_6) AppleWebKit/605.1.15 (KHTML, like Gecko) Version/14.0 Safari/605.1.15","v1-up-stims","","","","","","","","-20,-10,0,10,20","media/audio/stims/spherical_300cm_s20_c10_cd-half_matched_a20.wav","spherical","20","10","half","matched","20","0","645"
"echo-presentation","126","644767","0.0-126.0","5e328fc0a7365325cc819dae","60242478c74f84097a222710","602425d69c8de90982d6a74b","Mozilla/5.0 (Macintosh; Intel Mac OS X 10_15_6) AppleWebKit/605.1.15 (KHTML, like Gecko) Version/14.0 Safari/605.1.15","v1-up-stims","","","","","","","","-20,-10,0,10,20","media/audio/stims/spherical_300cm_s20_c10_cd-half_matched_a20.wav","spherical","20","10","half","matched","20","0","641"
"echo-presentation","127","646206","0.0-127.0","5e328fc0a7365325cc819dae","60242478c74f84097a222710","602425d69c8de90982d6a74b","Mozilla/5.0 (Macintosh; Intel Mac OS X 10_15_6) AppleWebKit/605.1.15 (KHTML, like Gecko) Version/14.0 Safari/605.1.15","v1-up-stims","","","","","","","","-20,-10,0,10,20","media/audio/stims/spherical_300cm_s20_c10_cd-half_matched_a10.wav","spherical","20","10","half","matched","10","0","702"
"echo-presentation","128","647541","0.0-128.0","5e328fc0a7365325cc819dae","60242478c74f84097a222710","602425d69c8de90982d6a74b","Mozilla/5.0 (Macintosh; Intel Mac OS X 10_15_6) AppleWebKit/605.1.15 (KHTML, like Gecko) Version/14.0 Safari/605.1.15","v1-up-stims","","","","","","","","-20,-10,0,10,20","media/audio/stims/spherical_300cm_s20_c10_cd-half_matched_a0.wav","spherical","20","10","half","matched","0","0","644"
"echo-presentation","129","649179","0.0-129.0","5e328fc0a7365325cc819dae","60242478c74f84097a222710","602425d69c8de90982d6a74b","Mozilla/5.0 (Macintosh; Intel Mac OS X 10_15_6) AppleWebKit/605.1.15 (KHTML, like Gecko) Version/14.0 Safari/605.1.15","v1-up-stims","","","","","","","","-20,-10,0,10,20","media/audio/stims/spherical_300cm_s20_c10_cd-half_matched_a0.wav","spherical","20","10","half","matched","0","0","819"
"echo-presentation","130","650774","0.0-130.0","5e328fc0a7365325cc819dae","60242478c74f84097a222710","602425d69c8de90982d6a74b","Mozilla/5.0 (Macintosh; Intel Mac OS X 10_15_6) AppleWebKit/605.1.15 (KHTML, like Gecko) Version/14.0 Safari/605.1.15","v1-up-stims","","","","","","","","-20,-10,0,10,20","media/audio/stims/spherical_300cm_s20_c10_cd-half_matched_a0.wav","spherical","20","10","half","matched","0","0","770"
"echo-presentation","131","652581","0.0-131.0","5e328fc0a7365325cc819dae","60242478c74f84097a222710","602425d69c8de90982d6a74b","Mozilla/5.0 (Macintosh; Intel Mac OS X 10_15_6) AppleWebKit/605.1.15 (KHTML, like Gecko) Version/14.0 Safari/605.1.15","v1-up-stims","","","","","","","","-20,-10,0,10,20","media/audio/stims/spherical_300cm_s20_c10_cd-half_matched_a-10.wav","spherical","20","10","half","matched","-10","0","955"
"echo-presentation","132","654402","0.0-132.0","5e328fc0a7365325cc819dae","60242478c74f84097a222710","602425d69c8de90982d6a74b","Mozilla/5.0 (Macintosh; Intel Mac OS X 10_15_6) AppleWebKit/605.1.15 (KHTML, like Gecko) Version/14.0 Safari/605.1.15","v1-up-stims","","","","","","","","-20,-10,0,10,20","media/audio/stims/spherical_300cm_s20_c10_cd-half_matched_a10.wav","spherical","20","10","half","matched","10","0","911"
"echo-presentation","133","655994","0.0-133.0","5e328fc0a7365325cc819dae","60242478c74f84097a222710","602425d69c8de90982d6a74b","Mozilla/5.0 (Macintosh; Intel Mac OS X 10_15_6) AppleWebKit/605.1.15 (KHTML, like Gecko) Version/14.0 Safari/605.1.15","v1-up-stims","","","","","","","","-20,-10,0,10,20","media/audio/stims/spherical_300cm_s20_c10_cd-half_matched_a-10.wav","spherical","20","10","half","matched","-10","0","795"
"echo-presentation","134","657434","0.0-134.0","5e328fc0a7365325cc819dae","60242478c74f84097a222710","602425d69c8de90982d6a74b","Mozilla/5.0 (Macintosh; Intel Mac OS X 10_15_6) AppleWebKit/605.1.15 (KHTML, like Gecko) Version/14.0 Safari/605.1.15","v1-up-stims","","","","","","","","-20,-10,0,10,20","media/audio/stims/spherical_300cm_s20_c10_cd-half_matched_a0.wav","spherical","20","10","half","matched","0","0","748"
"echo-presentation","135","658783","0.0-135.0","5e328fc0a7365325cc819dae","60242478c74f84097a222710","602425d69c8de90982d6a74b","Mozilla/5.0 (Macintosh; Intel Mac OS X 10_15_6) AppleWebKit/605.1.15 (KHTML, like Gecko) Version/14.0 Safari/605.1.15","v1-up-stims","","","","","","","","-20,-10,0,10,20","media/audio/stims/spherical_300cm_s20_c10_cd-half_matched_a-20.wav","spherical","20","10","half","matched","-20","0","705"
"echo-presentation","136","660771","0.0-136.0","5e328fc0a7365325cc819dae","60242478c74f84097a222710","602425d69c8de90982d6a74b","Mozilla/5.0 (Macintosh; Intel Mac OS X 10_15_6) AppleWebKit/605.1.15 (KHTML, like Gecko) Version/14.0 Safari/605.1.15","v1-up-stims","","","","","","","","-20,-10,0,10,20","media/audio/stims/spherical_300cm_s20_c10_cd-half_matched_a-20.wav","spherical","20","10","half","matched","-20","10","1002"
"echo-presentation","137","662527","0.0-137.0","5e328fc0a7365325cc819dae","60242478c74f84097a222710","602425d69c8de90982d6a74b","Mozilla/5.0 (Macintosh; Intel Mac OS X 10_15_6) AppleWebKit/605.1.15 (KHTML, like Gecko) Version/14.0 Safari/605.1.15","v1-up-stims","","","","","","","","-20,-10,0,10,20","media/audio/stims/spherical_300cm_s20_c10_cd-half_matched_a-20.wav","spherical","20","10","half","matched","-20","10","1002"
"block-bookend","138","664566","0.0-138.0","5e328fc0a7365325cc819dae","60242478c74f84097a222710","602425d69c8de90982d6a74b","Mozilla/5.0 (Macintosh; Intel Mac OS X 10_15_6) AppleWebKit/605.1.15 (KHTML, like Gecko) Version/14.0 Safari/605.1.15","v1-up-stims","","","","","","","","","","","","","","","","",""
