"trial_type","trial_index","time_elapsed","internal_node_id","prolificPid","studyId","sessionId","userAgent","version","rt","stimulus","key_press","chosenKeyset","failureCount","testIndex","globalVolume","choices","filename","modelName","slowdown","compensation","compensationDescriptor","receiverOrientationType","azimuth","responseAzimuth","responseDelay"
"pavlovia","0","5","0.0-0.0","5f6cf5c1a7717114223fcd3d","60242478c74f84097a222710","6024271e6d5980099fc15125","Mozilla/5.0 (Macintosh; Intel Mac OS X 10_15_0) AppleWebKit/537.36 (KHTML, like Gecko) Chrome/88.0.4324.96 Safari/537.36","v1-up-stims","","","","","","","","","","","","","","","","",""
"html-keyboard-response","1","2166","0.0-1.0","5f6cf5c1a7717114223fcd3d","60242478c74f84097a222710","6024271e6d5980099fc15125","Mozilla/5.0 (Macintosh; Intel Mac OS X 10_15_0) AppleWebKit/537.36 (KHTML, like Gecko) Chrome/88.0.4324.96 Safari/537.36","v1-up-stims","2158.199999947101","<div><h1>Welcome!</h1><p>Press any key to continue.</p></div>","32","","","","","","","","","","","","","",""
"consent-form","2","36916","0.0-2.0","5f6cf5c1a7717114223fcd3d","60242478c74f84097a222710","6024271e6d5980099fc15125","Mozilla/5.0 (Macintosh; Intel Mac OS X 10_15_0) AppleWebKit/537.36 (KHTML, like Gecko) Chrome/88.0.4324.96 Safari/537.36","v1-up-stims","","","","","","","","","","","","","","","","",""
"keyset-select","3","140044","0.0-3.0","5f6cf5c1a7717114223fcd3d","60242478c74f84097a222710","6024271e6d5980099fc15125","Mozilla/5.0 (Macintosh; Intel Mac OS X 10_15_0) AppleWebKit/537.36 (KHTML, like Gecko) Chrome/88.0.4324.96 Safari/537.36","v1-up-stims","","","","left-hand","","","","","","","","","","","","",""
"headphone-check","4","217743","0.0-4.0","5f6cf5c1a7717114223fcd3d","60242478c74f84097a222710","6024271e6d5980099fc15125","Mozilla/5.0 (Macintosh; Intel Mac OS X 10_15_0) AppleWebKit/537.36 (KHTML, like Gecko) Chrome/88.0.4324.96 Safari/537.36","v1-up-stims","","","","","0","6","0.3","","","","","","","","","",""
"headphone-backwards-check","5","228491","0.0-5.0","5f6cf5c1a7717114223fcd3d","60242478c74f84097a222710","6024271e6d5980099fc15125","Mozilla/5.0 (Macintosh; Intel Mac OS X 10_15_0) AppleWebKit/537.36 (KHTML, like Gecko) Chrome/88.0.4324.96 Safari/537.36","v1-up-stims","","","","","0","","","","","","","","","","","",""
"training","6","326027","0.0-6.0","5f6cf5c1a7717114223fcd3d","60242478c74f84097a222710","6024271e6d5980099fc15125","Mozilla/5.0 (Macintosh; Intel Mac OS X 10_15_0) AppleWebKit/537.36 (KHTML, like Gecko) Chrome/88.0.4324.96 Safari/537.36","v1-up-stims","","","","","","","","","","","","","","","","",""
"block-bookend","7","340941","0.0-7.0","5f6cf5c1a7717114223fcd3d","60242478c74f84097a222710","6024271e6d5980099fc15125","Mozilla/5.0 (Macintosh; Intel Mac OS X 10_15_0) AppleWebKit/537.36 (KHTML, like Gecko) Chrome/88.0.4324.96 Safari/537.36","v1-up-stims","","","","","","","","","","","","","","","","",""
"echo-presentation","8","352160","0.0-8.0","5f6cf5c1a7717114223fcd3d","60242478c74f84097a222710","6024271e6d5980099fc15125","Mozilla/5.0 (Macintosh; Intel Mac OS X 10_15_0) AppleWebKit/537.36 (KHTML, like Gecko) Chrome/88.0.4324.96 Safari/537.36","v1-up-stims","","","","","","","","40,50,60,70,80","media/audio/stims/spherical_300cm_s20_c10_cd-half_matched_a50.wav","spherical","20","10","half","matched","50","80","8236"
"echo-presentation","9","356280","0.0-9.0","5f6cf5c1a7717114223fcd3d","60242478c74f84097a222710","6024271e6d5980099fc15125","Mozilla/5.0 (Macintosh; Intel Mac OS X 10_15_0) AppleWebKit/537.36 (KHTML, like Gecko) Chrome/88.0.4324.96 Safari/537.36","v1-up-stims","","","","","","","","40,50,60,70,80","media/audio/stims/spherical_300cm_s20_c10_cd-half_matched_a60.wav","spherical","20","10","half","matched","60","80","1991"
"echo-presentation","10","360459","0.0-10.0","5f6cf5c1a7717114223fcd3d","60242478c74f84097a222710","6024271e6d5980099fc15125","Mozilla/5.0 (Macintosh; Intel Mac OS X 10_15_0) AppleWebKit/537.36 (KHTML, like Gecko) Chrome/88.0.4324.96 Safari/537.36","v1-up-stims","","","","","","","","40,50,60,70,80","media/audio/stims/spherical_300cm_s20_c10_cd-half_matched_a60.wav","spherical","20","10","half","matched","60","80","2355"
"echo-presentation","11","364550","0.0-11.0","5f6cf5c1a7717114223fcd3d","60242478c74f84097a222710","6024271e6d5980099fc15125","Mozilla/5.0 (Macintosh; Intel Mac OS X 10_15_0) AppleWebKit/537.36 (KHTML, like Gecko) Chrome/88.0.4324.96 Safari/537.36","v1-up-stims","","","","","","","","40,50,60,70,80","media/audio/stims/spherical_300cm_s20_c10_cd-half_matched_a70.wav","spherical","20","10","half","matched","70","80","2549"
"echo-presentation","12","368988","0.0-12.0","5f6cf5c1a7717114223fcd3d","60242478c74f84097a222710","6024271e6d5980099fc15125","Mozilla/5.0 (Macintosh; Intel Mac OS X 10_15_0) AppleWebKit/537.36 (KHTML, like Gecko) Chrome/88.0.4324.96 Safari/537.36","v1-up-stims","","","","","","","","40,50,60,70,80","media/audio/stims/spherical_300cm_s20_c10_cd-half_matched_a50.wav","spherical","20","10","half","matched","50","70","2978"
"echo-presentation","13","372713","0.0-13.0","5f6cf5c1a7717114223fcd3d","60242478c74f84097a222710","6024271e6d5980099fc15125","Mozilla/5.0 (Macintosh; Intel Mac OS X 10_15_0) AppleWebKit/537.36 (KHTML, like Gecko) Chrome/88.0.4324.96 Safari/537.36","v1-up-stims","","","","","","","","40,50,60,70,80","media/audio/stims/spherical_300cm_s20_c10_cd-half_matched_a60.wav","spherical","20","10","half","matched","60","80","1935"
"echo-presentation","14","375978","0.0-14.0","5f6cf5c1a7717114223fcd3d","60242478c74f84097a222710","6024271e6d5980099fc15125","Mozilla/5.0 (Macintosh; Intel Mac OS X 10_15_0) AppleWebKit/537.36 (KHTML, like Gecko) Chrome/88.0.4324.96 Safari/537.36","v1-up-stims","","","","","","","","40,50,60,70,80","media/audio/stims/spherical_300cm_s20_c10_cd-half_matched_a80.wav","spherical","20","10","half","matched","80","80","1644"
"echo-presentation","15","383522","0.0-15.0","5f6cf5c1a7717114223fcd3d","60242478c74f84097a222710","6024271e6d5980099fc15125","Mozilla/5.0 (Macintosh; Intel Mac OS X 10_15_0) AppleWebKit/537.36 (KHTML, like Gecko) Chrome/88.0.4324.96 Safari/537.36","v1-up-stims","","","","","","","","40,50,60,70,80","media/audio/stims/spherical_300cm_s20_c10_cd-half_matched_a70.wav","spherical","20","10","half","matched","70","80","5630"
"echo-presentation","16","388714","0.0-16.0","5f6cf5c1a7717114223fcd3d","60242478c74f84097a222710","6024271e6d5980099fc15125","Mozilla/5.0 (Macintosh; Intel Mac OS X 10_15_0) AppleWebKit/537.36 (KHTML, like Gecko) Chrome/88.0.4324.96 Safari/537.36","v1-up-stims","","","","","","","","40,50,60,70,80","media/audio/stims/spherical_300cm_s20_c10_cd-half_matched_a70.wav","spherical","20","10","half","matched","70","80","2888"
"echo-presentation","17","395345","0.0-17.0","5f6cf5c1a7717114223fcd3d","60242478c74f84097a222710","6024271e6d5980099fc15125","Mozilla/5.0 (Macintosh; Intel Mac OS X 10_15_0) AppleWebKit/537.36 (KHTML, like Gecko) Chrome/88.0.4324.96 Safari/537.36","v1-up-stims","","","","","","","","40,50,60,70,80","media/audio/stims/spherical_300cm_s20_c10_cd-half_matched_a70.wav","spherical","20","10","half","matched","70","80","4168"
"echo-presentation","18","401381","0.0-18.0","5f6cf5c1a7717114223fcd3d","60242478c74f84097a222710","6024271e6d5980099fc15125","Mozilla/5.0 (Macintosh; Intel Mac OS X 10_15_0) AppleWebKit/537.36 (KHTML, like Gecko) Chrome/88.0.4324.96 Safari/537.36","v1-up-stims","","","","","","","","40,50,60,70,80","media/audio/stims/spherical_300cm_s20_c10_cd-half_matched_a50.wav","spherical","20","10","half","matched","50","80","4596"
"echo-presentation","19","408509","0.0-19.0","5f6cf5c1a7717114223fcd3d","60242478c74f84097a222710","6024271e6d5980099fc15125","Mozilla/5.0 (Macintosh; Intel Mac OS X 10_15_0) AppleWebKit/537.36 (KHTML, like Gecko) Chrome/88.0.4324.96 Safari/537.36","v1-up-stims","","","","","","","","40,50,60,70,80","media/audio/stims/spherical_300cm_s20_c10_cd-half_matched_a60.wav","spherical","20","10","half","matched","60","70","3116"
"echo-presentation","20","413121","0.0-20.0","5f6cf5c1a7717114223fcd3d","60242478c74f84097a222710","6024271e6d5980099fc15125","Mozilla/5.0 (Macintosh; Intel Mac OS X 10_15_0) AppleWebKit/537.36 (KHTML, like Gecko) Chrome/88.0.4324.96 Safari/537.36","v1-up-stims","","","","","","","","40,50,60,70,80","media/audio/stims/spherical_300cm_s20_c10_cd-half_matched_a80.wav","spherical","20","10","half","matched","80","80","2151"
"echo-presentation","21","417386","0.0-21.0","5f6cf5c1a7717114223fcd3d","60242478c74f84097a222710","6024271e6d5980099fc15125","Mozilla/5.0 (Macintosh; Intel Mac OS X 10_15_0) AppleWebKit/537.36 (KHTML, like Gecko) Chrome/88.0.4324.96 Safari/537.36","v1-up-stims","","","","","","","","40,50,60,70,80","media/audio/stims/spherical_300cm_s20_c10_cd-half_matched_a40.wav","spherical","20","10","half","matched","40","70","2468"
"echo-presentation","22","426555","0.0-22.0","5f6cf5c1a7717114223fcd3d","60242478c74f84097a222710","6024271e6d5980099fc15125","Mozilla/5.0 (Macintosh; Intel Mac OS X 10_15_0) AppleWebKit/537.36 (KHTML, like Gecko) Chrome/88.0.4324.96 Safari/537.36","v1-up-stims","","","","","","","","40,50,60,70,80","media/audio/stims/spherical_300cm_s20_c10_cd-half_matched_a80.wav","spherical","20","10","half","matched","80","80","5863"
"echo-presentation","23","430501","0.0-23.0","5f6cf5c1a7717114223fcd3d","60242478c74f84097a222710","6024271e6d5980099fc15125","Mozilla/5.0 (Macintosh; Intel Mac OS X 10_15_0) AppleWebKit/537.36 (KHTML, like Gecko) Chrome/88.0.4324.96 Safari/537.36","v1-up-stims","","","","","","","","40,50,60,70,80","media/audio/stims/spherical_300cm_s20_c10_cd-half_matched_a40.wav","spherical","20","10","half","matched","40","70","2186"
"echo-presentation","24","444810","0.0-24.0","5f6cf5c1a7717114223fcd3d","60242478c74f84097a222710","6024271e6d5980099fc15125","Mozilla/5.0 (Macintosh; Intel Mac OS X 10_15_0) AppleWebKit/537.36 (KHTML, like Gecko) Chrome/88.0.4324.96 Safari/537.36","v1-up-stims","","","","","","","","40,50,60,70,80","media/audio/stims/spherical_300cm_s20_c10_cd-half_matched_a80.wav","spherical","20","10","half","matched","80","70","10305"
"echo-presentation","25","450719","0.0-25.0","5f6cf5c1a7717114223fcd3d","60242478c74f84097a222710","6024271e6d5980099fc15125","Mozilla/5.0 (Macintosh; Intel Mac OS X 10_15_0) AppleWebKit/537.36 (KHTML, like Gecko) Chrome/88.0.4324.96 Safari/537.36","v1-up-stims","","","","","","","","40,50,60,70,80","media/audio/stims/spherical_300cm_s20_c10_cd-half_matched_a50.wav","spherical","20","10","half","matched","50","80","3205"
"echo-presentation","26","454137","0.0-26.0","5f6cf5c1a7717114223fcd3d","60242478c74f84097a222710","6024271e6d5980099fc15125","Mozilla/5.0 (Macintosh; Intel Mac OS X 10_15_0) AppleWebKit/537.36 (KHTML, like Gecko) Chrome/88.0.4324.96 Safari/537.36","v1-up-stims","","","","","","","","40,50,60,70,80","media/audio/stims/spherical_300cm_s20_c10_cd-half_matched_a40.wav","spherical","20","10","half","matched","40","80","2094"
"echo-presentation","27","458562","0.0-27.0","5f6cf5c1a7717114223fcd3d","60242478c74f84097a222710","6024271e6d5980099fc15125","Mozilla/5.0 (Macintosh; Intel Mac OS X 10_15_0) AppleWebKit/537.36 (KHTML, like Gecko) Chrome/88.0.4324.96 Safari/537.36","v1-up-stims","","","","","","","","40,50,60,70,80","media/audio/stims/spherical_300cm_s20_c10_cd-half_matched_a40.wav","spherical","20","10","half","matched","40","80","2434"
"block-bookend","28","461364","0.0-28.0","5f6cf5c1a7717114223fcd3d","60242478c74f84097a222710","6024271e6d5980099fc15125","Mozilla/5.0 (Macintosh; Intel Mac OS X 10_15_0) AppleWebKit/537.36 (KHTML, like Gecko) Chrome/88.0.4324.96 Safari/537.36","v1-up-stims","","","","","","","","","","","","","","","","",""
"block-bookend","29","474580","0.0-29.0","5f6cf5c1a7717114223fcd3d","60242478c74f84097a222710","6024271e6d5980099fc15125","Mozilla/5.0 (Macintosh; Intel Mac OS X 10_15_0) AppleWebKit/537.36 (KHTML, like Gecko) Chrome/88.0.4324.96 Safari/537.36","v1-up-stims","","","","","","","","","","","","","","","","",""
"echo-presentation","30","484127","0.0-30.0","5f6cf5c1a7717114223fcd3d","60242478c74f84097a222710","6024271e6d5980099fc15125","Mozilla/5.0 (Macintosh; Intel Mac OS X 10_15_0) AppleWebKit/537.36 (KHTML, like Gecko) Chrome/88.0.4324.96 Safari/537.36","v1-up-stims","","","","","","","","40,50,60,70,80","media/audio/stims/spherical_300cm_s20_c10_cd-half_matched_a40.wav","spherical","20","10","half","matched","40","70","6524"
"echo-presentation","31","490283","0.0-31.0","5f6cf5c1a7717114223fcd3d","60242478c74f84097a222710","6024271e6d5980099fc15125","Mozilla/5.0 (Macintosh; Intel Mac OS X 10_15_0) AppleWebKit/537.36 (KHTML, like Gecko) Chrome/88.0.4324.96 Safari/537.36","v1-up-stims","","","","","","","","40,50,60,70,80","media/audio/stims/spherical_300cm_s20_c10_cd-half_matched_a60.wav","spherical","20","10","half","matched","60","70","3786"
"echo-presentation","32","496040","0.0-32.0","5f6cf5c1a7717114223fcd3d","60242478c74f84097a222710","6024271e6d5980099fc15125","Mozilla/5.0 (Macintosh; Intel Mac OS X 10_15_0) AppleWebKit/537.36 (KHTML, like Gecko) Chrome/88.0.4324.96 Safari/537.36","v1-up-stims","","","","","","","","40,50,60,70,80","media/audio/stims/spherical_300cm_s20_c10_cd-half_matched_a70.wav","spherical","20","10","half","matched","70","80","4123"
"echo-presentation","33","501078","0.0-33.0","5f6cf5c1a7717114223fcd3d","60242478c74f84097a222710","6024271e6d5980099fc15125","Mozilla/5.0 (Macintosh; Intel Mac OS X 10_15_0) AppleWebKit/537.36 (KHTML, like Gecko) Chrome/88.0.4324.96 Safari/537.36","v1-up-stims","","","","","","","","40,50,60,70,80","media/audio/stims/spherical_300cm_s20_c10_cd-half_matched_a60.wav","spherical","20","10","half","matched","60","70","2458"
"echo-presentation","34","510053","0.0-34.0","5f6cf5c1a7717114223fcd3d","60242478c74f84097a222710","6024271e6d5980099fc15125","Mozilla/5.0 (Macintosh; Intel Mac OS X 10_15_0) AppleWebKit/537.36 (KHTML, like Gecko) Chrome/88.0.4324.96 Safari/537.36","v1-up-stims","","","","","","","","40,50,60,70,80","media/audio/stims/spherical_300cm_s20_c10_cd-half_matched_a80.wav","spherical","20","10","half","matched","80","80","7558"
"echo-presentation","35","516896","0.0-35.0","5f6cf5c1a7717114223fcd3d","60242478c74f84097a222710","6024271e6d5980099fc15125","Mozilla/5.0 (Macintosh; Intel Mac OS X 10_15_0) AppleWebKit/537.36 (KHTML, like Gecko) Chrome/88.0.4324.96 Safari/537.36","v1-up-stims","","","","","","","","40,50,60,70,80","media/audio/stims/spherical_300cm_s20_c10_cd-half_matched_a50.wav","spherical","20","10","half","matched","50","60","4425"
"echo-presentation","36","521850","0.0-36.0","5f6cf5c1a7717114223fcd3d","60242478c74f84097a222710","6024271e6d5980099fc15125","Mozilla/5.0 (Macintosh; Intel Mac OS X 10_15_0) AppleWebKit/537.36 (KHTML, like Gecko) Chrome/88.0.4324.96 Safari/537.36","v1-up-stims","","","","","","","","40,50,60,70,80","media/audio/stims/spherical_300cm_s20_c10_cd-half_matched_a40.wav","spherical","20","10","half","matched","40","80","3008"
"echo-presentation","37","527376","0.0-37.0","5f6cf5c1a7717114223fcd3d","60242478c74f84097a222710","6024271e6d5980099fc15125","Mozilla/5.0 (Macintosh; Intel Mac OS X 10_15_0) AppleWebKit/537.36 (KHTML, like Gecko) Chrome/88.0.4324.96 Safari/537.36","v1-up-stims","","","","","","","","40,50,60,70,80","media/audio/stims/spherical_300cm_s20_c10_cd-half_matched_a50.wav","spherical","20","10","half","matched","50","70","3360"
"echo-presentation","38","531016","0.0-38.0","5f6cf5c1a7717114223fcd3d","60242478c74f84097a222710","6024271e6d5980099fc15125","Mozilla/5.0 (Macintosh; Intel Mac OS X 10_15_0) AppleWebKit/537.36 (KHTML, like Gecko) Chrome/88.0.4324.96 Safari/537.36","v1-up-stims","","","","","","","","40,50,60,70,80","media/audio/stims/spherical_300cm_s20_c10_cd-half_matched_a60.wav","spherical","20","10","half","matched","60","80","1920"
"echo-presentation","39","536407","0.0-39.0","5f6cf5c1a7717114223fcd3d","60242478c74f84097a222710","6024271e6d5980099fc15125","Mozilla/5.0 (Macintosh; Intel Mac OS X 10_15_0) AppleWebKit/537.36 (KHTML, like Gecko) Chrome/88.0.4324.96 Safari/537.36","v1-up-stims","","","","","","","","40,50,60,70,80","media/audio/stims/spherical_300cm_s20_c10_cd-half_matched_a60.wav","spherical","20","10","half","matched","60","60","3461"
"echo-presentation","40","539496","0.0-40.0","5f6cf5c1a7717114223fcd3d","60242478c74f84097a222710","6024271e6d5980099fc15125","Mozilla/5.0 (Macintosh; Intel Mac OS X 10_15_0) AppleWebKit/537.36 (KHTML, like Gecko) Chrome/88.0.4324.96 Safari/537.36","v1-up-stims","","","","","","","","40,50,60,70,80","media/audio/stims/spherical_300cm_s20_c10_cd-half_matched_a80.wav","spherical","20","10","half","matched","80","80","1900"
"echo-presentation","41","543445","0.0-41.0","5f6cf5c1a7717114223fcd3d","60242478c74f84097a222710","6024271e6d5980099fc15125","Mozilla/5.0 (Macintosh; Intel Mac OS X 10_15_0) AppleWebKit/537.36 (KHTML, like Gecko) Chrome/88.0.4324.96 Safari/537.36","v1-up-stims","","","","","","","","40,50,60,70,80","media/audio/stims/spherical_300cm_s20_c10_cd-half_matched_a50.wav","spherical","20","10","half","matched","50","70","2071"
"echo-presentation","42","547041","0.0-42.0","5f6cf5c1a7717114223fcd3d","60242478c74f84097a222710","6024271e6d5980099fc15125","Mozilla/5.0 (Macintosh; Intel Mac OS X 10_15_0) AppleWebKit/537.36 (KHTML, like Gecko) Chrome/88.0.4324.96 Safari/537.36","v1-up-stims","","","","","","","","40,50,60,70,80","media/audio/stims/spherical_300cm_s20_c10_cd-half_matched_a70.wav","spherical","20","10","half","matched","70","70","2063"
"echo-presentation","43","551166","0.0-43.0","5f6cf5c1a7717114223fcd3d","60242478c74f84097a222710","6024271e6d5980099fc15125","Mozilla/5.0 (Macintosh; Intel Mac OS X 10_15_0) AppleWebKit/537.36 (KHTML, like Gecko) Chrome/88.0.4324.96 Safari/537.36","v1-up-stims","","","","","","","","40,50,60,70,80","media/audio/stims/spherical_300cm_s20_c10_cd-half_matched_a40.wav","spherical","20","10","half","matched","40","70","2337"
"echo-presentation","44","555697","0.0-44.0","5f6cf5c1a7717114223fcd3d","60242478c74f84097a222710","6024271e6d5980099fc15125","Mozilla/5.0 (Macintosh; Intel Mac OS X 10_15_0) AppleWebKit/537.36 (KHTML, like Gecko) Chrome/88.0.4324.96 Safari/537.36","v1-up-stims","","","","","","","","40,50,60,70,80","media/audio/stims/spherical_300cm_s20_c10_cd-half_matched_a80.wav","spherical","20","10","half","matched","80","70","2708"
"echo-presentation","45","560742","0.0-45.0","5f6cf5c1a7717114223fcd3d","60242478c74f84097a222710","6024271e6d5980099fc15125","Mozilla/5.0 (Macintosh; Intel Mac OS X 10_15_0) AppleWebKit/537.36 (KHTML, like Gecko) Chrome/88.0.4324.96 Safari/537.36","v1-up-stims","","","","","","","","40,50,60,70,80","media/audio/stims/spherical_300cm_s20_c10_cd-half_matched_a70.wav","spherical","20","10","half","matched","70","80","2160"
"echo-presentation","46","567437","0.0-46.0","5f6cf5c1a7717114223fcd3d","60242478c74f84097a222710","6024271e6d5980099fc15125","Mozilla/5.0 (Macintosh; Intel Mac OS X 10_15_0) AppleWebKit/537.36 (KHTML, like Gecko) Chrome/88.0.4324.96 Safari/537.36","v1-up-stims","","","","","","","","40,50,60,70,80","media/audio/stims/spherical_300cm_s20_c10_cd-half_matched_a40.wav","spherical","20","10","half","matched","40","60","5287"
"echo-presentation","47","571987","0.0-47.0","5f6cf5c1a7717114223fcd3d","60242478c74f84097a222710","6024271e6d5980099fc15125","Mozilla/5.0 (Macintosh; Intel Mac OS X 10_15_0) AppleWebKit/537.36 (KHTML, like Gecko) Chrome/88.0.4324.96 Safari/537.36","v1-up-stims","","","","","","","","40,50,60,70,80","media/audio/stims/spherical_300cm_s20_c10_cd-half_matched_a50.wav","spherical","20","10","half","matched","50","70","2766"
"echo-presentation","48","575179","0.0-48.0","5f6cf5c1a7717114223fcd3d","60242478c74f84097a222710","6024271e6d5980099fc15125","Mozilla/5.0 (Macintosh; Intel Mac OS X 10_15_0) AppleWebKit/537.36 (KHTML, like Gecko) Chrome/88.0.4324.96 Safari/537.36","v1-up-stims","","","","","","","","40,50,60,70,80","media/audio/stims/spherical_300cm_s20_c10_cd-half_matched_a70.wav","spherical","20","10","half","matched","70","70","2028"
"echo-presentation","49","580380","0.0-49.0","5f6cf5c1a7717114223fcd3d","60242478c74f84097a222710","6024271e6d5980099fc15125","Mozilla/5.0 (Macintosh; Intel Mac OS X 10_15_0) AppleWebKit/537.36 (KHTML, like Gecko) Chrome/88.0.4324.96 Safari/537.36","v1-up-stims","","","","","","","","40,50,60,70,80","media/audio/stims/spherical_300cm_s20_c10_cd-half_matched_a80.wav","spherical","20","10","half","matched","80","70","3542"
"block-bookend","50","582552","0.0-50.0","5f6cf5c1a7717114223fcd3d","60242478c74f84097a222710","6024271e6d5980099fc15125","Mozilla/5.0 (Macintosh; Intel Mac OS X 10_15_0) AppleWebKit/537.36 (KHTML, like Gecko) Chrome/88.0.4324.96 Safari/537.36","v1-up-stims","","","","","","","","","","","","","","","","",""
"block-bookend","51","592689","0.0-51.0","5f6cf5c1a7717114223fcd3d","60242478c74f84097a222710","6024271e6d5980099fc15125","Mozilla/5.0 (Macintosh; Intel Mac OS X 10_15_0) AppleWebKit/537.36 (KHTML, like Gecko) Chrome/88.0.4324.96 Safari/537.36","v1-up-stims","","","","","","","","","","","","","","","","",""
"echo-presentation","52","600592","0.0-52.0","5f6cf5c1a7717114223fcd3d","60242478c74f84097a222710","6024271e6d5980099fc15125","Mozilla/5.0 (Macintosh; Intel Mac OS X 10_15_0) AppleWebKit/537.36 (KHTML, like Gecko) Chrome/88.0.4324.96 Safari/537.36","v1-up-stims","","","","","","","","-80,-70,-60,-50,-40","media/audio/stims/spherical_300cm_s20_c10_cd-half_matched_a-50.wav","spherical","20","10","half","matched","-50","-80","5686"
"echo-presentation","53","604681","0.0-53.0","5f6cf5c1a7717114223fcd3d","60242478c74f84097a222710","6024271e6d5980099fc15125","Mozilla/5.0 (Macintosh; Intel Mac OS X 10_15_0) AppleWebKit/537.36 (KHTML, like Gecko) Chrome/88.0.4324.96 Safari/537.36","v1-up-stims","","","","","","","","-80,-70,-60,-50,-40","media/audio/stims/spherical_300cm_s20_c10_cd-half_matched_a-50.wav","spherical","20","10","half","matched","-50","-80","2612"
"echo-presentation","54","610105","0.0-54.0","5f6cf5c1a7717114223fcd3d","60242478c74f84097a222710","6024271e6d5980099fc15125","Mozilla/5.0 (Macintosh; Intel Mac OS X 10_15_0) AppleWebKit/537.36 (KHTML, like Gecko) Chrome/88.0.4324.96 Safari/537.36","v1-up-stims","","","","","","","","-80,-70,-60,-50,-40","media/audio/stims/spherical_300cm_s20_c10_cd-half_matched_a-80.wav","spherical","20","10","half","matched","-80","-80","3979"
"echo-presentation","55","613783","0.0-55.0","5f6cf5c1a7717114223fcd3d","60242478c74f84097a222710","6024271e6d5980099fc15125","Mozilla/5.0 (Macintosh; Intel Mac OS X 10_15_0) AppleWebKit/537.36 (KHTML, like Gecko) Chrome/88.0.4324.96 Safari/537.36","v1-up-stims","","","","","","","","-80,-70,-60,-50,-40","media/audio/stims/spherical_300cm_s20_c10_cd-half_matched_a-40.wav","spherical","20","10","half","matched","-40","-80","2017"
"echo-presentation","56","617522","0.0-56.0","5f6cf5c1a7717114223fcd3d","60242478c74f84097a222710","6024271e6d5980099fc15125","Mozilla/5.0 (Macintosh; Intel Mac OS X 10_15_0) AppleWebKit/537.36 (KHTML, like Gecko) Chrome/88.0.4324.96 Safari/537.36","v1-up-stims","","","","","","","","-80,-70,-60,-50,-40","media/audio/stims/spherical_300cm_s20_c10_cd-half_matched_a-80.wav","spherical","20","10","half","matched","-80","-80","2365"
"echo-presentation","57","621241","0.0-57.0","5f6cf5c1a7717114223fcd3d","60242478c74f84097a222710","6024271e6d5980099fc15125","Mozilla/5.0 (Macintosh; Intel Mac OS X 10_15_0) AppleWebKit/537.36 (KHTML, like Gecko) Chrome/88.0.4324.96 Safari/537.36","v1-up-stims","","","","","","","","-80,-70,-60,-50,-40","media/audio/stims/spherical_300cm_s20_c10_cd-half_matched_a-40.wav","spherical","20","10","half","matched","-40","-80","1905"
"echo-presentation","58","625827","0.0-58.0","5f6cf5c1a7717114223fcd3d","60242478c74f84097a222710","6024271e6d5980099fc15125","Mozilla/5.0 (Macintosh; Intel Mac OS X 10_15_0) AppleWebKit/537.36 (KHTML, like Gecko) Chrome/88.0.4324.96 Safari/537.36","v1-up-stims","","","","","","","","-80,-70,-60,-50,-40","media/audio/stims/spherical_300cm_s20_c10_cd-half_matched_a-40.wav","spherical","20","10","half","matched","-40","-80","2670"
"echo-presentation","59","629826","0.0-59.0","5f6cf5c1a7717114223fcd3d","60242478c74f84097a222710","6024271e6d5980099fc15125","Mozilla/5.0 (Macintosh; Intel Mac OS X 10_15_0) AppleWebKit/537.36 (KHTML, like Gecko) Chrome/88.0.4324.96 Safari/537.36","v1-up-stims","","","","","","","","-80,-70,-60,-50,-40","media/audio/stims/spherical_300cm_s20_c10_cd-half_matched_a-70.wav","spherical","20","10","half","matched","-70","-70","2703"
"echo-presentation","60","636167","0.0-60.0","5f6cf5c1a7717114223fcd3d","60242478c74f84097a222710","6024271e6d5980099fc15125","Mozilla/5.0 (Macintosh; Intel Mac OS X 10_15_0) AppleWebKit/537.36 (KHTML, like Gecko) Chrome/88.0.4324.96 Safari/537.36","v1-up-stims","","","","","","","","-80,-70,-60,-50,-40","media/audio/stims/spherical_300cm_s20_c10_cd-half_matched_a-80.wav","spherical","20","10","half","matched","-80","-70","1964"
"echo-presentation","61","639026","0.0-61.0","5f6cf5c1a7717114223fcd3d","60242478c74f84097a222710","6024271e6d5980099fc15125","Mozilla/5.0 (Macintosh; Intel Mac OS X 10_15_0) AppleWebKit/537.36 (KHTML, like Gecko) Chrome/88.0.4324.96 Safari/537.36","v1-up-stims","","","","","","","","-80,-70,-60,-50,-40","media/audio/stims/spherical_300cm_s20_c10_cd-half_matched_a-70.wav","spherical","20","10","half","matched","-70","-70","1614"
"echo-presentation","62","646621","0.0-62.0","5f6cf5c1a7717114223fcd3d","60242478c74f84097a222710","6024271e6d5980099fc15125","Mozilla/5.0 (Macintosh; Intel Mac OS X 10_15_0) AppleWebKit/537.36 (KHTML, like Gecko) Chrome/88.0.4324.96 Safari/537.36","v1-up-stims","","","","","","","","-80,-70,-60,-50,-40","media/audio/stims/spherical_300cm_s20_c10_cd-half_matched_a-80.wav","spherical","20","10","half","matched","-80","-60","6017"
"echo-presentation","63","650032","0.0-63.0","5f6cf5c1a7717114223fcd3d","60242478c74f84097a222710","6024271e6d5980099fc15125","Mozilla/5.0 (Macintosh; Intel Mac OS X 10_15_0) AppleWebKit/537.36 (KHTML, like Gecko) Chrome/88.0.4324.96 Safari/537.36","v1-up-stims","","","","","","","","-80,-70,-60,-50,-40","media/audio/stims/spherical_300cm_s20_c10_cd-half_matched_a-70.wav","spherical","20","10","half","matched","-70","-70","1834"
"echo-presentation","64","653045","0.0-64.0","5f6cf5c1a7717114223fcd3d","60242478c74f84097a222710","6024271e6d5980099fc15125","Mozilla/5.0 (Macintosh; Intel Mac OS X 10_15_0) AppleWebKit/537.36 (KHTML, like Gecko) Chrome/88.0.4324.96 Safari/537.36","v1-up-stims","","","","","","","","-80,-70,-60,-50,-40","media/audio/stims/spherical_300cm_s20_c10_cd-half_matched_a-50.wav","spherical","20","10","half","matched","-50","-80","1795"
"echo-presentation","65","656019","0.0-65.0","5f6cf5c1a7717114223fcd3d","60242478c74f84097a222710","6024271e6d5980099fc15125","Mozilla/5.0 (Macintosh; Intel Mac OS X 10_15_0) AppleWebKit/537.36 (KHTML, like Gecko) Chrome/88.0.4324.96 Safari/537.36","v1-up-stims","","","","","","","","-80,-70,-60,-50,-40","media/audio/stims/spherical_300cm_s20_c10_cd-half_matched_a-60.wav","spherical","20","10","half","matched","-60","-70","1735"
"echo-presentation","66","658774","0.0-66.0","5f6cf5c1a7717114223fcd3d","60242478c74f84097a222710","6024271e6d5980099fc15125","Mozilla/5.0 (Macintosh; Intel Mac OS X 10_15_0) AppleWebKit/537.36 (KHTML, like Gecko) Chrome/88.0.4324.96 Safari/537.36","v1-up-stims","","","","","","","","-80,-70,-60,-50,-40","media/audio/stims/spherical_300cm_s20_c10_cd-half_matched_a-60.wav","spherical","20","10","half","matched","-60","-70","1524"
"echo-presentation","67","664538","0.0-67.0","5f6cf5c1a7717114223fcd3d","60242478c74f84097a222710","6024271e6d5980099fc15125","Mozilla/5.0 (Macintosh; Intel Mac OS X 10_15_0) AppleWebKit/537.36 (KHTML, like Gecko) Chrome/88.0.4324.96 Safari/537.36","v1-up-stims","","","","","","","","-80,-70,-60,-50,-40","media/audio/stims/spherical_300cm_s20_c10_cd-half_matched_a-60.wav","spherical","20","10","half","matched","-60","-70","4577"
"echo-presentation","68","668824","0.0-68.0","5f6cf5c1a7717114223fcd3d","60242478c74f84097a222710","6024271e6d5980099fc15125","Mozilla/5.0 (Macintosh; Intel Mac OS X 10_15_0) AppleWebKit/537.36 (KHTML, like Gecko) Chrome/88.0.4324.96 Safari/537.36","v1-up-stims","","","","","","","","-80,-70,-60,-50,-40","media/audio/stims/spherical_300cm_s20_c10_cd-half_matched_a-60.wav","spherical","20","10","half","matched","-60","-70","3013"
"echo-presentation","69","671322","0.0-69.0","5f6cf5c1a7717114223fcd3d","60242478c74f84097a222710","6024271e6d5980099fc15125","Mozilla/5.0 (Macintosh; Intel Mac OS X 10_15_0) AppleWebKit/537.36 (KHTML, like Gecko) Chrome/88.0.4324.96 Safari/537.36","v1-up-stims","","","","","","","","-80,-70,-60,-50,-40","media/audio/stims/spherical_300cm_s20_c10_cd-half_matched_a-50.wav","spherical","20","10","half","matched","-50","-80","1468"
"echo-presentation","70","673730","0.0-70.0","5f6cf5c1a7717114223fcd3d","60242478c74f84097a222710","6024271e6d5980099fc15125","Mozilla/5.0 (Macintosh; Intel Mac OS X 10_15_0) AppleWebKit/537.36 (KHTML, like Gecko) Chrome/88.0.4324.96 Safari/537.36","v1-up-stims","","","","","","","","-80,-70,-60,-50,-40","media/audio/stims/spherical_300cm_s20_c10_cd-half_matched_a-70.wav","spherical","20","10","half","matched","-70","-80","1234"
"echo-presentation","71","677367","0.0-71.0","5f6cf5c1a7717114223fcd3d","60242478c74f84097a222710","6024271e6d5980099fc15125","Mozilla/5.0 (Macintosh; Intel Mac OS X 10_15_0) AppleWebKit/537.36 (KHTML, like Gecko) Chrome/88.0.4324.96 Safari/537.36","v1-up-stims","","","","","","","","-80,-70,-60,-50,-40","media/audio/stims/spherical_300cm_s20_c10_cd-half_matched_a-40.wav","spherical","20","10","half","matched","-40","-80","1298"
"block-bookend","72","678703","0.0-72.0","5f6cf5c1a7717114223fcd3d","60242478c74f84097a222710","6024271e6d5980099fc15125","Mozilla/5.0 (Macintosh; Intel Mac OS X 10_15_0) AppleWebKit/537.36 (KHTML, like Gecko) Chrome/88.0.4324.96 Safari/537.36","v1-up-stims","","","","","","","","","","","","","","","","",""
"block-bookend","73","693935","0.0-73.0","5f6cf5c1a7717114223fcd3d","60242478c74f84097a222710","6024271e6d5980099fc15125","Mozilla/5.0 (Macintosh; Intel Mac OS X 10_15_0) AppleWebKit/537.36 (KHTML, like Gecko) Chrome/88.0.4324.96 Safari/537.36","v1-up-stims","","","","","","","","","","","","","","","","",""
"echo-presentation","74","702354","0.0-74.0","5f6cf5c1a7717114223fcd3d","60242478c74f84097a222710","6024271e6d5980099fc15125","Mozilla/5.0 (Macintosh; Intel Mac OS X 10_15_0) AppleWebKit/537.36 (KHTML, like Gecko) Chrome/88.0.4324.96 Safari/537.36","v1-up-stims","","","","","","","","-80,-70,-60,-50,-40","media/audio/stims/spherical_300cm_s20_c10_cd-half_matched_a-70.wav","spherical","20","10","half","matched","-70","-80","4655"
"echo-presentation","75","706854","0.0-75.0","5f6cf5c1a7717114223fcd3d","60242478c74f84097a222710","6024271e6d5980099fc15125","Mozilla/5.0 (Macintosh; Intel Mac OS X 10_15_0) AppleWebKit/537.36 (KHTML, like Gecko) Chrome/88.0.4324.96 Safari/537.36","v1-up-stims","","","","","","","","-80,-70,-60,-50,-40","media/audio/stims/spherical_300cm_s20_c10_cd-half_matched_a-50.wav","spherical","20","10","half","matched","-50","-80","2828"
"echo-presentation","76","712726","0.0-76.0","5f6cf5c1a7717114223fcd3d","60242478c74f84097a222710","6024271e6d5980099fc15125","Mozilla/5.0 (Macintosh; Intel Mac OS X 10_15_0) AppleWebKit/537.36 (KHTML, like Gecko) Chrome/88.0.4324.96 Safari/537.36","v1-up-stims","","","","","","","","-80,-70,-60,-50,-40","media/audio/stims/spherical_300cm_s20_c10_cd-half_matched_a-60.wav","spherical","20","10","half","matched","-60","-80","4588"
"echo-presentation","77","719806","0.0-77.0","5f6cf5c1a7717114223fcd3d","60242478c74f84097a222710","6024271e6d5980099fc15125","Mozilla/5.0 (Macintosh; Intel Mac OS X 10_15_0) AppleWebKit/537.36 (KHTML, like Gecko) Chrome/88.0.4324.96 Safari/537.36","v1-up-stims","","","","","","","","-80,-70,-60,-50,-40","media/audio/stims/spherical_300cm_s20_c10_cd-half_matched_a-50.wav","spherical","20","10","half","matched","-50","-70","3847"
"echo-presentation","78","725103","0.0-78.0","5f6cf5c1a7717114223fcd3d","60242478c74f84097a222710","6024271e6d5980099fc15125","Mozilla/5.0 (Macintosh; Intel Mac OS X 10_15_0) AppleWebKit/537.36 (KHTML, like Gecko) Chrome/88.0.4324.96 Safari/537.36","v1-up-stims","","","","","","","","-80,-70,-60,-50,-40","media/audio/stims/spherical_300cm_s20_c10_cd-half_matched_a-80.wav","spherical","20","10","half","matched","-80","-70","3875"
"echo-presentation","79","734220","0.0-79.0","5f6cf5c1a7717114223fcd3d","60242478c74f84097a222710","6024271e6d5980099fc15125","Mozilla/5.0 (Macintosh; Intel Mac OS X 10_15_0) AppleWebKit/537.36 (KHTML, like Gecko) Chrome/88.0.4324.96 Safari/537.36","v1-up-stims","","","","","","","","-80,-70,-60,-50,-40","media/audio/stims/spherical_300cm_s20_c10_cd-half_matched_a-60.wav","spherical","20","10","half","matched","-60","-70","7580"
"echo-presentation","80","739647","0.0-80.0","5f6cf5c1a7717114223fcd3d","60242478c74f84097a222710","6024271e6d5980099fc15125","Mozilla/5.0 (Macintosh; Intel Mac OS X 10_15_0) AppleWebKit/537.36 (KHTML, like Gecko) Chrome/88.0.4324.96 Safari/537.36","v1-up-stims","","","","","","","","-80,-70,-60,-50,-40","media/audio/stims/spherical_300cm_s20_c10_cd-half_matched_a-70.wav","spherical","20","10","half","matched","-70","-80","2285"
"echo-presentation","81","743709","0.0-81.0","5f6cf5c1a7717114223fcd3d","60242478c74f84097a222710","6024271e6d5980099fc15125","Mozilla/5.0 (Macintosh; Intel Mac OS X 10_15_0) AppleWebKit/537.36 (KHTML, like Gecko) Chrome/88.0.4324.96 Safari/537.36","v1-up-stims","","","","","","","","-80,-70,-60,-50,-40","media/audio/stims/spherical_300cm_s20_c10_cd-half_matched_a-40.wav","spherical","20","10","half","matched","-40","-80","2041"
"echo-presentation","82","747363","0.0-82.0","5f6cf5c1a7717114223fcd3d","60242478c74f84097a222710","6024271e6d5980099fc15125","Mozilla/5.0 (Macintosh; Intel Mac OS X 10_15_0) AppleWebKit/537.36 (KHTML, like Gecko) Chrome/88.0.4324.96 Safari/537.36","v1-up-stims","","","","","","","","-80,-70,-60,-50,-40","media/audio/stims/spherical_300cm_s20_c10_cd-half_matched_a-50.wav","spherical","20","10","half","matched","-50","-80","2855"
"echo-presentation","83","751590","0.0-83.0","5f6cf5c1a7717114223fcd3d","60242478c74f84097a222710","6024271e6d5980099fc15125","Mozilla/5.0 (Macintosh; Intel Mac OS X 10_15_0) AppleWebKit/537.36 (KHTML, like Gecko) Chrome/88.0.4324.96 Safari/537.36","v1-up-stims","","","","","","","","-80,-70,-60,-50,-40","media/audio/stims/spherical_300cm_s20_c10_cd-half_matched_a-60.wav","spherical","20","10","half","matched","-60","-80","3329"
"echo-presentation","84","755208","0.0-84.0","5f6cf5c1a7717114223fcd3d","60242478c74f84097a222710","6024271e6d5980099fc15125","Mozilla/5.0 (Macintosh; Intel Mac OS X 10_15_0) AppleWebKit/537.36 (KHTML, like Gecko) Chrome/88.0.4324.96 Safari/537.36","v1-up-stims","","","","","","","","-80,-70,-60,-50,-40","media/audio/stims/spherical_300cm_s20_c10_cd-half_matched_a-80.wav","spherical","20","10","half","matched","-80","-70","1509"
"echo-presentation","85","757571","0.0-85.0","5f6cf5c1a7717114223fcd3d","60242478c74f84097a222710","6024271e6d5980099fc15125","Mozilla/5.0 (Macintosh; Intel Mac OS X 10_15_0) AppleWebKit/537.36 (KHTML, like Gecko) Chrome/88.0.4324.96 Safari/537.36","v1-up-stims","","","","","","","","-80,-70,-60,-50,-40","media/audio/stims/spherical_300cm_s20_c10_cd-half_matched_a-40.wav","spherical","20","10","half","matched","-40","-80","1427"
"echo-presentation","86","760806","0.0-86.0","5f6cf5c1a7717114223fcd3d","60242478c74f84097a222710","6024271e6d5980099fc15125","Mozilla/5.0 (Macintosh; Intel Mac OS X 10_15_0) AppleWebKit/537.36 (KHTML, like Gecko) Chrome/88.0.4324.96 Safari/537.36","v1-up-stims","","","","","","","","-80,-70,-60,-50,-40","media/audio/stims/spherical_300cm_s20_c10_cd-half_matched_a-60.wav","spherical","20","10","half","matched","-60","-80","2321"
"echo-presentation","87","766047","0.0-87.0","5f6cf5c1a7717114223fcd3d","60242478c74f84097a222710","6024271e6d5980099fc15125","Mozilla/5.0 (Macintosh; Intel Mac OS X 10_15_0) AppleWebKit/537.36 (KHTML, like Gecko) Chrome/88.0.4324.96 Safari/537.36","v1-up-stims","","","","","","","","-80,-70,-60,-50,-40","media/audio/stims/spherical_300cm_s20_c10_cd-half_matched_a-80.wav","spherical","20","10","half","matched","-80","-80","4414"
"echo-presentation","88","771431","0.0-88.0","5f6cf5c1a7717114223fcd3d","60242478c74f84097a222710","6024271e6d5980099fc15125","Mozilla/5.0 (Macintosh; Intel Mac OS X 10_15_0) AppleWebKit/537.36 (KHTML, like Gecko) Chrome/88.0.4324.96 Safari/537.36","v1-up-stims","","","","","","","","-80,-70,-60,-50,-40","media/audio/stims/spherical_300cm_s20_c10_cd-half_matched_a-70.wav","spherical","20","10","half","matched","-70","-60","4216"
"echo-presentation","89","774954","0.0-89.0","5f6cf5c1a7717114223fcd3d","60242478c74f84097a222710","6024271e6d5980099fc15125","Mozilla/5.0 (Macintosh; Intel Mac OS X 10_15_0) AppleWebKit/537.36 (KHTML, like Gecko) Chrome/88.0.4324.96 Safari/537.36","v1-up-stims","","","","","","","","-80,-70,-60,-50,-40","media/audio/stims/spherical_300cm_s20_c10_cd-half_matched_a-70.wav","spherical","20","10","half","matched","-70","-70","2508"
"echo-presentation","90","778372","0.0-90.0","5f6cf5c1a7717114223fcd3d","60242478c74f84097a222710","6024271e6d5980099fc15125","Mozilla/5.0 (Macintosh; Intel Mac OS X 10_15_0) AppleWebKit/537.36 (KHTML, like Gecko) Chrome/88.0.4324.96 Safari/537.36","v1-up-stims","","","","","","","","-80,-70,-60,-50,-40","media/audio/stims/spherical_300cm_s20_c10_cd-half_matched_a-40.wav","spherical","20","10","half","matched","-40","-70","2310"
"echo-presentation","91","782841","0.0-91.0","5f6cf5c1a7717114223fcd3d","60242478c74f84097a222710","6024271e6d5980099fc15125","Mozilla/5.0 (Macintosh; Intel Mac OS X 10_15_0) AppleWebKit/537.36 (KHTML, like Gecko) Chrome/88.0.4324.96 Safari/537.36","v1-up-stims","","","","","","","","-80,-70,-60,-50,-40","media/audio/stims/spherical_300cm_s20_c10_cd-half_matched_a-40.wav","spherical","20","10","half","matched","-40","-80","3184"
"echo-presentation","92","790413","0.0-92.0","5f6cf5c1a7717114223fcd3d","60242478c74f84097a222710","6024271e6d5980099fc15125","Mozilla/5.0 (Macintosh; Intel Mac OS X 10_15_0) AppleWebKit/537.36 (KHTML, like Gecko) Chrome/88.0.4324.96 Safari/537.36","v1-up-stims","","","","","","","","-80,-70,-60,-50,-40","media/audio/stims/spherical_300cm_s20_c10_cd-half_matched_a-50.wav","spherical","20","10","half","matched","-50","-80","5792"
"echo-presentation","93","794118","0.0-93.0","5f6cf5c1a7717114223fcd3d","60242478c74f84097a222710","6024271e6d5980099fc15125","Mozilla/5.0 (Macintosh; Intel Mac OS X 10_15_0) AppleWebKit/537.36 (KHTML, like Gecko) Chrome/88.0.4324.96 Safari/537.36","v1-up-stims","","","","","","","","-80,-70,-60,-50,-40","media/audio/stims/spherical_300cm_s20_c10_cd-half_matched_a-80.wav","spherical","20","10","half","matched","-80","-70","2361"
"block-bookend","94","795168","0.0-94.0","5f6cf5c1a7717114223fcd3d","60242478c74f84097a222710","6024271e6d5980099fc15125","Mozilla/5.0 (Macintosh; Intel Mac OS X 10_15_0) AppleWebKit/537.36 (KHTML, like Gecko) Chrome/88.0.4324.96 Safari/537.36","v1-up-stims","","","","","","","","","","","","","","","","",""
"block-bookend","95","801651","0.0-95.0","5f6cf5c1a7717114223fcd3d","60242478c74f84097a222710","6024271e6d5980099fc15125","Mozilla/5.0 (Macintosh; Intel Mac OS X 10_15_0) AppleWebKit/537.36 (KHTML, like Gecko) Chrome/88.0.4324.96 Safari/537.36","v1-up-stims","","","","","","","","","","","","","","","","",""
"echo-presentation","96","808275","0.0-96.0","5f6cf5c1a7717114223fcd3d","60242478c74f84097a222710","6024271e6d5980099fc15125","Mozilla/5.0 (Macintosh; Intel Mac OS X 10_15_0) AppleWebKit/537.36 (KHTML, like Gecko) Chrome/88.0.4324.96 Safari/537.36","v1-up-stims","","","","","","","","-20,-10,0,10,20","media/audio/stims/spherical_300cm_s20_c10_cd-half_matched_a-10.wav","spherical","20","10","half","matched","-10","0","4843"
"echo-presentation","97","811574","0.0-97.0","5f6cf5c1a7717114223fcd3d","60242478c74f84097a222710","6024271e6d5980099fc15125","Mozilla/5.0 (Macintosh; Intel Mac OS X 10_15_0) AppleWebKit/537.36 (KHTML, like Gecko) Chrome/88.0.4324.96 Safari/537.36","v1-up-stims","","","","","","","","-20,-10,0,10,20","media/audio/stims/spherical_300cm_s20_c10_cd-half_matched_a-20.wav","spherical","20","10","half","matched","-20","-20","1865"
"echo-presentation","98","814660","0.0-98.0","5f6cf5c1a7717114223fcd3d","60242478c74f84097a222710","6024271e6d5980099fc15125","Mozilla/5.0 (Macintosh; Intel Mac OS X 10_15_0) AppleWebKit/537.36 (KHTML, like Gecko) Chrome/88.0.4324.96 Safari/537.36","v1-up-stims","","","","","","","","-20,-10,0,10,20","media/audio/stims/spherical_300cm_s20_c10_cd-half_matched_a-10.wav","spherical","20","10","half","matched","-10","-10","1553"
"echo-presentation","99","819987","0.0-99.0","5f6cf5c1a7717114223fcd3d","60242478c74f84097a222710","6024271e6d5980099fc15125","Mozilla/5.0 (Macintosh; Intel Mac OS X 10_15_0) AppleWebKit/537.36 (KHTML, like Gecko) Chrome/88.0.4324.96 Safari/537.36","v1-up-stims","","","","","","","","-20,-10,0,10,20","media/audio/stims/spherical_300cm_s20_c10_cd-half_matched_a20.wav","spherical","20","10","half","matched","20","20","4085"
"echo-presentation","100","823238","0.0-100.0","5f6cf5c1a7717114223fcd3d","60242478c74f84097a222710","6024271e6d5980099fc15125","Mozilla/5.0 (Macintosh; Intel Mac OS X 10_15_0) AppleWebKit/537.36 (KHTML, like Gecko) Chrome/88.0.4324.96 Safari/537.36","v1-up-stims","","","","","","","","-20,-10,0,10,20","media/audio/stims/spherical_300cm_s20_c10_cd-half_matched_a10.wav","spherical","20","10","half","matched","10","0","2135"
"echo-presentation","101","826431","0.0-101.0","5f6cf5c1a7717114223fcd3d","60242478c74f84097a222710","6024271e6d5980099fc15125","Mozilla/5.0 (Macintosh; Intel Mac OS X 10_15_0) AppleWebKit/537.36 (KHTML, like Gecko) Chrome/88.0.4324.96 Safari/537.36","v1-up-stims","","","","","","","","-20,-10,0,10,20","media/audio/stims/spherical_300cm_s20_c10_cd-half_matched_a10.wav","spherical","20","10","half","matched","10","10","2361"
"echo-presentation","102","830291","0.0-102.0","5f6cf5c1a7717114223fcd3d","60242478c74f84097a222710","6024271e6d5980099fc15125","Mozilla/5.0 (Macintosh; Intel Mac OS X 10_15_0) AppleWebKit/537.36 (KHTML, like Gecko) Chrome/88.0.4324.96 Safari/537.36","v1-up-stims","","","","","","","","-20,-10,0,10,20","media/audio/stims/spherical_300cm_s20_c10_cd-half_matched_a-20.wav","spherical","20","10","half","matched","-20","-10","2683"
"echo-presentation","103","833634","0.0-103.0","5f6cf5c1a7717114223fcd3d","60242478c74f84097a222710","6024271e6d5980099fc15125","Mozilla/5.0 (Macintosh; Intel Mac OS X 10_15_0) AppleWebKit/537.36 (KHTML, like Gecko) Chrome/88.0.4324.96 Safari/537.36","v1-up-stims","","","","","","","","-20,-10,0,10,20","media/audio/stims/spherical_300cm_s20_c10_cd-half_matched_a-10.wav","spherical","20","10","half","matched","-10","0","1794"
"echo-presentation","104","838424","0.0-104.0","5f6cf5c1a7717114223fcd3d","60242478c74f84097a222710","6024271e6d5980099fc15125","Mozilla/5.0 (Macintosh; Intel Mac OS X 10_15_0) AppleWebKit/537.36 (KHTML, like Gecko) Chrome/88.0.4324.96 Safari/537.36","v1-up-stims","","","","","","","","-20,-10,0,10,20","media/audio/stims/spherical_300cm_s20_c10_cd-half_matched_a0.wav","spherical","20","10","half","matched","0","0","1851"
"echo-presentation","105","841274","0.0-105.0","5f6cf5c1a7717114223fcd3d","60242478c74f84097a222710","6024271e6d5980099fc15125","Mozilla/5.0 (Macintosh; Intel Mac OS X 10_15_0) AppleWebKit/537.36 (KHTML, like Gecko) Chrome/88.0.4324.96 Safari/537.36","v1-up-stims","","","","","","","","-20,-10,0,10,20","media/audio/stims/spherical_300cm_s20_c10_cd-half_matched_a10.wav","spherical","20","10","half","matched","10","10","1463"
"echo-presentation","106","843978","0.0-106.0","5f6cf5c1a7717114223fcd3d","60242478c74f84097a222710","6024271e6d5980099fc15125","Mozilla/5.0 (Macintosh; Intel Mac OS X 10_15_0) AppleWebKit/537.36 (KHTML, like Gecko) Chrome/88.0.4324.96 Safari/537.36","v1-up-stims","","","","","","","","-20,-10,0,10,20","media/audio/stims/spherical_300cm_s20_c10_cd-half_matched_a10.wav","spherical","20","10","half","matched","10","0","1605"
"echo-presentation","107","847615","0.0-107.0","5f6cf5c1a7717114223fcd3d","60242478c74f84097a222710","6024271e6d5980099fc15125","Mozilla/5.0 (Macintosh; Intel Mac OS X 10_15_0) AppleWebKit/537.36 (KHTML, like Gecko) Chrome/88.0.4324.96 Safari/537.36","v1-up-stims","","","","","","","","-20,-10,0,10,20","media/audio/stims/spherical_300cm_s20_c10_cd-half_matched_a0.wav","spherical","20","10","half","matched","0","0","1856"
"echo-presentation","108","852033","0.0-108.0","5f6cf5c1a7717114223fcd3d","60242478c74f84097a222710","6024271e6d5980099fc15125","Mozilla/5.0 (Macintosh; Intel Mac OS X 10_15_0) AppleWebKit/537.36 (KHTML, like Gecko) Chrome/88.0.4324.96 Safari/537.36","v1-up-stims","","","","","","","","-20,-10,0,10,20","media/audio/stims/spherical_300cm_s20_c10_cd-half_matched_a20.wav","spherical","20","10","half","matched","20","10","3252"
"echo-presentation","109","855109","0.0-109.0","5f6cf5c1a7717114223fcd3d","60242478c74f84097a222710","6024271e6d5980099fc15125","Mozilla/5.0 (Macintosh; Intel Mac OS X 10_15_0) AppleWebKit/537.36 (KHTML, like Gecko) Chrome/88.0.4324.96 Safari/537.36","v1-up-stims","","","","","","","","-20,-10,0,10,20","media/audio/stims/spherical_300cm_s20_c10_cd-half_matched_a20.wav","spherical","20","10","half","matched","20","20","1695"
"echo-presentation","110","859257","0.0-110.0","5f6cf5c1a7717114223fcd3d","60242478c74f84097a222710","6024271e6d5980099fc15125","Mozilla/5.0 (Macintosh; Intel Mac OS X 10_15_0) AppleWebKit/537.36 (KHTML, like Gecko) Chrome/88.0.4324.96 Safari/537.36","v1-up-stims","","","","","","","","-20,-10,0,10,20","media/audio/stims/spherical_300cm_s20_c10_cd-half_matched_a-20.wav","spherical","20","10","half","matched","-20","-20","3059"
"echo-presentation","111","862257","0.0-111.0","5f6cf5c1a7717114223fcd3d","60242478c74f84097a222710","6024271e6d5980099fc15125","Mozilla/5.0 (Macintosh; Intel Mac OS X 10_15_0) AppleWebKit/537.36 (KHTML, like Gecko) Chrome/88.0.4324.96 Safari/537.36","v1-up-stims","","","","","","","","-20,-10,0,10,20","media/audio/stims/spherical_300cm_s20_c10_cd-half_matched_a0.wav","spherical","20","10","half","matched","0","0","1891"
"echo-presentation","112","865236","0.0-112.0","5f6cf5c1a7717114223fcd3d","60242478c74f84097a222710","6024271e6d5980099fc15125","Mozilla/5.0 (Macintosh; Intel Mac OS X 10_15_0) AppleWebKit/537.36 (KHTML, like Gecko) Chrome/88.0.4324.96 Safari/537.36","v1-up-stims","","","","","","","","-20,-10,0,10,20","media/audio/stims/spherical_300cm_s20_c10_cd-half_matched_a-20.wav","spherical","20","10","half","matched","-20","-20","1426"
"echo-presentation","113","873286","0.0-113.0","5f6cf5c1a7717114223fcd3d","60242478c74f84097a222710","6024271e6d5980099fc15125","Mozilla/5.0 (Macintosh; Intel Mac OS X 10_15_0) AppleWebKit/537.36 (KHTML, like Gecko) Chrome/88.0.4324.96 Safari/537.36","v1-up-stims","","","","","","","","-20,-10,0,10,20","media/audio/stims/spherical_300cm_s20_c10_cd-half_matched_a-10.wav","spherical","20","10","half","matched","-10","-10","6924"
"echo-presentation","114","876648","0.0-114.0","5f6cf5c1a7717114223fcd3d","60242478c74f84097a222710","6024271e6d5980099fc15125","Mozilla/5.0 (Macintosh; Intel Mac OS X 10_15_0) AppleWebKit/537.36 (KHTML, like Gecko) Chrome/88.0.4324.96 Safari/537.36","v1-up-stims","","","","","","","","-20,-10,0,10,20","media/audio/stims/spherical_300cm_s20_c10_cd-half_matched_a20.wav","spherical","20","10","half","matched","20","10","2254"
"echo-presentation","115","879970","0.0-115.0","5f6cf5c1a7717114223fcd3d","60242478c74f84097a222710","6024271e6d5980099fc15125","Mozilla/5.0 (Macintosh; Intel Mac OS X 10_15_0) AppleWebKit/537.36 (KHTML, like Gecko) Chrome/88.0.4324.96 Safari/537.36","v1-up-stims","","","","","","","","-20,-10,0,10,20","media/audio/stims/spherical_300cm_s20_c10_cd-half_matched_a0.wav","spherical","20","10","half","matched","0","0","1248"
"block-bookend","116","881116","0.0-116.0","5f6cf5c1a7717114223fcd3d","60242478c74f84097a222710","6024271e6d5980099fc15125","Mozilla/5.0 (Macintosh; Intel Mac OS X 10_15_0) AppleWebKit/537.36 (KHTML, like Gecko) Chrome/88.0.4324.96 Safari/537.36","v1-up-stims","","","","","","","","","","","","","","","","",""
"block-bookend","117","891418","0.0-117.0","5f6cf5c1a7717114223fcd3d","60242478c74f84097a222710","6024271e6d5980099fc15125","Mozilla/5.0 (Macintosh; Intel Mac OS X 10_15_0) AppleWebKit/537.36 (KHTML, like Gecko) Chrome/88.0.4324.96 Safari/537.36","v1-up-stims","","","","","","","","","","","","","","","","",""
"echo-presentation","118","895459","0.0-118.0","5f6cf5c1a7717114223fcd3d","60242478c74f84097a222710","6024271e6d5980099fc15125","Mozilla/5.0 (Macintosh; Intel Mac OS X 10_15_0) AppleWebKit/537.36 (KHTML, like Gecko) Chrome/88.0.4324.96 Safari/537.36","v1-up-stims","","","","","","","","-20,-10,0,10,20","media/audio/stims/spherical_300cm_s20_c10_cd-half_matched_a10.wav","spherical","20","10","half","matched","10","0","1794"
"echo-presentation","119","898873","0.0-119.0","5f6cf5c1a7717114223fcd3d","60242478c74f84097a222710","6024271e6d5980099fc15125","Mozilla/5.0 (Macintosh; Intel Mac OS X 10_15_0) AppleWebKit/537.36 (KHTML, like Gecko) Chrome/88.0.4324.96 Safari/537.36","v1-up-stims","","","","","","","","-20,-10,0,10,20","media/audio/stims/spherical_300cm_s20_c10_cd-half_matched_a20.wav","spherical","20","10","half","matched","20","10","1514"
"echo-presentation","120","901959","0.0-120.0","5f6cf5c1a7717114223fcd3d","60242478c74f84097a222710","6024271e6d5980099fc15125","Mozilla/5.0 (Macintosh; Intel Mac OS X 10_15_0) AppleWebKit/537.36 (KHTML, like Gecko) Chrome/88.0.4324.96 Safari/537.36","v1-up-stims","","","","","","","","-20,-10,0,10,20","media/audio/stims/spherical_300cm_s20_c10_cd-half_matched_a-10.wav","spherical","20","10","half","matched","-10","0","1910"
"echo-presentation","121","904658","0.0-121.0","5f6cf5c1a7717114223fcd3d","60242478c74f84097a222710","6024271e6d5980099fc15125","Mozilla/5.0 (Macintosh; Intel Mac OS X 10_15_0) AppleWebKit/537.36 (KHTML, like Gecko) Chrome/88.0.4324.96 Safari/537.36","v1-up-stims","","","","","","","","-20,-10,0,10,20","media/audio/stims/spherical_300cm_s20_c10_cd-half_matched_a0.wav","spherical","20","10","half","matched","0","0","1555"
"echo-presentation","122","907558","0.0-122.0","5f6cf5c1a7717114223fcd3d","60242478c74f84097a222710","6024271e6d5980099fc15125","Mozilla/5.0 (Macintosh; Intel Mac OS X 10_15_0) AppleWebKit/537.36 (KHTML, like Gecko) Chrome/88.0.4324.96 Safari/537.36","v1-up-stims","","","","","","","","-20,-10,0,10,20","media/audio/stims/spherical_300cm_s20_c10_cd-half_matched_a-10.wav","spherical","20","10","half","matched","-10","0","1825"
"echo-presentation","123","909981","0.0-123.0","5f6cf5c1a7717114223fcd3d","60242478c74f84097a222710","6024271e6d5980099fc15125","Mozilla/5.0 (Macintosh; Intel Mac OS X 10_15_0) AppleWebKit/537.36 (KHTML, like Gecko) Chrome/88.0.4324.96 Safari/537.36","v1-up-stims","","","","","","","","-20,-10,0,10,20","media/audio/stims/spherical_300cm_s20_c10_cd-half_matched_a-20.wav","spherical","20","10","half","matched","-20","-10","1461"
"echo-presentation","124","913506","0.0-124.0","5f6cf5c1a7717114223fcd3d","60242478c74f84097a222710","6024271e6d5980099fc15125","Mozilla/5.0 (Macintosh; Intel Mac OS X 10_15_0) AppleWebKit/537.36 (KHTML, like Gecko) Chrome/88.0.4324.96 Safari/537.36","v1-up-stims","","","","","","","","-20,-10,0,10,20","media/audio/stims/spherical_300cm_s20_c10_cd-half_matched_a10.wav","spherical","20","10","half","matched","10","10","2438"
"echo-presentation","125","916375","0.0-125.0","5f6cf5c1a7717114223fcd3d","60242478c74f84097a222710","6024271e6d5980099fc15125","Mozilla/5.0 (Macintosh; Intel Mac OS X 10_15_0) AppleWebKit/537.36 (KHTML, like Gecko) Chrome/88.0.4324.96 Safari/537.36","v1-up-stims","","","","","","","","-20,-10,0,10,20","media/audio/stims/spherical_300cm_s20_c10_cd-half_matched_a20.wav","spherical","20","10","half","matched","20","10","2111"
"echo-presentation","126","925979","0.0-126.0","5f6cf5c1a7717114223fcd3d","60242478c74f84097a222710","6024271e6d5980099fc15125","Mozilla/5.0 (Macintosh; Intel Mac OS X 10_15_0) AppleWebKit/537.36 (KHTML, like Gecko) Chrome/88.0.4324.96 Safari/537.36","v1-up-stims","","","","","","","","-20,-10,0,10,20","media/audio/stims/spherical_300cm_s20_c10_cd-half_matched_a0.wav","spherical","20","10","half","matched","0","10","8242"
"echo-presentation","127","928575","0.0-127.0","5f6cf5c1a7717114223fcd3d","60242478c74f84097a222710","6024271e6d5980099fc15125","Mozilla/5.0 (Macintosh; Intel Mac OS X 10_15_0) AppleWebKit/537.36 (KHTML, like Gecko) Chrome/88.0.4324.96 Safari/537.36","v1-up-stims","","","","","","","","-20,-10,0,10,20","media/audio/stims/spherical_300cm_s20_c10_cd-half_matched_a10.wav","spherical","20","10","half","matched","10","10","1568"
"echo-presentation","128","931505","0.0-128.0","5f6cf5c1a7717114223fcd3d","60242478c74f84097a222710","6024271e6d5980099fc15125","Mozilla/5.0 (Macintosh; Intel Mac OS X 10_15_0) AppleWebKit/537.36 (KHTML, like Gecko) Chrome/88.0.4324.96 Safari/537.36","v1-up-stims","","","","","","","","-20,-10,0,10,20","media/audio/stims/spherical_300cm_s20_c10_cd-half_matched_a-10.wav","spherical","20","10","half","matched","-10","0","1775"
"echo-presentation","129","935694","0.0-129.0","5f6cf5c1a7717114223fcd3d","60242478c74f84097a222710","6024271e6d5980099fc15125","Mozilla/5.0 (Macintosh; Intel Mac OS X 10_15_0) AppleWebKit/537.36 (KHTML, like Gecko) Chrome/88.0.4324.96 Safari/537.36","v1-up-stims","","","","","","","","-20,-10,0,10,20","media/audio/stims/spherical_300cm_s20_c10_cd-half_matched_a20.wav","spherical","20","10","half","matched","20","10","2780"
"echo-presentation","130","938509","0.0-130.0","5f6cf5c1a7717114223fcd3d","60242478c74f84097a222710","6024271e6d5980099fc15125","Mozilla/5.0 (Macintosh; Intel Mac OS X 10_15_0) AppleWebKit/537.36 (KHTML, like Gecko) Chrome/88.0.4324.96 Safari/537.36","v1-up-stims","","","","","","","","-20,-10,0,10,20","media/audio/stims/spherical_300cm_s20_c10_cd-half_matched_a-10.wav","spherical","20","10","half","matched","-10","-10","1695"
"echo-presentation","131","941588","0.0-131.0","5f6cf5c1a7717114223fcd3d","60242478c74f84097a222710","6024271e6d5980099fc15125","Mozilla/5.0 (Macintosh; Intel Mac OS X 10_15_0) AppleWebKit/537.36 (KHTML, like Gecko) Chrome/88.0.4324.96 Safari/537.36","v1-up-stims","","","","","","","","-20,-10,0,10,20","media/audio/stims/spherical_300cm_s20_c10_cd-half_matched_a20.wav","spherical","20","10","half","matched","20","-10","2442"
"echo-presentation","132","944107","0.0-132.0","5f6cf5c1a7717114223fcd3d","60242478c74f84097a222710","6024271e6d5980099fc15125","Mozilla/5.0 (Macintosh; Intel Mac OS X 10_15_0) AppleWebKit/537.36 (KHTML, like Gecko) Chrome/88.0.4324.96 Safari/537.36","v1-up-stims","","","","","","","","-20,-10,0,10,20","media/audio/stims/spherical_300cm_s20_c10_cd-half_matched_a-20.wav","spherical","20","10","half","matched","-20","-20","1522"
"echo-presentation","133","947547","0.0-133.0","5f6cf5c1a7717114223fcd3d","60242478c74f84097a222710","6024271e6d5980099fc15125","Mozilla/5.0 (Macintosh; Intel Mac OS X 10_15_0) AppleWebKit/537.36 (KHTML, like Gecko) Chrome/88.0.4324.96 Safari/537.36","v1-up-stims","","","","","","","","-20,-10,0,10,20","media/audio/stims/spherical_300cm_s20_c10_cd-half_matched_a-20.wav","spherical","20","10","half","matched","-20","-20","2108"
"echo-presentation","134","950665","0.0-134.0","5f6cf5c1a7717114223fcd3d","60242478c74f84097a222710","6024271e6d5980099fc15125","Mozilla/5.0 (Macintosh; Intel Mac OS X 10_15_0) AppleWebKit/537.36 (KHTML, like Gecko) Chrome/88.0.4324.96 Safari/537.36","v1-up-stims","","","","","","","","-20,-10,0,10,20","media/audio/stims/spherical_300cm_s20_c10_cd-half_matched_a10.wav","spherical","20","10","half","matched","10","0","1489"
"echo-presentation","135","956295","0.0-135.0","5f6cf5c1a7717114223fcd3d","60242478c74f84097a222710","6024271e6d5980099fc15125","Mozilla/5.0 (Macintosh; Intel Mac OS X 10_15_0) AppleWebKit/537.36 (KHTML, like Gecko) Chrome/88.0.4324.96 Safari/537.36","v1-up-stims","","","","","","","","-20,-10,0,10,20","media/audio/stims/spherical_300cm_s20_c10_cd-half_matched_a0.wav","spherical","20","10","half","matched","0","0","4106"
"echo-presentation","136","958634","0.0-136.0","5f6cf5c1a7717114223fcd3d","60242478c74f84097a222710","6024271e6d5980099fc15125","Mozilla/5.0 (Macintosh; Intel Mac OS X 10_15_0) AppleWebKit/537.36 (KHTML, like Gecko) Chrome/88.0.4324.96 Safari/537.36","v1-up-stims","","","","","","","","-20,-10,0,10,20","media/audio/stims/spherical_300cm_s20_c10_cd-half_matched_a-20.wav","spherical","20","10","half","matched","-20","-10","1239"
"echo-presentation","137","961145","0.0-137.0","5f6cf5c1a7717114223fcd3d","60242478c74f84097a222710","6024271e6d5980099fc15125","Mozilla/5.0 (Macintosh; Intel Mac OS X 10_15_0) AppleWebKit/537.36 (KHTML, like Gecko) Chrome/88.0.4324.96 Safari/537.36","v1-up-stims","","","","","","","","-20,-10,0,10,20","media/audio/stims/spherical_300cm_s20_c10_cd-half_matched_a0.wav","spherical","20","10","half","matched","0","0","1629"
"block-bookend","138","963679","0.0-138.0","5f6cf5c1a7717114223fcd3d","60242478c74f84097a222710","6024271e6d5980099fc15125","Mozilla/5.0 (Macintosh; Intel Mac OS X 10_15_0) AppleWebKit/537.36 (KHTML, like Gecko) Chrome/88.0.4324.96 Safari/537.36","v1-up-stims","","","","","","","","","","","","","","","","",""
