"trial_type","trial_index","time_elapsed","internal_node_id","prolificPid","studyId","sessionId","userAgent","version","rt","stimulus","key_press","chosenKeyset","failureCount","testIndex","globalVolume","choices","filename","modelName","slowdown","compensation","compensationDescriptor","receiverOrientationType","azimuth","responseAzimuth","responseDelay"
"pavlovia","0","6","0.0-0.0","5fc1a39a9c39d72827b3604c","5fef55e628823a0076ec12ee","601f447eeadd2f497deae0d6","Mozilla/5.0 (Windows NT 10.0; Win64; x64) AppleWebKit/537.36 (KHTML, like Gecko) Chrome/88.0.4324.146 Safari/537.36","v1","","","","","","","","","","","","","","","","",""
"html-keyboard-response","1","4446","0.0-1.0","5fc1a39a9c39d72827b3604c","5fef55e628823a0076ec12ee","601f447eeadd2f497deae0d6","Mozilla/5.0 (Windows NT 10.0; Win64; x64) AppleWebKit/537.36 (KHTML, like Gecko) Chrome/88.0.4324.146 Safari/537.36","v1","4437.810000003083","<div><h1>Welcome!</h1><p>Press any key to continue.</p></div>","32","","","","","","","","","","","","","",""
"consent-form","2","28506","0.0-2.0","5fc1a39a9c39d72827b3604c","5fef55e628823a0076ec12ee","601f447eeadd2f497deae0d6","Mozilla/5.0 (Windows NT 10.0; Win64; x64) AppleWebKit/537.36 (KHTML, like Gecko) Chrome/88.0.4324.146 Safari/537.36","v1","","","","","","","","","","","","","","","","",""
"keyset-select","3","73780","0.0-3.0","5fc1a39a9c39d72827b3604c","5fef55e628823a0076ec12ee","601f447eeadd2f497deae0d6","Mozilla/5.0 (Windows NT 10.0; Win64; x64) AppleWebKit/537.36 (KHTML, like Gecko) Chrome/88.0.4324.146 Safari/537.36","v1","","","","left-hand","","","","","","","","","","","","",""
"headphone-check","4","140484","0.0-4.0","5fc1a39a9c39d72827b3604c","5fef55e628823a0076ec12ee","601f447eeadd2f497deae0d6","Mozilla/5.0 (Windows NT 10.0; Win64; x64) AppleWebKit/537.36 (KHTML, like Gecko) Chrome/88.0.4324.146 Safari/537.36","v1","","","","","1","6","0.7","","","","","","","","","",""
"headphone-backwards-check","5","149237","0.0-5.0","5fc1a39a9c39d72827b3604c","5fef55e628823a0076ec12ee","601f447eeadd2f497deae0d6","Mozilla/5.0 (Windows NT 10.0; Win64; x64) AppleWebKit/537.36 (KHTML, like Gecko) Chrome/88.0.4324.146 Safari/537.36","v1","","","","","0","","","","","","","","","","","",""
"training","6","225421","0.0-6.0","5fc1a39a9c39d72827b3604c","5fef55e628823a0076ec12ee","601f447eeadd2f497deae0d6","Mozilla/5.0 (Windows NT 10.0; Win64; x64) AppleWebKit/537.36 (KHTML, like Gecko) Chrome/88.0.4324.146 Safari/537.36","v1","","","","","","","","","","","","","","","","",""
"block-bookend","7","237936","0.0-7.0","5fc1a39a9c39d72827b3604c","5fef55e628823a0076ec12ee","601f447eeadd2f497deae0d6","Mozilla/5.0 (Windows NT 10.0; Win64; x64) AppleWebKit/537.36 (KHTML, like Gecko) Chrome/88.0.4324.146 Safari/537.36","v1","","","","","","","","","","","","","","","","",""
"echo-presentation","8","244436","0.0-8.0","5fc1a39a9c39d72827b3604c","5fef55e628823a0076ec12ee","601f447eeadd2f497deae0d6","Mozilla/5.0 (Windows NT 10.0; Win64; x64) AppleWebKit/537.36 (KHTML, like Gecko) Chrome/88.0.4324.146 Safari/537.36","v1","","","","","","","","-20,-10,0,10,20","media/audio/stims/spherical_300cm_s20_c20_cd-full_matched_a10.wav","spherical","20","20","full","matched","10","10","3272"
"echo-presentation","9","251577","0.0-9.0","5fc1a39a9c39d72827b3604c","5fef55e628823a0076ec12ee","601f447eeadd2f497deae0d6","Mozilla/5.0 (Windows NT 10.0; Win64; x64) AppleWebKit/537.36 (KHTML, like Gecko) Chrome/88.0.4324.146 Safari/537.36","v1","","","","","","","","-20,-10,0,10,20","media/audio/stims/spherical_300cm_s20_c20_cd-full_matched_a10.wav","spherical","20","20","full","matched","10","10","4674"
"echo-presentation","10","257547","0.0-10.0","5fc1a39a9c39d72827b3604c","5fef55e628823a0076ec12ee","601f447eeadd2f497deae0d6","Mozilla/5.0 (Windows NT 10.0; Win64; x64) AppleWebKit/537.36 (KHTML, like Gecko) Chrome/88.0.4324.146 Safari/537.36","v1","","","","","","","","-20,-10,0,10,20","media/audio/stims/spherical_300cm_s20_c20_cd-full_matched_a0.wav","spherical","20","20","full","matched","0","10","3722"
"echo-presentation","11","261492","0.0-11.0","5fc1a39a9c39d72827b3604c","5fef55e628823a0076ec12ee","601f447eeadd2f497deae0d6","Mozilla/5.0 (Windows NT 10.0; Win64; x64) AppleWebKit/537.36 (KHTML, like Gecko) Chrome/88.0.4324.146 Safari/537.36","v1","","","","","","","","-20,-10,0,10,20","media/audio/stims/spherical_300cm_s20_c20_cd-full_matched_a-20.wav","spherical","20","20","full","matched","-20","-20","1349"
"echo-presentation","12","264357","0.0-12.0","5fc1a39a9c39d72827b3604c","5fef55e628823a0076ec12ee","601f447eeadd2f497deae0d6","Mozilla/5.0 (Windows NT 10.0; Win64; x64) AppleWebKit/537.36 (KHTML, like Gecko) Chrome/88.0.4324.146 Safari/537.36","v1","","","","","","","","-20,-10,0,10,20","media/audio/stims/spherical_300cm_s20_c20_cd-full_matched_a-10.wav","spherical","20","20","full","matched","-10","-10","1443"
"echo-presentation","13","269671","0.0-13.0","5fc1a39a9c39d72827b3604c","5fef55e628823a0076ec12ee","601f447eeadd2f497deae0d6","Mozilla/5.0 (Windows NT 10.0; Win64; x64) AppleWebKit/537.36 (KHTML, like Gecko) Chrome/88.0.4324.146 Safari/537.36","v1","","","","","","","","-20,-10,0,10,20","media/audio/stims/spherical_300cm_s20_c20_cd-full_matched_a10.wav","spherical","20","20","full","matched","10","10","3887"
"echo-presentation","14","273330","0.0-14.0","5fc1a39a9c39d72827b3604c","5fef55e628823a0076ec12ee","601f447eeadd2f497deae0d6","Mozilla/5.0 (Windows NT 10.0; Win64; x64) AppleWebKit/537.36 (KHTML, like Gecko) Chrome/88.0.4324.146 Safari/537.36","v1","","","","","","","","-20,-10,0,10,20","media/audio/stims/spherical_300cm_s20_c20_cd-full_matched_a20.wav","spherical","20","20","full","matched","20","10","1618"
"echo-presentation","15","276870","0.0-15.0","5fc1a39a9c39d72827b3604c","5fef55e628823a0076ec12ee","601f447eeadd2f497deae0d6","Mozilla/5.0 (Windows NT 10.0; Win64; x64) AppleWebKit/537.36 (KHTML, like Gecko) Chrome/88.0.4324.146 Safari/537.36","v1","","","","","","","","-20,-10,0,10,20","media/audio/stims/spherical_300cm_s20_c20_cd-full_matched_a0.wav","spherical","20","20","full","matched","0","-10","1679"
"echo-presentation","16","279290","0.0-16.0","5fc1a39a9c39d72827b3604c","5fef55e628823a0076ec12ee","601f447eeadd2f497deae0d6","Mozilla/5.0 (Windows NT 10.0; Win64; x64) AppleWebKit/537.36 (KHTML, like Gecko) Chrome/88.0.4324.146 Safari/537.36","v1","","","","","","","","-20,-10,0,10,20","media/audio/stims/spherical_300cm_s20_c20_cd-full_matched_a20.wav","spherical","20","20","full","matched","20","10","1206"
"echo-presentation","17","282030","0.0-17.0","5fc1a39a9c39d72827b3604c","5fef55e628823a0076ec12ee","601f447eeadd2f497deae0d6","Mozilla/5.0 (Windows NT 10.0; Win64; x64) AppleWebKit/537.36 (KHTML, like Gecko) Chrome/88.0.4324.146 Safari/537.36","v1","","","","","","","","-20,-10,0,10,20","media/audio/stims/spherical_300cm_s20_c20_cd-full_matched_a-20.wav","spherical","20","20","full","matched","-20","-20","1172"
"echo-presentation","18","286050","0.0-18.0","5fc1a39a9c39d72827b3604c","5fef55e628823a0076ec12ee","601f447eeadd2f497deae0d6","Mozilla/5.0 (Windows NT 10.0; Win64; x64) AppleWebKit/537.36 (KHTML, like Gecko) Chrome/88.0.4324.146 Safari/537.36","v1","","","","","","","","-20,-10,0,10,20","media/audio/stims/spherical_300cm_s20_c20_cd-full_matched_a0.wav","spherical","20","20","full","matched","0","-10","2869"
"echo-presentation","19","288610","0.0-19.0","5fc1a39a9c39d72827b3604c","5fef55e628823a0076ec12ee","601f447eeadd2f497deae0d6","Mozilla/5.0 (Windows NT 10.0; Win64; x64) AppleWebKit/537.36 (KHTML, like Gecko) Chrome/88.0.4324.146 Safari/537.36","v1","","","","","","","","-20,-10,0,10,20","media/audio/stims/spherical_300cm_s20_c20_cd-full_matched_a-20.wav","spherical","20","20","full","matched","-20","-20","1227"
"echo-presentation","20","291611","0.0-20.0","5fc1a39a9c39d72827b3604c","5fef55e628823a0076ec12ee","601f447eeadd2f497deae0d6","Mozilla/5.0 (Windows NT 10.0; Win64; x64) AppleWebKit/537.36 (KHTML, like Gecko) Chrome/88.0.4324.146 Safari/537.36","v1","","","","","","","","-20,-10,0,10,20","media/audio/stims/spherical_300cm_s20_c20_cd-full_matched_a20.wav","spherical","20","20","full","matched","20","10","1792"
"echo-presentation","21","294380","0.0-21.0","5fc1a39a9c39d72827b3604c","5fef55e628823a0076ec12ee","601f447eeadd2f497deae0d6","Mozilla/5.0 (Windows NT 10.0; Win64; x64) AppleWebKit/537.36 (KHTML, like Gecko) Chrome/88.0.4324.146 Safari/537.36","v1","","","","","","","","-20,-10,0,10,20","media/audio/stims/spherical_300cm_s20_c20_cd-full_matched_a-20.wav","spherical","20","20","full","matched","-20","-20","1529"
"echo-presentation","22","299840","0.0-22.0","5fc1a39a9c39d72827b3604c","5fef55e628823a0076ec12ee","601f447eeadd2f497deae0d6","Mozilla/5.0 (Windows NT 10.0; Win64; x64) AppleWebKit/537.36 (KHTML, like Gecko) Chrome/88.0.4324.146 Safari/537.36","v1","","","","","","","","-20,-10,0,10,20","media/audio/stims/spherical_300cm_s20_c20_cd-full_matched_a0.wav","spherical","20","20","full","matched","0","0","4255"
"echo-presentation","23","303110","0.0-23.0","5fc1a39a9c39d72827b3604c","5fef55e628823a0076ec12ee","601f447eeadd2f497deae0d6","Mozilla/5.0 (Windows NT 10.0; Win64; x64) AppleWebKit/537.36 (KHTML, like Gecko) Chrome/88.0.4324.146 Safari/537.36","v1","","","","","","","","-20,-10,0,10,20","media/audio/stims/spherical_300cm_s20_c20_cd-full_matched_a20.wav","spherical","20","20","full","matched","20","10","2022"
"echo-presentation","24","306950","0.0-24.0","5fc1a39a9c39d72827b3604c","5fef55e628823a0076ec12ee","601f447eeadd2f497deae0d6","Mozilla/5.0 (Windows NT 10.0; Win64; x64) AppleWebKit/537.36 (KHTML, like Gecko) Chrome/88.0.4324.146 Safari/537.36","v1","","","","","","","","-20,-10,0,10,20","media/audio/stims/spherical_300cm_s20_c20_cd-full_matched_a-10.wav","spherical","20","20","full","matched","-10","0","2768"
"echo-presentation","25","310420","0.0-25.0","5fc1a39a9c39d72827b3604c","5fef55e628823a0076ec12ee","601f447eeadd2f497deae0d6","Mozilla/5.0 (Windows NT 10.0; Win64; x64) AppleWebKit/537.36 (KHTML, like Gecko) Chrome/88.0.4324.146 Safari/537.36","v1","","","","","","","","-20,-10,0,10,20","media/audio/stims/spherical_300cm_s20_c20_cd-full_matched_a10.wav","spherical","20","20","full","matched","10","10","2091"
"echo-presentation","26","314899","0.0-26.0","5fc1a39a9c39d72827b3604c","5fef55e628823a0076ec12ee","601f447eeadd2f497deae0d6","Mozilla/5.0 (Windows NT 10.0; Win64; x64) AppleWebKit/537.36 (KHTML, like Gecko) Chrome/88.0.4324.146 Safari/537.36","v1","","","","","","","","-20,-10,0,10,20","media/audio/stims/spherical_300cm_s20_c20_cd-full_matched_a-10.wav","spherical","20","20","full","matched","-10","-10","3026"
"echo-presentation","27","317880","0.0-27.0","5fc1a39a9c39d72827b3604c","5fef55e628823a0076ec12ee","601f447eeadd2f497deae0d6","Mozilla/5.0 (Windows NT 10.0; Win64; x64) AppleWebKit/537.36 (KHTML, like Gecko) Chrome/88.0.4324.146 Safari/537.36","v1","","","","","","","","-20,-10,0,10,20","media/audio/stims/spherical_300cm_s20_c20_cd-full_matched_a-10.wav","spherical","20","20","full","matched","-10","-20","1246"
"block-bookend","28","320582","0.0-28.0","5fc1a39a9c39d72827b3604c","5fef55e628823a0076ec12ee","601f447eeadd2f497deae0d6","Mozilla/5.0 (Windows NT 10.0; Win64; x64) AppleWebKit/537.36 (KHTML, like Gecko) Chrome/88.0.4324.146 Safari/537.36","v1","","","","","","","","","","","","","","","","",""
"block-bookend","29","331292","0.0-29.0","5fc1a39a9c39d72827b3604c","5fef55e628823a0076ec12ee","601f447eeadd2f497deae0d6","Mozilla/5.0 (Windows NT 10.0; Win64; x64) AppleWebKit/537.36 (KHTML, like Gecko) Chrome/88.0.4324.146 Safari/537.36","v1","","","","","","","","","","","","","","","","",""
"echo-presentation","30","336312","0.0-30.0","5fc1a39a9c39d72827b3604c","5fef55e628823a0076ec12ee","601f447eeadd2f497deae0d6","Mozilla/5.0 (Windows NT 10.0; Win64; x64) AppleWebKit/537.36 (KHTML, like Gecko) Chrome/88.0.4324.146 Safari/537.36","v1","","","","","","","","-20,-10,0,10,20","media/audio/stims/spherical_300cm_s20_c20_cd-full_matched_a-10.wav","spherical","20","20","full","matched","-10","-20","1459"
"echo-presentation","31","346968","0.0-31.0","5fc1a39a9c39d72827b3604c","5fef55e628823a0076ec12ee","601f447eeadd2f497deae0d6","Mozilla/5.0 (Windows NT 10.0; Win64; x64) AppleWebKit/537.36 (KHTML, like Gecko) Chrome/88.0.4324.146 Safari/537.36","v1","","","","","","","","-20,-10,0,10,20","media/audio/stims/spherical_300cm_s20_c20_cd-full_matched_a10.wav","spherical","20","20","full","matched","10","0","996"
"echo-presentation","32","351257","0.0-32.0","5fc1a39a9c39d72827b3604c","5fef55e628823a0076ec12ee","601f447eeadd2f497deae0d6","Mozilla/5.0 (Windows NT 10.0; Win64; x64) AppleWebKit/537.36 (KHTML, like Gecko) Chrome/88.0.4324.146 Safari/537.36","v1","","","","","","","","-20,-10,0,10,20","media/audio/stims/spherical_300cm_s20_c20_cd-full_matched_a-20.wav","spherical","20","20","full","matched","-20","-20","919"
"echo-presentation","33","354496","0.0-33.0","5fc1a39a9c39d72827b3604c","5fef55e628823a0076ec12ee","601f447eeadd2f497deae0d6","Mozilla/5.0 (Windows NT 10.0; Win64; x64) AppleWebKit/537.36 (KHTML, like Gecko) Chrome/88.0.4324.146 Safari/537.36","v1","","","","","","","","-20,-10,0,10,20","media/audio/stims/spherical_300cm_s20_c20_cd-full_matched_a-10.wav","spherical","20","20","full","matched","-10","-20","1055"
"echo-presentation","34","357197","0.0-34.0","5fc1a39a9c39d72827b3604c","5fef55e628823a0076ec12ee","601f447eeadd2f497deae0d6","Mozilla/5.0 (Windows NT 10.0; Win64; x64) AppleWebKit/537.36 (KHTML, like Gecko) Chrome/88.0.4324.146 Safari/537.36","v1","","","","","","","","-20,-10,0,10,20","media/audio/stims/spherical_300cm_s20_c20_cd-full_matched_a20.wav","spherical","20","20","full","matched","20","10","1571"
"echo-presentation","35","359847","0.0-35.0","5fc1a39a9c39d72827b3604c","5fef55e628823a0076ec12ee","601f447eeadd2f497deae0d6","Mozilla/5.0 (Windows NT 10.0; Win64; x64) AppleWebKit/537.36 (KHTML, like Gecko) Chrome/88.0.4324.146 Safari/537.36","v1","","","","","","","","-20,-10,0,10,20","media/audio/stims/spherical_300cm_s20_c20_cd-full_matched_a10.wav","spherical","20","20","full","matched","10","10","1500"
"echo-presentation","36","362565","0.0-36.0","5fc1a39a9c39d72827b3604c","5fef55e628823a0076ec12ee","601f447eeadd2f497deae0d6","Mozilla/5.0 (Windows NT 10.0; Win64; x64) AppleWebKit/537.36 (KHTML, like Gecko) Chrome/88.0.4324.146 Safari/537.36","v1","","","","","","","","-20,-10,0,10,20","media/audio/stims/spherical_300cm_s20_c20_cd-full_matched_a0.wav","spherical","20","20","full","matched","0","10","1277"
"echo-presentation","37","365246","0.0-37.0","5fc1a39a9c39d72827b3604c","5fef55e628823a0076ec12ee","601f447eeadd2f497deae0d6","Mozilla/5.0 (Windows NT 10.0; Win64; x64) AppleWebKit/537.36 (KHTML, like Gecko) Chrome/88.0.4324.146 Safari/537.36","v1","","","","","","","","-20,-10,0,10,20","media/audio/stims/spherical_300cm_s20_c20_cd-full_matched_a20.wav","spherical","20","20","full","matched","20","10","1000"
"echo-presentation","38","367457","0.0-38.0","5fc1a39a9c39d72827b3604c","5fef55e628823a0076ec12ee","601f447eeadd2f497deae0d6","Mozilla/5.0 (Windows NT 10.0; Win64; x64) AppleWebKit/537.36 (KHTML, like Gecko) Chrome/88.0.4324.146 Safari/537.36","v1","","","","","","","","-20,-10,0,10,20","media/audio/stims/spherical_300cm_s20_c20_cd-full_matched_a-20.wav","spherical","20","20","full","matched","-20","-20","987"
"echo-presentation","39","370897","0.0-39.0","5fc1a39a9c39d72827b3604c","5fef55e628823a0076ec12ee","601f447eeadd2f497deae0d6","Mozilla/5.0 (Windows NT 10.0; Win64; x64) AppleWebKit/537.36 (KHTML, like Gecko) Chrome/88.0.4324.146 Safari/537.36","v1","","","","","","","","-20,-10,0,10,20","media/audio/stims/spherical_300cm_s20_c20_cd-full_matched_a0.wav","spherical","20","20","full","matched","0","0","2351"
"echo-presentation","40","373057","0.0-40.0","5fc1a39a9c39d72827b3604c","5fef55e628823a0076ec12ee","601f447eeadd2f497deae0d6","Mozilla/5.0 (Windows NT 10.0; Win64; x64) AppleWebKit/537.36 (KHTML, like Gecko) Chrome/88.0.4324.146 Safari/537.36","v1","","","","","","","","-20,-10,0,10,20","media/audio/stims/spherical_300cm_s20_c20_cd-full_matched_a10.wav","spherical","20","20","full","matched","10","10","982"
"echo-presentation","41","375517","0.0-41.0","5fc1a39a9c39d72827b3604c","5fef55e628823a0076ec12ee","601f447eeadd2f497deae0d6","Mozilla/5.0 (Windows NT 10.0; Win64; x64) AppleWebKit/537.36 (KHTML, like Gecko) Chrome/88.0.4324.146 Safari/537.36","v1","","","","","","","","-20,-10,0,10,20","media/audio/stims/spherical_300cm_s20_c20_cd-full_matched_a20.wav","spherical","20","20","full","matched","20","10","1282"
"echo-presentation","42","377718","0.0-42.0","5fc1a39a9c39d72827b3604c","5fef55e628823a0076ec12ee","601f447eeadd2f497deae0d6","Mozilla/5.0 (Windows NT 10.0; Win64; x64) AppleWebKit/537.36 (KHTML, like Gecko) Chrome/88.0.4324.146 Safari/537.36","v1","","","","","","","","-20,-10,0,10,20","media/audio/stims/spherical_300cm_s20_c20_cd-full_matched_a-20.wav","spherical","20","20","full","matched","-20","-20","1056"
"echo-presentation","43","379956","0.0-43.0","5fc1a39a9c39d72827b3604c","5fef55e628823a0076ec12ee","601f447eeadd2f497deae0d6","Mozilla/5.0 (Windows NT 10.0; Win64; x64) AppleWebKit/537.36 (KHTML, like Gecko) Chrome/88.0.4324.146 Safari/537.36","v1","","","","","","","","-20,-10,0,10,20","media/audio/stims/spherical_300cm_s20_c20_cd-full_matched_a20.wav","spherical","20","20","full","matched","20","10","1008"
"echo-presentation","44","383433","0.0-44.0","5fc1a39a9c39d72827b3604c","5fef55e628823a0076ec12ee","601f447eeadd2f497deae0d6","Mozilla/5.0 (Windows NT 10.0; Win64; x64) AppleWebKit/537.36 (KHTML, like Gecko) Chrome/88.0.4324.146 Safari/537.36","v1","","","","","","","","-20,-10,0,10,20","media/audio/stims/spherical_300cm_s20_c20_cd-full_matched_a-20.wav","spherical","20","20","full","matched","-20","-10","2376"
"echo-presentation","45","385717","0.0-45.0","5fc1a39a9c39d72827b3604c","5fef55e628823a0076ec12ee","601f447eeadd2f497deae0d6","Mozilla/5.0 (Windows NT 10.0; Win64; x64) AppleWebKit/537.36 (KHTML, like Gecko) Chrome/88.0.4324.146 Safari/537.36","v1","","","","","","","","-20,-10,0,10,20","media/audio/stims/spherical_300cm_s20_c20_cd-full_matched_a10.wav","spherical","20","20","full","matched","10","10","815"
"echo-presentation","46","387936","0.0-46.0","5fc1a39a9c39d72827b3604c","5fef55e628823a0076ec12ee","601f447eeadd2f497deae0d6","Mozilla/5.0 (Windows NT 10.0; Win64; x64) AppleWebKit/537.36 (KHTML, like Gecko) Chrome/88.0.4324.146 Safari/537.36","v1","","","","","","","","-20,-10,0,10,20","media/audio/stims/spherical_300cm_s20_c20_cd-full_matched_a0.wav","spherical","20","20","full","matched","0","10","1105"
"echo-presentation","47","390069","0.0-47.0","5fc1a39a9c39d72827b3604c","5fef55e628823a0076ec12ee","601f447eeadd2f497deae0d6","Mozilla/5.0 (Windows NT 10.0; Win64; x64) AppleWebKit/537.36 (KHTML, like Gecko) Chrome/88.0.4324.146 Safari/537.36","v1","","","","","","","","-20,-10,0,10,20","media/audio/stims/spherical_300cm_s20_c20_cd-full_matched_a-10.wav","spherical","20","20","full","matched","-10","-20","1023"
"echo-presentation","48","393027","0.0-48.0","5fc1a39a9c39d72827b3604c","5fef55e628823a0076ec12ee","601f447eeadd2f497deae0d6","Mozilla/5.0 (Windows NT 10.0; Win64; x64) AppleWebKit/537.36 (KHTML, like Gecko) Chrome/88.0.4324.146 Safari/537.36","v1","","","","","","","","-20,-10,0,10,20","media/audio/stims/spherical_300cm_s20_c20_cd-full_matched_a0.wav","spherical","20","20","full","matched","0","10","1806"
"echo-presentation","49","396717","0.0-49.0","5fc1a39a9c39d72827b3604c","5fef55e628823a0076ec12ee","601f447eeadd2f497deae0d6","Mozilla/5.0 (Windows NT 10.0; Win64; x64) AppleWebKit/537.36 (KHTML, like Gecko) Chrome/88.0.4324.146 Safari/537.36","v1","","","","","","","","-20,-10,0,10,20","media/audio/stims/spherical_300cm_s20_c20_cd-full_matched_a-10.wav","spherical","20","20","full","matched","-10","-10","2373"
"block-bookend","50","399457","0.0-50.0","5fc1a39a9c39d72827b3604c","5fef55e628823a0076ec12ee","601f447eeadd2f497deae0d6","Mozilla/5.0 (Windows NT 10.0; Win64; x64) AppleWebKit/537.36 (KHTML, like Gecko) Chrome/88.0.4324.146 Safari/537.36","v1","","","","","","","","","","","","","","","","",""
"block-bookend","51","410546","0.0-51.0","5fc1a39a9c39d72827b3604c","5fef55e628823a0076ec12ee","601f447eeadd2f497deae0d6","Mozilla/5.0 (Windows NT 10.0; Win64; x64) AppleWebKit/537.36 (KHTML, like Gecko) Chrome/88.0.4324.146 Safari/537.36","v1","","","","","","","","","","","","","","","","",""
"echo-presentation","52","416246","0.0-52.0","5fc1a39a9c39d72827b3604c","5fef55e628823a0076ec12ee","601f447eeadd2f497deae0d6","Mozilla/5.0 (Windows NT 10.0; Win64; x64) AppleWebKit/537.36 (KHTML, like Gecko) Chrome/88.0.4324.146 Safari/537.36","v1","","","","","","","","-80,-70,-60,-50,-40","media/audio/stims/spherical_300cm_s20_c20_cd-full_matched_a-70.wav","spherical","20","20","full","matched","-70","-60","3221"
"echo-presentation","53","419619","0.0-53.0","5fc1a39a9c39d72827b3604c","5fef55e628823a0076ec12ee","601f447eeadd2f497deae0d6","Mozilla/5.0 (Windows NT 10.0; Win64; x64) AppleWebKit/537.36 (KHTML, like Gecko) Chrome/88.0.4324.146 Safari/537.36","v1","","","","","","","","-80,-70,-60,-50,-40","media/audio/stims/spherical_300cm_s20_c20_cd-full_matched_a-80.wav","spherical","20","20","full","matched","-80","-80","2081"
"echo-presentation","54","422587","0.0-54.0","5fc1a39a9c39d72827b3604c","5fef55e628823a0076ec12ee","601f447eeadd2f497deae0d6","Mozilla/5.0 (Windows NT 10.0; Win64; x64) AppleWebKit/537.36 (KHTML, like Gecko) Chrome/88.0.4324.146 Safari/537.36","v1","","","","","","","","-80,-70,-60,-50,-40","media/audio/stims/spherical_300cm_s20_c20_cd-full_matched_a-60.wav","spherical","20","20","full","matched","-60","-80","1118"
"echo-presentation","55","424758","0.0-55.0","5fc1a39a9c39d72827b3604c","5fef55e628823a0076ec12ee","601f447eeadd2f497deae0d6","Mozilla/5.0 (Windows NT 10.0; Win64; x64) AppleWebKit/537.36 (KHTML, like Gecko) Chrome/88.0.4324.146 Safari/537.36","v1","","","","","","","","-80,-70,-60,-50,-40","media/audio/stims/spherical_300cm_s20_c20_cd-full_matched_a-40.wav","spherical","20","20","full","matched","-40","-80","1062"
"echo-presentation","56","427726","0.0-56.0","5fc1a39a9c39d72827b3604c","5fef55e628823a0076ec12ee","601f447eeadd2f497deae0d6","Mozilla/5.0 (Windows NT 10.0; Win64; x64) AppleWebKit/537.36 (KHTML, like Gecko) Chrome/88.0.4324.146 Safari/537.36","v1","","","","","","","","-80,-70,-60,-50,-40","media/audio/stims/spherical_300cm_s20_c20_cd-full_matched_a-70.wav","spherical","20","20","full","matched","-70","-70","1876"
"echo-presentation","57","430516","0.0-57.0","5fc1a39a9c39d72827b3604c","5fef55e628823a0076ec12ee","601f447eeadd2f497deae0d6","Mozilla/5.0 (Windows NT 10.0; Win64; x64) AppleWebKit/537.36 (KHTML, like Gecko) Chrome/88.0.4324.146 Safari/537.36","v1","","","","","","","","-80,-70,-60,-50,-40","media/audio/stims/spherical_300cm_s20_c20_cd-full_matched_a-80.wav","spherical","20","20","full","matched","-80","-80","1715"
"echo-presentation","58","433037","0.0-58.0","5fc1a39a9c39d72827b3604c","5fef55e628823a0076ec12ee","601f447eeadd2f497deae0d6","Mozilla/5.0 (Windows NT 10.0; Win64; x64) AppleWebKit/537.36 (KHTML, like Gecko) Chrome/88.0.4324.146 Safari/537.36","v1","","","","","","","","-80,-70,-60,-50,-40","media/audio/stims/spherical_300cm_s20_c20_cd-full_matched_a-80.wav","spherical","20","20","full","matched","-80","-80","1555"
"echo-presentation","59","436082","0.0-59.0","5fc1a39a9c39d72827b3604c","5fef55e628823a0076ec12ee","601f447eeadd2f497deae0d6","Mozilla/5.0 (Windows NT 10.0; Win64; x64) AppleWebKit/537.36 (KHTML, like Gecko) Chrome/88.0.4324.146 Safari/537.36","v1","","","","","","","","-80,-70,-60,-50,-40","media/audio/stims/spherical_300cm_s20_c20_cd-full_matched_a-50.wav","spherical","20","20","full","matched","-50","-40","2151"
"echo-presentation","60","440276","0.0-60.0","5fc1a39a9c39d72827b3604c","5fef55e628823a0076ec12ee","601f447eeadd2f497deae0d6","Mozilla/5.0 (Windows NT 10.0; Win64; x64) AppleWebKit/537.36 (KHTML, like Gecko) Chrome/88.0.4324.146 Safari/537.36","v1","","","","","","","","-80,-70,-60,-50,-40","media/audio/stims/spherical_300cm_s20_c20_cd-full_matched_a-40.wav","spherical","20","20","full","matched","-40","-70","1715"
"echo-presentation","61","444757","0.0-61.0","5fc1a39a9c39d72827b3604c","5fef55e628823a0076ec12ee","601f447eeadd2f497deae0d6","Mozilla/5.0 (Windows NT 10.0; Win64; x64) AppleWebKit/537.36 (KHTML, like Gecko) Chrome/88.0.4324.146 Safari/537.36","v1","","","","","","","","-80,-70,-60,-50,-40","media/audio/stims/spherical_300cm_s20_c20_cd-full_matched_a-80.wav","spherical","20","20","full","matched","-80","-80","1049"
"echo-presentation","62","447666","0.0-62.0","5fc1a39a9c39d72827b3604c","5fef55e628823a0076ec12ee","601f447eeadd2f497deae0d6","Mozilla/5.0 (Windows NT 10.0; Win64; x64) AppleWebKit/537.36 (KHTML, like Gecko) Chrome/88.0.4324.146 Safari/537.36","v1","","","","","","","","-80,-70,-60,-50,-40","media/audio/stims/spherical_300cm_s20_c20_cd-full_matched_a-40.wav","spherical","20","20","full","matched","-40","-60","1765"
"echo-presentation","63","450726","0.0-63.0","5fc1a39a9c39d72827b3604c","5fef55e628823a0076ec12ee","601f447eeadd2f497deae0d6","Mozilla/5.0 (Windows NT 10.0; Win64; x64) AppleWebKit/537.36 (KHTML, like Gecko) Chrome/88.0.4324.146 Safari/537.36","v1","","","","","","","","-80,-70,-60,-50,-40","media/audio/stims/spherical_300cm_s20_c20_cd-full_matched_a-50.wav","spherical","20","20","full","matched","-50","-50","2228"
"echo-presentation","64","452566","0.0-64.0","5fc1a39a9c39d72827b3604c","5fef55e628823a0076ec12ee","601f447eeadd2f497deae0d6","Mozilla/5.0 (Windows NT 10.0; Win64; x64) AppleWebKit/537.36 (KHTML, like Gecko) Chrome/88.0.4324.146 Safari/537.36","v1","","","","","","","","-80,-70,-60,-50,-40","media/audio/stims/spherical_300cm_s20_c20_cd-full_matched_a-40.wav","spherical","20","20","full","matched","-40","-50","992"
"echo-presentation","65","455386","0.0-65.0","5fc1a39a9c39d72827b3604c","5fef55e628823a0076ec12ee","601f447eeadd2f497deae0d6","Mozilla/5.0 (Windows NT 10.0; Win64; x64) AppleWebKit/537.36 (KHTML, like Gecko) Chrome/88.0.4324.146 Safari/537.36","v1","","","","","","","","-80,-70,-60,-50,-40","media/audio/stims/spherical_300cm_s20_c20_cd-full_matched_a-60.wav","spherical","20","20","full","matched","-60","-60","1694"
"echo-presentation","66","457398","0.0-66.0","5fc1a39a9c39d72827b3604c","5fef55e628823a0076ec12ee","601f447eeadd2f497deae0d6","Mozilla/5.0 (Windows NT 10.0; Win64; x64) AppleWebKit/537.36 (KHTML, like Gecko) Chrome/88.0.4324.146 Safari/537.36","v1","","","","","","","","-80,-70,-60,-50,-40","media/audio/stims/spherical_300cm_s20_c20_cd-full_matched_a-50.wav","spherical","20","20","full","matched","-50","-70","1106"
"echo-presentation","67","459616","0.0-67.0","5fc1a39a9c39d72827b3604c","5fef55e628823a0076ec12ee","601f447eeadd2f497deae0d6","Mozilla/5.0 (Windows NT 10.0; Win64; x64) AppleWebKit/537.36 (KHTML, like Gecko) Chrome/88.0.4324.146 Safari/537.36","v1","","","","","","","","-80,-70,-60,-50,-40","media/audio/stims/spherical_300cm_s20_c20_cd-full_matched_a-50.wav","spherical","20","20","full","matched","-50","-70","1081"
"echo-presentation","68","461656","0.0-68.0","5fc1a39a9c39d72827b3604c","5fef55e628823a0076ec12ee","601f447eeadd2f497deae0d6","Mozilla/5.0 (Windows NT 10.0; Win64; x64) AppleWebKit/537.36 (KHTML, like Gecko) Chrome/88.0.4324.146 Safari/537.36","v1","","","","","","","","-80,-70,-60,-50,-40","media/audio/stims/spherical_300cm_s20_c20_cd-full_matched_a-60.wav","spherical","20","20","full","matched","-60","-70","1025"
"echo-presentation","69","463696","0.0-69.0","5fc1a39a9c39d72827b3604c","5fef55e628823a0076ec12ee","601f447eeadd2f497deae0d6","Mozilla/5.0 (Windows NT 10.0; Win64; x64) AppleWebKit/537.36 (KHTML, like Gecko) Chrome/88.0.4324.146 Safari/537.36","v1","","","","","","","","-80,-70,-60,-50,-40","media/audio/stims/spherical_300cm_s20_c20_cd-full_matched_a-60.wav","spherical","20","20","full","matched","-60","-70","1039"
"echo-presentation","70","465876","0.0-70.0","5fc1a39a9c39d72827b3604c","5fef55e628823a0076ec12ee","601f447eeadd2f497deae0d6","Mozilla/5.0 (Windows NT 10.0; Win64; x64) AppleWebKit/537.36 (KHTML, like Gecko) Chrome/88.0.4324.146 Safari/537.36","v1","","","","","","","","-80,-70,-60,-50,-40","media/audio/stims/spherical_300cm_s20_c20_cd-full_matched_a-70.wav","spherical","20","20","full","matched","-70","-80","1257"
"echo-presentation","71","467916","0.0-71.0","5fc1a39a9c39d72827b3604c","5fef55e628823a0076ec12ee","601f447eeadd2f497deae0d6","Mozilla/5.0 (Windows NT 10.0; Win64; x64) AppleWebKit/537.36 (KHTML, like Gecko) Chrome/88.0.4324.146 Safari/537.36","v1","","","","","","","","-80,-70,-60,-50,-40","media/audio/stims/spherical_300cm_s20_c20_cd-full_matched_a-70.wav","spherical","20","20","full","matched","-70","-80","1071"
"block-bookend","72","469462","0.0-72.0","5fc1a39a9c39d72827b3604c","5fef55e628823a0076ec12ee","601f447eeadd2f497deae0d6","Mozilla/5.0 (Windows NT 10.0; Win64; x64) AppleWebKit/537.36 (KHTML, like Gecko) Chrome/88.0.4324.146 Safari/537.36","v1","","","","","","","","","","","","","","","","",""
"block-bookend","73","474945","0.0-73.0","5fc1a39a9c39d72827b3604c","5fef55e628823a0076ec12ee","601f447eeadd2f497deae0d6","Mozilla/5.0 (Windows NT 10.0; Win64; x64) AppleWebKit/537.36 (KHTML, like Gecko) Chrome/88.0.4324.146 Safari/537.36","v1","","","","","","","","","","","","","","","","",""
"echo-presentation","74","479056","0.0-74.0","5fc1a39a9c39d72827b3604c","5fef55e628823a0076ec12ee","601f447eeadd2f497deae0d6","Mozilla/5.0 (Windows NT 10.0; Win64; x64) AppleWebKit/537.36 (KHTML, like Gecko) Chrome/88.0.4324.146 Safari/537.36","v1","","","","","","","","-80,-70,-60,-50,-40","media/audio/stims/spherical_300cm_s20_c20_cd-full_matched_a-50.wav","spherical","20","20","full","matched","-50","-50","1849"
"echo-presentation","75","481395","0.0-75.0","5fc1a39a9c39d72827b3604c","5fef55e628823a0076ec12ee","601f447eeadd2f497deae0d6","Mozilla/5.0 (Windows NT 10.0; Win64; x64) AppleWebKit/537.36 (KHTML, like Gecko) Chrome/88.0.4324.146 Safari/537.36","v1","","","","","","","","-80,-70,-60,-50,-40","media/audio/stims/spherical_300cm_s20_c20_cd-full_matched_a-70.wav","spherical","20","20","full","matched","-70","-80","1162"
"echo-presentation","76","483761","0.0-76.0","5fc1a39a9c39d72827b3604c","5fef55e628823a0076ec12ee","601f447eeadd2f497deae0d6","Mozilla/5.0 (Windows NT 10.0; Win64; x64) AppleWebKit/537.36 (KHTML, like Gecko) Chrome/88.0.4324.146 Safari/537.36","v1","","","","","","","","-80,-70,-60,-50,-40","media/audio/stims/spherical_300cm_s20_c20_cd-full_matched_a-40.wav","spherical","20","20","full","matched","-40","-70","1282"
"echo-presentation","77","486067","0.0-77.0","5fc1a39a9c39d72827b3604c","5fef55e628823a0076ec12ee","601f447eeadd2f497deae0d6","Mozilla/5.0 (Windows NT 10.0; Win64; x64) AppleWebKit/537.36 (KHTML, like Gecko) Chrome/88.0.4324.146 Safari/537.36","v1","","","","","","","","-80,-70,-60,-50,-40","media/audio/stims/spherical_300cm_s20_c20_cd-full_matched_a-60.wav","spherical","20","20","full","matched","-60","-70","1290"
"echo-presentation","78","488096","0.0-78.0","5fc1a39a9c39d72827b3604c","5fef55e628823a0076ec12ee","601f447eeadd2f497deae0d6","Mozilla/5.0 (Windows NT 10.0; Win64; x64) AppleWebKit/537.36 (KHTML, like Gecko) Chrome/88.0.4324.146 Safari/537.36","v1","","","","","","","","-80,-70,-60,-50,-40","media/audio/stims/spherical_300cm_s20_c20_cd-full_matched_a-70.wav","spherical","20","20","full","matched","-70","-80","1188"
"echo-presentation","79","490116","0.0-79.0","5fc1a39a9c39d72827b3604c","5fef55e628823a0076ec12ee","601f447eeadd2f497deae0d6","Mozilla/5.0 (Windows NT 10.0; Win64; x64) AppleWebKit/537.36 (KHTML, like Gecko) Chrome/88.0.4324.146 Safari/537.36","v1","","","","","","","","-80,-70,-60,-50,-40","media/audio/stims/spherical_300cm_s20_c20_cd-full_matched_a-60.wav","spherical","20","20","full","matched","-60","-80","988"
"echo-presentation","80","492166","0.0-80.0","5fc1a39a9c39d72827b3604c","5fef55e628823a0076ec12ee","601f447eeadd2f497deae0d6","Mozilla/5.0 (Windows NT 10.0; Win64; x64) AppleWebKit/537.36 (KHTML, like Gecko) Chrome/88.0.4324.146 Safari/537.36","v1","","","","","","","","-80,-70,-60,-50,-40","media/audio/stims/spherical_300cm_s20_c20_cd-full_matched_a-50.wav","spherical","20","20","full","matched","-50","-70","1069"
"echo-presentation","81","494436","0.0-81.0","5fc1a39a9c39d72827b3604c","5fef55e628823a0076ec12ee","601f447eeadd2f497deae0d6","Mozilla/5.0 (Windows NT 10.0; Win64; x64) AppleWebKit/537.36 (KHTML, like Gecko) Chrome/88.0.4324.146 Safari/537.36","v1","","","","","","","","-80,-70,-60,-50,-40","media/audio/stims/spherical_300cm_s20_c20_cd-full_matched_a-70.wav","spherical","20","20","full","matched","-70","-70","1290"
"echo-presentation","82","496566","0.0-82.0","5fc1a39a9c39d72827b3604c","5fef55e628823a0076ec12ee","601f447eeadd2f497deae0d6","Mozilla/5.0 (Windows NT 10.0; Win64; x64) AppleWebKit/537.36 (KHTML, like Gecko) Chrome/88.0.4324.146 Safari/537.36","v1","","","","","","","","-80,-70,-60,-50,-40","media/audio/stims/spherical_300cm_s20_c20_cd-full_matched_a-80.wav","spherical","20","20","full","matched","-80","-70","1183"
"echo-presentation","83","498916","0.0-83.0","5fc1a39a9c39d72827b3604c","5fef55e628823a0076ec12ee","601f447eeadd2f497deae0d6","Mozilla/5.0 (Windows NT 10.0; Win64; x64) AppleWebKit/537.36 (KHTML, like Gecko) Chrome/88.0.4324.146 Safari/537.36","v1","","","","","","","","-80,-70,-60,-50,-40","media/audio/stims/spherical_300cm_s20_c20_cd-full_matched_a-40.wav","spherical","20","20","full","matched","-40","-70","1072"
"echo-presentation","84","501204","0.0-84.0","5fc1a39a9c39d72827b3604c","5fef55e628823a0076ec12ee","601f447eeadd2f497deae0d6","Mozilla/5.0 (Windows NT 10.0; Win64; x64) AppleWebKit/537.36 (KHTML, like Gecko) Chrome/88.0.4324.146 Safari/537.36","v1","","","","","","","","-80,-70,-60,-50,-40","media/audio/stims/spherical_300cm_s20_c20_cd-full_matched_a-50.wav","spherical","20","20","full","matched","-50","-70","1017"
"echo-presentation","85","502996","0.0-85.0","5fc1a39a9c39d72827b3604c","5fef55e628823a0076ec12ee","601f447eeadd2f497deae0d6","Mozilla/5.0 (Windows NT 10.0; Win64; x64) AppleWebKit/537.36 (KHTML, like Gecko) Chrome/88.0.4324.146 Safari/537.36","v1","","","","","","","","-80,-70,-60,-50,-40","media/audio/stims/spherical_300cm_s20_c20_cd-full_matched_a-40.wav","spherical","20","20","full","matched","-40","-70","895"
"echo-presentation","86","504996","0.0-86.0","5fc1a39a9c39d72827b3604c","5fef55e628823a0076ec12ee","601f447eeadd2f497deae0d6","Mozilla/5.0 (Windows NT 10.0; Win64; x64) AppleWebKit/537.36 (KHTML, like Gecko) Chrome/88.0.4324.146 Safari/537.36","v1","","","","","","","","-80,-70,-60,-50,-40","media/audio/stims/spherical_300cm_s20_c20_cd-full_matched_a-60.wav","spherical","20","20","full","matched","-60","-70","870"
"echo-presentation","87","507053","0.0-87.0","5fc1a39a9c39d72827b3604c","5fef55e628823a0076ec12ee","601f447eeadd2f497deae0d6","Mozilla/5.0 (Windows NT 10.0; Win64; x64) AppleWebKit/537.36 (KHTML, like Gecko) Chrome/88.0.4324.146 Safari/537.36","v1","","","","","","","","-80,-70,-60,-50,-40","media/audio/stims/spherical_300cm_s20_c20_cd-full_matched_a-80.wav","spherical","20","20","full","matched","-80","-80","1169"
"echo-presentation","88","508772","0.0-88.0","5fc1a39a9c39d72827b3604c","5fef55e628823a0076ec12ee","601f447eeadd2f497deae0d6","Mozilla/5.0 (Windows NT 10.0; Win64; x64) AppleWebKit/537.36 (KHTML, like Gecko) Chrome/88.0.4324.146 Safari/537.36","v1","","","","","","","","-80,-70,-60,-50,-40","media/audio/stims/spherical_300cm_s20_c20_cd-full_matched_a-60.wav","spherical","20","20","full","matched","-60","-80","865"
"echo-presentation","89","511022","0.0-89.0","5fc1a39a9c39d72827b3604c","5fef55e628823a0076ec12ee","601f447eeadd2f497deae0d6","Mozilla/5.0 (Windows NT 10.0; Win64; x64) AppleWebKit/537.36 (KHTML, like Gecko) Chrome/88.0.4324.146 Safari/537.36","v1","","","","","","","","-80,-70,-60,-50,-40","media/audio/stims/spherical_300cm_s20_c20_cd-full_matched_a-80.wav","spherical","20","20","full","matched","-80","-80","1214"
"echo-presentation","90","513032","0.0-90.0","5fc1a39a9c39d72827b3604c","5fef55e628823a0076ec12ee","601f447eeadd2f497deae0d6","Mozilla/5.0 (Windows NT 10.0; Win64; x64) AppleWebKit/537.36 (KHTML, like Gecko) Chrome/88.0.4324.146 Safari/537.36","v1","","","","","","","","-80,-70,-60,-50,-40","media/audio/stims/spherical_300cm_s20_c20_cd-full_matched_a-70.wav","spherical","20","20","full","matched","-70","-80","1109"
"echo-presentation","91","515622","0.0-91.0","5fc1a39a9c39d72827b3604c","5fef55e628823a0076ec12ee","601f447eeadd2f497deae0d6","Mozilla/5.0 (Windows NT 10.0; Win64; x64) AppleWebKit/537.36 (KHTML, like Gecko) Chrome/88.0.4324.146 Safari/537.36","v1","","","","","","","","-80,-70,-60,-50,-40","media/audio/stims/spherical_300cm_s20_c20_cd-full_matched_a-80.wav","spherical","20","20","full","matched","-80","-80","1594"
"echo-presentation","92","517772","0.0-92.0","5fc1a39a9c39d72827b3604c","5fef55e628823a0076ec12ee","601f447eeadd2f497deae0d6","Mozilla/5.0 (Windows NT 10.0; Win64; x64) AppleWebKit/537.36 (KHTML, like Gecko) Chrome/88.0.4324.146 Safari/537.36","v1","","","","","","","","-80,-70,-60,-50,-40","media/audio/stims/spherical_300cm_s20_c20_cd-full_matched_a-50.wav","spherical","20","20","full","matched","-50","-70","1284"
"echo-presentation","93","519983","0.0-93.0","5fc1a39a9c39d72827b3604c","5fef55e628823a0076ec12ee","601f447eeadd2f497deae0d6","Mozilla/5.0 (Windows NT 10.0; Win64; x64) AppleWebKit/537.36 (KHTML, like Gecko) Chrome/88.0.4324.146 Safari/537.36","v1","","","","","","","","-80,-70,-60,-50,-40","media/audio/stims/spherical_300cm_s20_c20_cd-full_matched_a-40.wav","spherical","20","20","full","matched","-40","-80","1124"
"block-bookend","94","537600","0.0-94.0","5fc1a39a9c39d72827b3604c","5fef55e628823a0076ec12ee","601f447eeadd2f497deae0d6","Mozilla/5.0 (Windows NT 10.0; Win64; x64) AppleWebKit/537.36 (KHTML, like Gecko) Chrome/88.0.4324.146 Safari/537.36","v1","","","","","","","","","","","","","","","","",""
"block-bookend","95","544909","0.0-95.0","5fc1a39a9c39d72827b3604c","5fef55e628823a0076ec12ee","601f447eeadd2f497deae0d6","Mozilla/5.0 (Windows NT 10.0; Win64; x64) AppleWebKit/537.36 (KHTML, like Gecko) Chrome/88.0.4324.146 Safari/537.36","v1","","","","","","","","","","","","","","","","",""
"echo-presentation","96","549522","0.0-96.0","5fc1a39a9c39d72827b3604c","5fef55e628823a0076ec12ee","601f447eeadd2f497deae0d6","Mozilla/5.0 (Windows NT 10.0; Win64; x64) AppleWebKit/537.36 (KHTML, like Gecko) Chrome/88.0.4324.146 Safari/537.36","v1","","","","","","","","40,50,60,70,80","media/audio/stims/spherical_300cm_s20_c20_cd-full_matched_a50.wav","spherical","20","20","full","matched","50","70","2462"
"echo-presentation","97","552522","0.0-97.0","5fc1a39a9c39d72827b3604c","5fef55e628823a0076ec12ee","601f447eeadd2f497deae0d6","Mozilla/5.0 (Windows NT 10.0; Win64; x64) AppleWebKit/537.36 (KHTML, like Gecko) Chrome/88.0.4324.146 Safari/537.36","v1","","","","","","","","40,50,60,70,80","media/audio/stims/spherical_300cm_s20_c20_cd-full_matched_a50.wav","spherical","20","20","full","matched","50","70","2092"
"echo-presentation","98","554493","0.0-98.0","5fc1a39a9c39d72827b3604c","5fef55e628823a0076ec12ee","601f447eeadd2f497deae0d6","Mozilla/5.0 (Windows NT 10.0; Win64; x64) AppleWebKit/537.36 (KHTML, like Gecko) Chrome/88.0.4324.146 Safari/537.36","v1","","","","","","","","40,50,60,70,80","media/audio/stims/spherical_300cm_s20_c20_cd-full_matched_a50.wav","spherical","20","20","full","matched","50","70","1095"
"echo-presentation","99","556522","0.0-99.0","5fc1a39a9c39d72827b3604c","5fef55e628823a0076ec12ee","601f447eeadd2f497deae0d6","Mozilla/5.0 (Windows NT 10.0; Win64; x64) AppleWebKit/537.36 (KHTML, like Gecko) Chrome/88.0.4324.146 Safari/537.36","v1","","","","","","","","40,50,60,70,80","media/audio/stims/spherical_300cm_s20_c20_cd-full_matched_a60.wav","spherical","20","20","full","matched","60","80","1148"
"echo-presentation","100","559332","0.0-100.0","5fc1a39a9c39d72827b3604c","5fef55e628823a0076ec12ee","601f447eeadd2f497deae0d6","Mozilla/5.0 (Windows NT 10.0; Win64; x64) AppleWebKit/537.36 (KHTML, like Gecko) Chrome/88.0.4324.146 Safari/537.36","v1","","","","","","","","40,50,60,70,80","media/audio/stims/spherical_300cm_s20_c20_cd-full_matched_a80.wav","spherical","20","20","full","matched","80","70","1739"
"echo-presentation","101","561532","0.0-101.0","5fc1a39a9c39d72827b3604c","5fef55e628823a0076ec12ee","601f447eeadd2f497deae0d6","Mozilla/5.0 (Windows NT 10.0; Win64; x64) AppleWebKit/537.36 (KHTML, like Gecko) Chrome/88.0.4324.146 Safari/537.36","v1","","","","","","","","40,50,60,70,80","media/audio/stims/spherical_300cm_s20_c20_cd-full_matched_a70.wav","spherical","20","20","full","matched","70","70","1221"
"echo-presentation","102","563432","0.0-102.0","5fc1a39a9c39d72827b3604c","5fef55e628823a0076ec12ee","601f447eeadd2f497deae0d6","Mozilla/5.0 (Windows NT 10.0; Win64; x64) AppleWebKit/537.36 (KHTML, like Gecko) Chrome/88.0.4324.146 Safari/537.36","v1","","","","","","","","40,50,60,70,80","media/audio/stims/spherical_300cm_s20_c20_cd-full_matched_a40.wav","spherical","20","20","full","matched","40","70","1092"
"echo-presentation","103","565423","0.0-103.0","5fc1a39a9c39d72827b3604c","5fef55e628823a0076ec12ee","601f447eeadd2f497deae0d6","Mozilla/5.0 (Windows NT 10.0; Win64; x64) AppleWebKit/537.36 (KHTML, like Gecko) Chrome/88.0.4324.146 Safari/537.36","v1","","","","","","","","40,50,60,70,80","media/audio/stims/spherical_300cm_s20_c20_cd-full_matched_a70.wav","spherical","20","20","full","matched","70","70","1058"
"echo-presentation","104","567368","0.0-104.0","5fc1a39a9c39d72827b3604c","5fef55e628823a0076ec12ee","601f447eeadd2f497deae0d6","Mozilla/5.0 (Windows NT 10.0; Win64; x64) AppleWebKit/537.36 (KHTML, like Gecko) Chrome/88.0.4324.146 Safari/537.36","v1","","","","","","","","40,50,60,70,80","media/audio/stims/spherical_300cm_s20_c20_cd-full_matched_a60.wav","spherical","20","20","full","matched","60","70","1012"
"echo-presentation","105","569288","0.0-105.0","5fc1a39a9c39d72827b3604c","5fef55e628823a0076ec12ee","601f447eeadd2f497deae0d6","Mozilla/5.0 (Windows NT 10.0; Win64; x64) AppleWebKit/537.36 (KHTML, like Gecko) Chrome/88.0.4324.146 Safari/537.36","v1","","","","","","","","40,50,60,70,80","media/audio/stims/spherical_300cm_s20_c20_cd-full_matched_a60.wav","spherical","20","20","full","matched","60","70","986"
"echo-presentation","106","571508","0.0-106.0","5fc1a39a9c39d72827b3604c","5fef55e628823a0076ec12ee","601f447eeadd2f497deae0d6","Mozilla/5.0 (Windows NT 10.0; Win64; x64) AppleWebKit/537.36 (KHTML, like Gecko) Chrome/88.0.4324.146 Safari/537.36","v1","","","","","","","","40,50,60,70,80","media/audio/stims/spherical_300cm_s20_c20_cd-full_matched_a70.wav","spherical","20","20","full","matched","70","70","1331"
"echo-presentation","107","573613","0.0-107.0","5fc1a39a9c39d72827b3604c","5fef55e628823a0076ec12ee","601f447eeadd2f497deae0d6","Mozilla/5.0 (Windows NT 10.0; Win64; x64) AppleWebKit/537.36 (KHTML, like Gecko) Chrome/88.0.4324.146 Safari/537.36","v1","","","","","","","","40,50,60,70,80","media/audio/stims/spherical_300cm_s20_c20_cd-full_matched_a60.wav","spherical","20","20","full","matched","60","50","1248"
"echo-presentation","108","575658","0.0-108.0","5fc1a39a9c39d72827b3604c","5fef55e628823a0076ec12ee","601f447eeadd2f497deae0d6","Mozilla/5.0 (Windows NT 10.0; Win64; x64) AppleWebKit/537.36 (KHTML, like Gecko) Chrome/88.0.4324.146 Safari/537.36","v1","","","","","","","","40,50,60,70,80","media/audio/stims/spherical_300cm_s20_c20_cd-full_matched_a40.wav","spherical","20","20","full","matched","40","50","1196"
"echo-presentation","109","577908","0.0-109.0","5fc1a39a9c39d72827b3604c","5fef55e628823a0076ec12ee","601f447eeadd2f497deae0d6","Mozilla/5.0 (Windows NT 10.0; Win64; x64) AppleWebKit/537.36 (KHTML, like Gecko) Chrome/88.0.4324.146 Safari/537.36","v1","","","","","","","","40,50,60,70,80","media/audio/stims/spherical_300cm_s20_c20_cd-full_matched_a50.wav","spherical","20","20","full","matched","50","50","1102"
"echo-presentation","110","580798","0.0-110.0","5fc1a39a9c39d72827b3604c","5fef55e628823a0076ec12ee","601f447eeadd2f497deae0d6","Mozilla/5.0 (Windows NT 10.0; Win64; x64) AppleWebKit/537.36 (KHTML, like Gecko) Chrome/88.0.4324.146 Safari/537.36","v1","","","","","","","","40,50,60,70,80","media/audio/stims/spherical_300cm_s20_c20_cd-full_matched_a70.wav","spherical","20","20","full","matched","70","50","1314"
"echo-presentation","111","582846","0.0-111.0","5fc1a39a9c39d72827b3604c","5fef55e628823a0076ec12ee","601f447eeadd2f497deae0d6","Mozilla/5.0 (Windows NT 10.0; Win64; x64) AppleWebKit/537.36 (KHTML, like Gecko) Chrome/88.0.4324.146 Safari/537.36","v1","","","","","","","","40,50,60,70,80","media/audio/stims/spherical_300cm_s20_c20_cd-full_matched_a40.wav","spherical","20","20","full","matched","40","50","1106"
"echo-presentation","112","585448","0.0-112.0","5fc1a39a9c39d72827b3604c","5fef55e628823a0076ec12ee","601f447eeadd2f497deae0d6","Mozilla/5.0 (Windows NT 10.0; Win64; x64) AppleWebKit/537.36 (KHTML, like Gecko) Chrome/88.0.4324.146 Safari/537.36","v1","","","","","","","","40,50,60,70,80","media/audio/stims/spherical_300cm_s20_c20_cd-full_matched_a80.wav","spherical","20","20","full","matched","80","60","1700"
"echo-presentation","113","587458","0.0-113.0","5fc1a39a9c39d72827b3604c","5fef55e628823a0076ec12ee","601f447eeadd2f497deae0d6","Mozilla/5.0 (Windows NT 10.0; Win64; x64) AppleWebKit/537.36 (KHTML, like Gecko) Chrome/88.0.4324.146 Safari/537.36","v1","","","","","","","","40,50,60,70,80","media/audio/stims/spherical_300cm_s20_c20_cd-full_matched_a80.wav","spherical","20","20","full","matched","80","50","957"
"echo-presentation","114","590057","0.0-114.0","5fc1a39a9c39d72827b3604c","5fef55e628823a0076ec12ee","601f447eeadd2f497deae0d6","Mozilla/5.0 (Windows NT 10.0; Win64; x64) AppleWebKit/537.36 (KHTML, like Gecko) Chrome/88.0.4324.146 Safari/537.36","v1","","","","","","","","40,50,60,70,80","media/audio/stims/spherical_300cm_s20_c20_cd-full_matched_a80.wav","spherical","20","20","full","matched","80","80","1457"
"echo-presentation","115","592648","0.0-115.0","5fc1a39a9c39d72827b3604c","5fef55e628823a0076ec12ee","601f447eeadd2f497deae0d6","Mozilla/5.0 (Windows NT 10.0; Win64; x64) AppleWebKit/537.36 (KHTML, like Gecko) Chrome/88.0.4324.146 Safari/537.36","v1","","","","","","","","40,50,60,70,80","media/audio/stims/spherical_300cm_s20_c20_cd-full_matched_a40.wav","spherical","20","20","full","matched","40","70","1484"
"block-bookend","116","595961","0.0-116.0","5fc1a39a9c39d72827b3604c","5fef55e628823a0076ec12ee","601f447eeadd2f497deae0d6","Mozilla/5.0 (Windows NT 10.0; Win64; x64) AppleWebKit/537.36 (KHTML, like Gecko) Chrome/88.0.4324.146 Safari/537.36","v1","","","","","","","","","","","","","","","","",""
"block-bookend","117","603023","0.0-117.0","5fc1a39a9c39d72827b3604c","5fef55e628823a0076ec12ee","601f447eeadd2f497deae0d6","Mozilla/5.0 (Windows NT 10.0; Win64; x64) AppleWebKit/537.36 (KHTML, like Gecko) Chrome/88.0.4324.146 Safari/537.36","v1","","","","","","","","","","","","","","","","",""
"echo-presentation","118","606093","0.0-118.0","5fc1a39a9c39d72827b3604c","5fef55e628823a0076ec12ee","601f447eeadd2f497deae0d6","Mozilla/5.0 (Windows NT 10.0; Win64; x64) AppleWebKit/537.36 (KHTML, like Gecko) Chrome/88.0.4324.146 Safari/537.36","v1","","","","","","","","40,50,60,70,80","media/audio/stims/spherical_300cm_s20_c20_cd-full_matched_a60.wav","spherical","20","20","full","matched","60","70","1108"
"echo-presentation","119","608168","0.0-119.0","5fc1a39a9c39d72827b3604c","5fef55e628823a0076ec12ee","601f447eeadd2f497deae0d6","Mozilla/5.0 (Windows NT 10.0; Win64; x64) AppleWebKit/537.36 (KHTML, like Gecko) Chrome/88.0.4324.146 Safari/537.36","v1","","","","","","","","40,50,60,70,80","media/audio/stims/spherical_300cm_s20_c20_cd-full_matched_a70.wav","spherical","20","20","full","matched","70","70","1122"
"echo-presentation","120","611148","0.0-120.0","5fc1a39a9c39d72827b3604c","5fef55e628823a0076ec12ee","601f447eeadd2f497deae0d6","Mozilla/5.0 (Windows NT 10.0; Win64; x64) AppleWebKit/537.36 (KHTML, like Gecko) Chrome/88.0.4324.146 Safari/537.36","v1","","","","","","","","40,50,60,70,80","media/audio/stims/spherical_300cm_s20_c20_cd-full_matched_a40.wav","spherical","20","20","full","matched","40","40","1444"
"echo-presentation","121","613678","0.0-121.0","5fc1a39a9c39d72827b3604c","5fef55e628823a0076ec12ee","601f447eeadd2f497deae0d6","Mozilla/5.0 (Windows NT 10.0; Win64; x64) AppleWebKit/537.36 (KHTML, like Gecko) Chrome/88.0.4324.146 Safari/537.36","v1","","","","","","","","40,50,60,70,80","media/audio/stims/spherical_300cm_s20_c20_cd-full_matched_a80.wav","spherical","20","20","full","matched","80","70","1646"
"echo-presentation","122","615720","0.0-122.0","5fc1a39a9c39d72827b3604c","5fef55e628823a0076ec12ee","601f447eeadd2f497deae0d6","Mozilla/5.0 (Windows NT 10.0; Win64; x64) AppleWebKit/537.36 (KHTML, like Gecko) Chrome/88.0.4324.146 Safari/537.36","v1","","","","","","","","40,50,60,70,80","media/audio/stims/spherical_300cm_s20_c20_cd-full_matched_a50.wav","spherical","20","20","full","matched","50","70","1262"
"echo-presentation","123","618129","0.0-123.0","5fc1a39a9c39d72827b3604c","5fef55e628823a0076ec12ee","601f447eeadd2f497deae0d6","Mozilla/5.0 (Windows NT 10.0; Win64; x64) AppleWebKit/537.36 (KHTML, like Gecko) Chrome/88.0.4324.146 Safari/537.36","v1","","","","","","","","40,50,60,70,80","media/audio/stims/spherical_300cm_s20_c20_cd-full_matched_a60.wav","spherical","20","20","full","matched","60","70","1139"
"echo-presentation","124","619998","0.0-124.0","5fc1a39a9c39d72827b3604c","5fef55e628823a0076ec12ee","601f447eeadd2f497deae0d6","Mozilla/5.0 (Windows NT 10.0; Win64; x64) AppleWebKit/537.36 (KHTML, like Gecko) Chrome/88.0.4324.146 Safari/537.36","v1","","","","","","","","40,50,60,70,80","media/audio/stims/spherical_300cm_s20_c20_cd-full_matched_a70.wav","spherical","20","20","full","matched","70","60","1042"
"echo-presentation","125","623938","0.0-125.0","5fc1a39a9c39d72827b3604c","5fef55e628823a0076ec12ee","601f447eeadd2f497deae0d6","Mozilla/5.0 (Windows NT 10.0; Win64; x64) AppleWebKit/537.36 (KHTML, like Gecko) Chrome/88.0.4324.146 Safari/537.36","v1","","","","","","","","40,50,60,70,80","media/audio/stims/spherical_300cm_s20_c20_cd-full_matched_a50.wav","spherical","20","20","full","matched","50","60","3153"
"echo-presentation","126","626168","0.0-126.0","5fc1a39a9c39d72827b3604c","5fef55e628823a0076ec12ee","601f447eeadd2f497deae0d6","Mozilla/5.0 (Windows NT 10.0; Win64; x64) AppleWebKit/537.36 (KHTML, like Gecko) Chrome/88.0.4324.146 Safari/537.36","v1","","","","","","","","40,50,60,70,80","media/audio/stims/spherical_300cm_s20_c20_cd-full_matched_a40.wav","spherical","20","20","full","matched","40","50","1423"
"echo-presentation","127","628057","0.0-127.0","5fc1a39a9c39d72827b3604c","5fef55e628823a0076ec12ee","601f447eeadd2f497deae0d6","Mozilla/5.0 (Windows NT 10.0; Win64; x64) AppleWebKit/537.36 (KHTML, like Gecko) Chrome/88.0.4324.146 Safari/537.36","v1","","","","","","","","40,50,60,70,80","media/audio/stims/spherical_300cm_s20_c20_cd-full_matched_a50.wav","spherical","20","20","full","matched","50","70","1046"
"echo-presentation","128","632886","0.0-128.0","5fc1a39a9c39d72827b3604c","5fef55e628823a0076ec12ee","601f447eeadd2f497deae0d6","Mozilla/5.0 (Windows NT 10.0; Win64; x64) AppleWebKit/537.36 (KHTML, like Gecko) Chrome/88.0.4324.146 Safari/537.36","v1","","","","","","","","40,50,60,70,80","media/audio/stims/spherical_300cm_s20_c20_cd-full_matched_a80.wav","spherical","20","20","full","matched","80","70","3923"
"echo-presentation","129","635227","0.0-129.0","5fc1a39a9c39d72827b3604c","5fef55e628823a0076ec12ee","601f447eeadd2f497deae0d6","Mozilla/5.0 (Windows NT 10.0; Win64; x64) AppleWebKit/537.36 (KHTML, like Gecko) Chrome/88.0.4324.146 Safari/537.36","v1","","","","","","","","40,50,60,70,80","media/audio/stims/spherical_300cm_s20_c20_cd-full_matched_a50.wav","spherical","20","20","full","matched","50","50","1253"
"echo-presentation","130","637617","0.0-130.0","5fc1a39a9c39d72827b3604c","5fef55e628823a0076ec12ee","601f447eeadd2f497deae0d6","Mozilla/5.0 (Windows NT 10.0; Win64; x64) AppleWebKit/537.36 (KHTML, like Gecko) Chrome/88.0.4324.146 Safari/537.36","v1","","","","","","","","40,50,60,70,80","media/audio/stims/spherical_300cm_s20_c20_cd-full_matched_a40.wav","spherical","20","20","full","matched","40","40","1378"
"echo-presentation","131","640187","0.0-131.0","5fc1a39a9c39d72827b3604c","5fef55e628823a0076ec12ee","601f447eeadd2f497deae0d6","Mozilla/5.0 (Windows NT 10.0; Win64; x64) AppleWebKit/537.36 (KHTML, like Gecko) Chrome/88.0.4324.146 Safari/537.36","v1","","","","","","","","40,50,60,70,80","media/audio/stims/spherical_300cm_s20_c20_cd-full_matched_a80.wav","spherical","20","20","full","matched","80","50","1235"
"echo-presentation","132","642547","0.0-132.0","5fc1a39a9c39d72827b3604c","5fef55e628823a0076ec12ee","601f447eeadd2f497deae0d6","Mozilla/5.0 (Windows NT 10.0; Win64; x64) AppleWebKit/537.36 (KHTML, like Gecko) Chrome/88.0.4324.146 Safari/537.36","v1","","","","","","","","40,50,60,70,80","media/audio/stims/spherical_300cm_s20_c20_cd-full_matched_a60.wav","spherical","20","20","full","matched","60","50","1319"
"echo-presentation","133","644526","0.0-133.0","5fc1a39a9c39d72827b3604c","5fef55e628823a0076ec12ee","601f447eeadd2f497deae0d6","Mozilla/5.0 (Windows NT 10.0; Win64; x64) AppleWebKit/537.36 (KHTML, like Gecko) Chrome/88.0.4324.146 Safari/537.36","v1","","","","","","","","40,50,60,70,80","media/audio/stims/spherical_300cm_s20_c20_cd-full_matched_a40.wav","spherical","20","20","full","matched","40","40","1021"
"echo-presentation","134","646596","0.0-134.0","5fc1a39a9c39d72827b3604c","5fef55e628823a0076ec12ee","601f447eeadd2f497deae0d6","Mozilla/5.0 (Windows NT 10.0; Win64; x64) AppleWebKit/537.36 (KHTML, like Gecko) Chrome/88.0.4324.146 Safari/537.36","v1","","","","","","","","40,50,60,70,80","media/audio/stims/spherical_300cm_s20_c20_cd-full_matched_a80.wav","spherical","20","20","full","matched","80","70","1067"
"echo-presentation","135","648517","0.0-135.0","5fc1a39a9c39d72827b3604c","5fef55e628823a0076ec12ee","601f447eeadd2f497deae0d6","Mozilla/5.0 (Windows NT 10.0; Win64; x64) AppleWebKit/537.36 (KHTML, like Gecko) Chrome/88.0.4324.146 Safari/537.36","v1","","","","","","","","40,50,60,70,80","media/audio/stims/spherical_300cm_s20_c20_cd-full_matched_a60.wav","spherical","20","20","full","matched","60","70","924"
"echo-presentation","136","650347","0.0-136.0","5fc1a39a9c39d72827b3604c","5fef55e628823a0076ec12ee","601f447eeadd2f497deae0d6","Mozilla/5.0 (Windows NT 10.0; Win64; x64) AppleWebKit/537.36 (KHTML, like Gecko) Chrome/88.0.4324.146 Safari/537.36","v1","","","","","","","","40,50,60,70,80","media/audio/stims/spherical_300cm_s20_c20_cd-full_matched_a70.wav","spherical","20","20","full","matched","70","60","1041"
"echo-presentation","137","652237","0.0-137.0","5fc1a39a9c39d72827b3604c","5fef55e628823a0076ec12ee","601f447eeadd2f497deae0d6","Mozilla/5.0 (Windows NT 10.0; Win64; x64) AppleWebKit/537.36 (KHTML, like Gecko) Chrome/88.0.4324.146 Safari/537.36","v1","","","","","","","","40,50,60,70,80","media/audio/stims/spherical_300cm_s20_c20_cd-full_matched_a70.wav","spherical","20","20","full","matched","70","60","927"
"block-bookend","138","655156","0.0-138.0","5fc1a39a9c39d72827b3604c","5fef55e628823a0076ec12ee","601f447eeadd2f497deae0d6","Mozilla/5.0 (Windows NT 10.0; Win64; x64) AppleWebKit/537.36 (KHTML, like Gecko) Chrome/88.0.4324.146 Safari/537.36","v1","","","","","","","","","","","","","","","","",""
