"trial_type","trial_index","time_elapsed","internal_node_id","prolificPid","studyId","sessionId","userAgent","version","rt","stimulus","key_press","chosenKeyset","failureCount","testIndex","globalVolume","choices","filename","modelName","slowdown","compensation","compensationDescriptor","receiverOrientationType","azimuth","responseAzimuth","responseDelay"
"pavlovia","0","7","0.0-0.0","5d8cef3c28e183001a335ab0","5fef55e628823a0076ec12ee","601f4758011c834a68bb5fe2","Mozilla/5.0 (Windows NT 10.0; Win64; x64) AppleWebKit/537.36 (KHTML, like Gecko) Chrome/87.0.4280.141 Safari/537.36","v1","","","","","","","","","","","","","","","","",""
"html-keyboard-response","1","12866","0.0-1.0","5d8cef3c28e183001a335ab0","5fef55e628823a0076ec12ee","601f4758011c834a68bb5fe2","Mozilla/5.0 (Windows NT 10.0; Win64; x64) AppleWebKit/537.36 (KHTML, like Gecko) Chrome/87.0.4280.141 Safari/537.36","v1","12857.580000068992","<div><h1>Welcome!</h1><p>Press any key to continue.</p></div>","32","","","","","","","","","","","","","",""
"consent-form","2","72571","0.0-2.0","5d8cef3c28e183001a335ab0","5fef55e628823a0076ec12ee","601f4758011c834a68bb5fe2","Mozilla/5.0 (Windows NT 10.0; Win64; x64) AppleWebKit/537.36 (KHTML, like Gecko) Chrome/87.0.4280.141 Safari/537.36","v1","","","","","","","","","","","","","","","","",""
"keyset-select","3","108795","0.0-3.0","5d8cef3c28e183001a335ab0","5fef55e628823a0076ec12ee","601f4758011c834a68bb5fe2","Mozilla/5.0 (Windows NT 10.0; Win64; x64) AppleWebKit/537.36 (KHTML, like Gecko) Chrome/87.0.4280.141 Safari/537.36","v1","","","","left-hand","","","","","","","","","","","","",""
"headphone-check","4","223307","0.0-4.0","5d8cef3c28e183001a335ab0","5fef55e628823a0076ec12ee","601f4758011c834a68bb5fe2","Mozilla/5.0 (Windows NT 10.0; Win64; x64) AppleWebKit/537.36 (KHTML, like Gecko) Chrome/87.0.4280.141 Safari/537.36","v1","","","","","0","6","0.7","","","","","","","","","",""
"headphone-backwards-check","5","236629","0.0-5.0","5d8cef3c28e183001a335ab0","5fef55e628823a0076ec12ee","601f4758011c834a68bb5fe2","Mozilla/5.0 (Windows NT 10.0; Win64; x64) AppleWebKit/537.36 (KHTML, like Gecko) Chrome/87.0.4280.141 Safari/537.36","v1","","","","","1","","","","","","","","","","","",""
"training","6","320595","0.0-6.0","5d8cef3c28e183001a335ab0","5fef55e628823a0076ec12ee","601f4758011c834a68bb5fe2","Mozilla/5.0 (Windows NT 10.0; Win64; x64) AppleWebKit/537.36 (KHTML, like Gecko) Chrome/87.0.4280.141 Safari/537.36","v1","","","","","","","","","","","","","","","","",""
"block-bookend","7","335079","0.0-7.0","5d8cef3c28e183001a335ab0","5fef55e628823a0076ec12ee","601f4758011c834a68bb5fe2","Mozilla/5.0 (Windows NT 10.0; Win64; x64) AppleWebKit/537.36 (KHTML, like Gecko) Chrome/87.0.4280.141 Safari/537.36","v1","","","","","","","","","","","","","","","","",""
"echo-presentation","8","343441","0.0-8.0","5d8cef3c28e183001a335ab0","5fef55e628823a0076ec12ee","601f4758011c834a68bb5fe2","Mozilla/5.0 (Windows NT 10.0; Win64; x64) AppleWebKit/537.36 (KHTML, like Gecko) Chrome/87.0.4280.141 Safari/537.36","v1","","","","","","","","40,50,60,70,80","media/audio/stims/spherical_300cm_s20_c20_cd-full_matched_a40.wav","spherical","20","20","full","matched","40","70","3598"
"echo-presentation","9","354774","0.0-9.0","5d8cef3c28e183001a335ab0","5fef55e628823a0076ec12ee","601f4758011c834a68bb5fe2","Mozilla/5.0 (Windows NT 10.0; Win64; x64) AppleWebKit/537.36 (KHTML, like Gecko) Chrome/87.0.4280.141 Safari/537.36","v1","","","","","","","","40,50,60,70,80","media/audio/stims/spherical_300cm_s20_c20_cd-full_matched_a40.wav","spherical","20","20","full","matched","40","70","8591"
"echo-presentation","10","359634","0.0-10.0","5d8cef3c28e183001a335ab0","5fef55e628823a0076ec12ee","601f4758011c834a68bb5fe2","Mozilla/5.0 (Windows NT 10.0; Win64; x64) AppleWebKit/537.36 (KHTML, like Gecko) Chrome/87.0.4280.141 Safari/537.36","v1","","","","","","","","40,50,60,70,80","media/audio/stims/spherical_300cm_s20_c20_cd-full_matched_a70.wav","spherical","20","20","full","matched","70","40","2368"
"echo-presentation","11","363780","0.0-11.0","5d8cef3c28e183001a335ab0","5fef55e628823a0076ec12ee","601f4758011c834a68bb5fe2","Mozilla/5.0 (Windows NT 10.0; Win64; x64) AppleWebKit/537.36 (KHTML, like Gecko) Chrome/87.0.4280.141 Safari/537.36","v1","","","","","","","","40,50,60,70,80","media/audio/stims/spherical_300cm_s20_c20_cd-full_matched_a70.wav","spherical","20","20","full","matched","70","40","1778"
"echo-presentation","12","367657","0.0-12.0","5d8cef3c28e183001a335ab0","5fef55e628823a0076ec12ee","601f4758011c834a68bb5fe2","Mozilla/5.0 (Windows NT 10.0; Win64; x64) AppleWebKit/537.36 (KHTML, like Gecko) Chrome/87.0.4280.141 Safari/537.36","v1","","","","","","","","40,50,60,70,80","media/audio/stims/spherical_300cm_s20_c20_cd-full_matched_a70.wav","spherical","20","20","full","matched","70","40","1763"
"echo-presentation","13","371603","0.0-13.0","5d8cef3c28e183001a335ab0","5fef55e628823a0076ec12ee","601f4758011c834a68bb5fe2","Mozilla/5.0 (Windows NT 10.0; Win64; x64) AppleWebKit/537.36 (KHTML, like Gecko) Chrome/87.0.4280.141 Safari/537.36","v1","","","","","","","","40,50,60,70,80","media/audio/stims/spherical_300cm_s20_c20_cd-full_matched_a70.wav","spherical","20","20","full","matched","70","50","2448"
"echo-presentation","14","377007","0.0-14.0","5d8cef3c28e183001a335ab0","5fef55e628823a0076ec12ee","601f4758011c834a68bb5fe2","Mozilla/5.0 (Windows NT 10.0; Win64; x64) AppleWebKit/537.36 (KHTML, like Gecko) Chrome/87.0.4280.141 Safari/537.36","v1","","","","","","","","40,50,60,70,80","media/audio/stims/spherical_300cm_s20_c20_cd-full_matched_a80.wav","spherical","20","20","full","matched","80","70","3633"
"echo-presentation","15","380596","0.0-15.0","5d8cef3c28e183001a335ab0","5fef55e628823a0076ec12ee","601f4758011c834a68bb5fe2","Mozilla/5.0 (Windows NT 10.0; Win64; x64) AppleWebKit/537.36 (KHTML, like Gecko) Chrome/87.0.4280.141 Safari/537.36","v1","","","","","","","","40,50,60,70,80","media/audio/stims/spherical_300cm_s20_c20_cd-full_matched_a50.wav","spherical","20","20","full","matched","50","60","1972"
"echo-presentation","16","383517","0.0-16.0","5d8cef3c28e183001a335ab0","5fef55e628823a0076ec12ee","601f4758011c834a68bb5fe2","Mozilla/5.0 (Windows NT 10.0; Win64; x64) AppleWebKit/537.36 (KHTML, like Gecko) Chrome/87.0.4280.141 Safari/537.36","v1","","","","","","","","40,50,60,70,80","media/audio/stims/spherical_300cm_s20_c20_cd-full_matched_a60.wav","spherical","20","20","full","matched","60","70","1620"
"echo-presentation","17","387159","0.0-17.0","5d8cef3c28e183001a335ab0","5fef55e628823a0076ec12ee","601f4758011c834a68bb5fe2","Mozilla/5.0 (Windows NT 10.0; Win64; x64) AppleWebKit/537.36 (KHTML, like Gecko) Chrome/87.0.4280.141 Safari/537.36","v1","","","","","","","","40,50,60,70,80","media/audio/stims/spherical_300cm_s20_c20_cd-full_matched_a40.wav","spherical","20","20","full","matched","40","70","2185"
"echo-presentation","18","391141","0.0-18.0","5d8cef3c28e183001a335ab0","5fef55e628823a0076ec12ee","601f4758011c834a68bb5fe2","Mozilla/5.0 (Windows NT 10.0; Win64; x64) AppleWebKit/537.36 (KHTML, like Gecko) Chrome/87.0.4280.141 Safari/537.36","v1","","","","","","","","40,50,60,70,80","media/audio/stims/spherical_300cm_s20_c20_cd-full_matched_a80.wav","spherical","20","20","full","matched","80","60","1891"
"echo-presentation","19","394217","0.0-19.0","5d8cef3c28e183001a335ab0","5fef55e628823a0076ec12ee","601f4758011c834a68bb5fe2","Mozilla/5.0 (Windows NT 10.0; Win64; x64) AppleWebKit/537.36 (KHTML, like Gecko) Chrome/87.0.4280.141 Safari/537.36","v1","","","","","","","","40,50,60,70,80","media/audio/stims/spherical_300cm_s20_c20_cd-full_matched_a60.wav","spherical","20","20","full","matched","60","50","1832"
"echo-presentation","20","396956","0.0-20.0","5d8cef3c28e183001a335ab0","5fef55e628823a0076ec12ee","601f4758011c834a68bb5fe2","Mozilla/5.0 (Windows NT 10.0; Win64; x64) AppleWebKit/537.36 (KHTML, like Gecko) Chrome/87.0.4280.141 Safari/537.36","v1","","","","","","","","40,50,60,70,80","media/audio/stims/spherical_300cm_s20_c20_cd-full_matched_a50.wav","spherical","20","20","full","matched","50","40","1434"
"echo-presentation","21","400616","0.0-21.0","5d8cef3c28e183001a335ab0","5fef55e628823a0076ec12ee","601f4758011c834a68bb5fe2","Mozilla/5.0 (Windows NT 10.0; Win64; x64) AppleWebKit/537.36 (KHTML, like Gecko) Chrome/87.0.4280.141 Safari/537.36","v1","","","","","","","","40,50,60,70,80","media/audio/stims/spherical_300cm_s20_c20_cd-full_matched_a60.wav","spherical","20","20","full","matched","60","50","1490"
"echo-presentation","22","403424","0.0-22.0","5d8cef3c28e183001a335ab0","5fef55e628823a0076ec12ee","601f4758011c834a68bb5fe2","Mozilla/5.0 (Windows NT 10.0; Win64; x64) AppleWebKit/537.36 (KHTML, like Gecko) Chrome/87.0.4280.141 Safari/537.36","v1","","","","","","","","40,50,60,70,80","media/audio/stims/spherical_300cm_s20_c20_cd-full_matched_a50.wav","spherical","20","20","full","matched","50","40","1224"
"echo-presentation","23","405700","0.0-23.0","5d8cef3c28e183001a335ab0","5fef55e628823a0076ec12ee","601f4758011c834a68bb5fe2","Mozilla/5.0 (Windows NT 10.0; Win64; x64) AppleWebKit/537.36 (KHTML, like Gecko) Chrome/87.0.4280.141 Safari/537.36","v1","","","","","","","","40,50,60,70,80","media/audio/stims/spherical_300cm_s20_c20_cd-full_matched_a80.wav","spherical","20","20","full","matched","80","40","1255"
"echo-presentation","24","408152","0.0-24.0","5d8cef3c28e183001a335ab0","5fef55e628823a0076ec12ee","601f4758011c834a68bb5fe2","Mozilla/5.0 (Windows NT 10.0; Win64; x64) AppleWebKit/537.36 (KHTML, like Gecko) Chrome/87.0.4280.141 Safari/537.36","v1","","","","","","","","40,50,60,70,80","media/audio/stims/spherical_300cm_s20_c20_cd-full_matched_a60.wav","spherical","20","20","full","matched","60","50","1579"
"echo-presentation","25","410750","0.0-25.0","5d8cef3c28e183001a335ab0","5fef55e628823a0076ec12ee","601f4758011c834a68bb5fe2","Mozilla/5.0 (Windows NT 10.0; Win64; x64) AppleWebKit/537.36 (KHTML, like Gecko) Chrome/87.0.4280.141 Safari/537.36","v1","","","","","","","","40,50,60,70,80","media/audio/stims/spherical_300cm_s20_c20_cd-full_matched_a80.wav","spherical","20","20","full","matched","80","60","1490"
"echo-presentation","26","413513","0.0-26.0","5d8cef3c28e183001a335ab0","5fef55e628823a0076ec12ee","601f4758011c834a68bb5fe2","Mozilla/5.0 (Windows NT 10.0; Win64; x64) AppleWebKit/537.36 (KHTML, like Gecko) Chrome/87.0.4280.141 Safari/537.36","v1","","","","","","","","40,50,60,70,80","media/audio/stims/spherical_300cm_s20_c20_cd-full_matched_a50.wav","spherical","20","20","full","matched","50","60","2006"
"echo-presentation","27","416483","0.0-27.0","5d8cef3c28e183001a335ab0","5fef55e628823a0076ec12ee","601f4758011c834a68bb5fe2","Mozilla/5.0 (Windows NT 10.0; Win64; x64) AppleWebKit/537.36 (KHTML, like Gecko) Chrome/87.0.4280.141 Safari/537.36","v1","","","","","","","","40,50,60,70,80","media/audio/stims/spherical_300cm_s20_c20_cd-full_matched_a40.wav","spherical","20","20","full","matched","40","60","1248"
"block-bookend","28","419255","0.0-28.0","5d8cef3c28e183001a335ab0","5fef55e628823a0076ec12ee","601f4758011c834a68bb5fe2","Mozilla/5.0 (Windows NT 10.0; Win64; x64) AppleWebKit/537.36 (KHTML, like Gecko) Chrome/87.0.4280.141 Safari/537.36","v1","","","","","","","","","","","","","","","","",""
"block-bookend","29","432636","0.0-29.0","5d8cef3c28e183001a335ab0","5fef55e628823a0076ec12ee","601f4758011c834a68bb5fe2","Mozilla/5.0 (Windows NT 10.0; Win64; x64) AppleWebKit/537.36 (KHTML, like Gecko) Chrome/87.0.4280.141 Safari/537.36","v1","","","","","","","","","","","","","","","","",""
"echo-presentation","30","441122","0.0-30.0","5d8cef3c28e183001a335ab0","5fef55e628823a0076ec12ee","601f4758011c834a68bb5fe2","Mozilla/5.0 (Windows NT 10.0; Win64; x64) AppleWebKit/537.36 (KHTML, like Gecko) Chrome/87.0.4280.141 Safari/537.36","v1","","","","","","","","40,50,60,70,80","media/audio/stims/spherical_300cm_s20_c20_cd-full_matched_a80.wav","spherical","20","20","full","matched","80","40","3665"
"echo-presentation","31","445037","0.0-31.0","5d8cef3c28e183001a335ab0","5fef55e628823a0076ec12ee","601f4758011c834a68bb5fe2","Mozilla/5.0 (Windows NT 10.0; Win64; x64) AppleWebKit/537.36 (KHTML, like Gecko) Chrome/87.0.4280.141 Safari/537.36","v1","","","","","","","","40,50,60,70,80","media/audio/stims/spherical_300cm_s20_c20_cd-full_matched_a60.wav","spherical","20","20","full","matched","60","60","2289"
"echo-presentation","32","449139","0.0-32.0","5d8cef3c28e183001a335ab0","5fef55e628823a0076ec12ee","601f4758011c834a68bb5fe2","Mozilla/5.0 (Windows NT 10.0; Win64; x64) AppleWebKit/537.36 (KHTML, like Gecko) Chrome/87.0.4280.141 Safari/537.36","v1","","","","","","","","40,50,60,70,80","media/audio/stims/spherical_300cm_s20_c20_cd-full_matched_a80.wav","spherical","20","20","full","matched","80","60","2263"
"echo-presentation","33","453031","0.0-33.0","5d8cef3c28e183001a335ab0","5fef55e628823a0076ec12ee","601f4758011c834a68bb5fe2","Mozilla/5.0 (Windows NT 10.0; Win64; x64) AppleWebKit/537.36 (KHTML, like Gecko) Chrome/87.0.4280.141 Safari/537.36","v1","","","","","","","","40,50,60,70,80","media/audio/stims/spherical_300cm_s20_c20_cd-full_matched_a40.wav","spherical","20","20","full","matched","40","60","1835"
"echo-presentation","34","455321","0.0-34.0","5d8cef3c28e183001a335ab0","5fef55e628823a0076ec12ee","601f4758011c834a68bb5fe2","Mozilla/5.0 (Windows NT 10.0; Win64; x64) AppleWebKit/537.36 (KHTML, like Gecko) Chrome/87.0.4280.141 Safari/537.36","v1","","","","","","","","40,50,60,70,80","media/audio/stims/spherical_300cm_s20_c20_cd-full_matched_a50.wav","spherical","20","20","full","matched","50","50","1275"
"echo-presentation","35","457641","0.0-35.0","5d8cef3c28e183001a335ab0","5fef55e628823a0076ec12ee","601f4758011c834a68bb5fe2","Mozilla/5.0 (Windows NT 10.0; Win64; x64) AppleWebKit/537.36 (KHTML, like Gecko) Chrome/87.0.4280.141 Safari/537.36","v1","","","","","","","","40,50,60,70,80","media/audio/stims/spherical_300cm_s20_c20_cd-full_matched_a80.wav","spherical","20","20","full","matched","80","60","1305"
"echo-presentation","36","460771","0.0-36.0","5d8cef3c28e183001a335ab0","5fef55e628823a0076ec12ee","601f4758011c834a68bb5fe2","Mozilla/5.0 (Windows NT 10.0; Win64; x64) AppleWebKit/537.36 (KHTML, like Gecko) Chrome/87.0.4280.141 Safari/537.36","v1","","","","","","","","40,50,60,70,80","media/audio/stims/spherical_300cm_s20_c20_cd-full_matched_a60.wav","spherical","20","20","full","matched","60","60","2001"
"echo-presentation","37","462949","0.0-37.0","5d8cef3c28e183001a335ab0","5fef55e628823a0076ec12ee","601f4758011c834a68bb5fe2","Mozilla/5.0 (Windows NT 10.0; Win64; x64) AppleWebKit/537.36 (KHTML, like Gecko) Chrome/87.0.4280.141 Safari/537.36","v1","","","","","","","","40,50,60,70,80","media/audio/stims/spherical_300cm_s20_c20_cd-full_matched_a40.wav","spherical","20","20","full","matched","40","70","1362"
"echo-presentation","38","465637","0.0-38.0","5d8cef3c28e183001a335ab0","5fef55e628823a0076ec12ee","601f4758011c834a68bb5fe2","Mozilla/5.0 (Windows NT 10.0; Win64; x64) AppleWebKit/537.36 (KHTML, like Gecko) Chrome/87.0.4280.141 Safari/537.36","v1","","","","","","","","40,50,60,70,80","media/audio/stims/spherical_300cm_s20_c20_cd-full_matched_a50.wav","spherical","20","20","full","matched","50","50","1361"
"echo-presentation","39","467992","0.0-39.0","5d8cef3c28e183001a335ab0","5fef55e628823a0076ec12ee","601f4758011c834a68bb5fe2","Mozilla/5.0 (Windows NT 10.0; Win64; x64) AppleWebKit/537.36 (KHTML, like Gecko) Chrome/87.0.4280.141 Safari/537.36","v1","","","","","","","","40,50,60,70,80","media/audio/stims/spherical_300cm_s20_c20_cd-full_matched_a40.wav","spherical","20","20","full","matched","40","40","1295"
"echo-presentation","40","471201","0.0-40.0","5d8cef3c28e183001a335ab0","5fef55e628823a0076ec12ee","601f4758011c834a68bb5fe2","Mozilla/5.0 (Windows NT 10.0; Win64; x64) AppleWebKit/537.36 (KHTML, like Gecko) Chrome/87.0.4280.141 Safari/537.36","v1","","","","","","","","40,50,60,70,80","media/audio/stims/spherical_300cm_s20_c20_cd-full_matched_a60.wav","spherical","20","20","full","matched","60","40","1194"
"echo-presentation","41","473842","0.0-41.0","5d8cef3c28e183001a335ab0","5fef55e628823a0076ec12ee","601f4758011c834a68bb5fe2","Mozilla/5.0 (Windows NT 10.0; Win64; x64) AppleWebKit/537.36 (KHTML, like Gecko) Chrome/87.0.4280.141 Safari/537.36","v1","","","","","","","","40,50,60,70,80","media/audio/stims/spherical_300cm_s20_c20_cd-full_matched_a60.wav","spherical","20","20","full","matched","60","40","1263"
"echo-presentation","42","476298","0.0-42.0","5d8cef3c28e183001a335ab0","5fef55e628823a0076ec12ee","601f4758011c834a68bb5fe2","Mozilla/5.0 (Windows NT 10.0; Win64; x64) AppleWebKit/537.36 (KHTML, like Gecko) Chrome/87.0.4280.141 Safari/537.36","v1","","","","","","","","40,50,60,70,80","media/audio/stims/spherical_300cm_s20_c20_cd-full_matched_a70.wav","spherical","20","20","full","matched","70","50","1570"
"echo-presentation","43","479142","0.0-43.0","5d8cef3c28e183001a335ab0","5fef55e628823a0076ec12ee","601f4758011c834a68bb5fe2","Mozilla/5.0 (Windows NT 10.0; Win64; x64) AppleWebKit/537.36 (KHTML, like Gecko) Chrome/87.0.4280.141 Safari/537.36","v1","","","","","","","","40,50,60,70,80","media/audio/stims/spherical_300cm_s20_c20_cd-full_matched_a70.wav","spherical","20","20","full","matched","70","40","1184"
"echo-presentation","44","481964","0.0-44.0","5d8cef3c28e183001a335ab0","5fef55e628823a0076ec12ee","601f4758011c834a68bb5fe2","Mozilla/5.0 (Windows NT 10.0; Win64; x64) AppleWebKit/537.36 (KHTML, like Gecko) Chrome/87.0.4280.141 Safari/537.36","v1","","","","","","","","40,50,60,70,80","media/audio/stims/spherical_300cm_s20_c20_cd-full_matched_a40.wav","spherical","20","20","full","matched","40","40","1278"
"echo-presentation","45","484562","0.0-45.0","5d8cef3c28e183001a335ab0","5fef55e628823a0076ec12ee","601f4758011c834a68bb5fe2","Mozilla/5.0 (Windows NT 10.0; Win64; x64) AppleWebKit/537.36 (KHTML, like Gecko) Chrome/87.0.4280.141 Safari/537.36","v1","","","","","","","","40,50,60,70,80","media/audio/stims/spherical_300cm_s20_c20_cd-full_matched_a50.wav","spherical","20","20","full","matched","50","40","1384"
"echo-presentation","46","487211","0.0-46.0","5d8cef3c28e183001a335ab0","5fef55e628823a0076ec12ee","601f4758011c834a68bb5fe2","Mozilla/5.0 (Windows NT 10.0; Win64; x64) AppleWebKit/537.36 (KHTML, like Gecko) Chrome/87.0.4280.141 Safari/537.36","v1","","","","","","","","40,50,60,70,80","media/audio/stims/spherical_300cm_s20_c20_cd-full_matched_a50.wav","spherical","20","20","full","matched","50","50","1577"
"echo-presentation","47","489733","0.0-47.0","5d8cef3c28e183001a335ab0","5fef55e628823a0076ec12ee","601f4758011c834a68bb5fe2","Mozilla/5.0 (Windows NT 10.0; Win64; x64) AppleWebKit/537.36 (KHTML, like Gecko) Chrome/87.0.4280.141 Safari/537.36","v1","","","","","","","","40,50,60,70,80","media/audio/stims/spherical_300cm_s20_c20_cd-full_matched_a80.wav","spherical","20","20","full","matched","80","50","1308"
"echo-presentation","48","491618","0.0-48.0","5d8cef3c28e183001a335ab0","5fef55e628823a0076ec12ee","601f4758011c834a68bb5fe2","Mozilla/5.0 (Windows NT 10.0; Win64; x64) AppleWebKit/537.36 (KHTML, like Gecko) Chrome/87.0.4280.141 Safari/537.36","v1","","","","","","","","40,50,60,70,80","media/audio/stims/spherical_300cm_s20_c20_cd-full_matched_a70.wav","spherical","20","20","full","matched","70","40","1078"
"echo-presentation","49","493512","0.0-49.0","5d8cef3c28e183001a335ab0","5fef55e628823a0076ec12ee","601f4758011c834a68bb5fe2","Mozilla/5.0 (Windows NT 10.0; Win64; x64) AppleWebKit/537.36 (KHTML, like Gecko) Chrome/87.0.4280.141 Safari/537.36","v1","","","","","","","","40,50,60,70,80","media/audio/stims/spherical_300cm_s20_c20_cd-full_matched_a70.wav","spherical","20","20","full","matched","70","50","1082"
"block-bookend","50","502608","0.0-50.0","5d8cef3c28e183001a335ab0","5fef55e628823a0076ec12ee","601f4758011c834a68bb5fe2","Mozilla/5.0 (Windows NT 10.0; Win64; x64) AppleWebKit/537.36 (KHTML, like Gecko) Chrome/87.0.4280.141 Safari/537.36","v1","","","","","","","","","","","","","","","","",""
"block-bookend","51","520001","0.0-51.0","5d8cef3c28e183001a335ab0","5fef55e628823a0076ec12ee","601f4758011c834a68bb5fe2","Mozilla/5.0 (Windows NT 10.0; Win64; x64) AppleWebKit/537.36 (KHTML, like Gecko) Chrome/87.0.4280.141 Safari/537.36","v1","","","","","","","","","","","","","","","","",""
"echo-presentation","52","525212","0.0-52.0","5d8cef3c28e183001a335ab0","5fef55e628823a0076ec12ee","601f4758011c834a68bb5fe2","Mozilla/5.0 (Windows NT 10.0; Win64; x64) AppleWebKit/537.36 (KHTML, like Gecko) Chrome/87.0.4280.141 Safari/537.36","v1","","","","","","","","-80,-70,-60,-50,-40","media/audio/stims/spherical_300cm_s20_c20_cd-full_matched_a-40.wav","spherical","20","20","full","matched","-40","-80","2161"
"echo-presentation","53","528653","0.0-53.0","5d8cef3c28e183001a335ab0","5fef55e628823a0076ec12ee","601f4758011c834a68bb5fe2","Mozilla/5.0 (Windows NT 10.0; Win64; x64) AppleWebKit/537.36 (KHTML, like Gecko) Chrome/87.0.4280.141 Safari/537.36","v1","","","","","","","","-80,-70,-60,-50,-40","media/audio/stims/spherical_300cm_s20_c20_cd-full_matched_a-80.wav","spherical","20","20","full","matched","-80","-80","1685"
"echo-presentation","54","530818","0.0-54.0","5d8cef3c28e183001a335ab0","5fef55e628823a0076ec12ee","601f4758011c834a68bb5fe2","Mozilla/5.0 (Windows NT 10.0; Win64; x64) AppleWebKit/537.36 (KHTML, like Gecko) Chrome/87.0.4280.141 Safari/537.36","v1","","","","","","","","-80,-70,-60,-50,-40","media/audio/stims/spherical_300cm_s20_c20_cd-full_matched_a-80.wav","spherical","20","20","full","matched","-80","-70","1374"
"echo-presentation","55","533553","0.0-55.0","5d8cef3c28e183001a335ab0","5fef55e628823a0076ec12ee","601f4758011c834a68bb5fe2","Mozilla/5.0 (Windows NT 10.0; Win64; x64) AppleWebKit/537.36 (KHTML, like Gecko) Chrome/87.0.4280.141 Safari/537.36","v1","","","","","","","","-80,-70,-60,-50,-40","media/audio/stims/spherical_300cm_s20_c20_cd-full_matched_a-50.wav","spherical","20","20","full","matched","-50","-60","1873"
"echo-presentation","56","536064","0.0-56.0","5d8cef3c28e183001a335ab0","5fef55e628823a0076ec12ee","601f4758011c834a68bb5fe2","Mozilla/5.0 (Windows NT 10.0; Win64; x64) AppleWebKit/537.36 (KHTML, like Gecko) Chrome/87.0.4280.141 Safari/537.36","v1","","","","","","","","-80,-70,-60,-50,-40","media/audio/stims/spherical_300cm_s20_c20_cd-full_matched_a-70.wav","spherical","20","20","full","matched","-70","-50","1799"
"echo-presentation","57","538176","0.0-57.0","5d8cef3c28e183001a335ab0","5fef55e628823a0076ec12ee","601f4758011c834a68bb5fe2","Mozilla/5.0 (Windows NT 10.0; Win64; x64) AppleWebKit/537.36 (KHTML, like Gecko) Chrome/87.0.4280.141 Safari/537.36","v1","","","","","","","","-80,-70,-60,-50,-40","media/audio/stims/spherical_300cm_s20_c20_cd-full_matched_a-50.wav","spherical","20","20","full","matched","-50","-50","1426"
"echo-presentation","58","541112","0.0-58.0","5d8cef3c28e183001a335ab0","5fef55e628823a0076ec12ee","601f4758011c834a68bb5fe2","Mozilla/5.0 (Windows NT 10.0; Win64; x64) AppleWebKit/537.36 (KHTML, like Gecko) Chrome/87.0.4280.141 Safari/537.36","v1","","","","","","","","-80,-70,-60,-50,-40","media/audio/stims/spherical_300cm_s20_c20_cd-full_matched_a-40.wav","spherical","20","20","full","matched","-40","-40","1267"
"echo-presentation","59","551361","0.0-59.0","5d8cef3c28e183001a335ab0","5fef55e628823a0076ec12ee","601f4758011c834a68bb5fe2","Mozilla/5.0 (Windows NT 10.0; Win64; x64) AppleWebKit/537.36 (KHTML, like Gecko) Chrome/87.0.4280.141 Safari/537.36","v1","","","","","","","","-80,-70,-60,-50,-40","media/audio/stims/spherical_300cm_s20_c20_cd-full_matched_a-60.wav","spherical","20","20","full","matched","-60","-40","4618"
"echo-presentation","60","558711","0.0-60.0","5d8cef3c28e183001a335ab0","5fef55e628823a0076ec12ee","601f4758011c834a68bb5fe2","Mozilla/5.0 (Windows NT 10.0; Win64; x64) AppleWebKit/537.36 (KHTML, like Gecko) Chrome/87.0.4280.141 Safari/537.36","v1","","","","","","","","-80,-70,-60,-50,-40","media/audio/stims/spherical_300cm_s20_c20_cd-full_matched_a-40.wav","spherical","20","20","full","matched","-40","-50","3641"
"echo-presentation","61","562612","0.0-61.0","5d8cef3c28e183001a335ab0","5fef55e628823a0076ec12ee","601f4758011c834a68bb5fe2","Mozilla/5.0 (Windows NT 10.0; Win64; x64) AppleWebKit/537.36 (KHTML, like Gecko) Chrome/87.0.4280.141 Safari/537.36","v1","","","","","","","","-80,-70,-60,-50,-40","media/audio/stims/spherical_300cm_s20_c20_cd-full_matched_a-60.wav","spherical","20","20","full","matched","-60","-40","1294"
"echo-presentation","62","567111","0.0-62.0","5d8cef3c28e183001a335ab0","5fef55e628823a0076ec12ee","601f4758011c834a68bb5fe2","Mozilla/5.0 (Windows NT 10.0; Win64; x64) AppleWebKit/537.36 (KHTML, like Gecko) Chrome/87.0.4280.141 Safari/537.36","v1","","","","","","","","-80,-70,-60,-50,-40","media/audio/stims/spherical_300cm_s20_c20_cd-full_matched_a-40.wav","spherical","20","20","full","matched","-40","-60","2394"
"echo-presentation","63","572246","0.0-63.0","5d8cef3c28e183001a335ab0","5fef55e628823a0076ec12ee","601f4758011c834a68bb5fe2","Mozilla/5.0 (Windows NT 10.0; Win64; x64) AppleWebKit/537.36 (KHTML, like Gecko) Chrome/87.0.4280.141 Safari/537.36","v1","","","","","","","","-80,-70,-60,-50,-40","media/audio/stims/spherical_300cm_s20_c20_cd-full_matched_a-50.wav","spherical","20","20","full","matched","-50","-60","1974"
"echo-presentation","64","574462","0.0-64.0","5d8cef3c28e183001a335ab0","5fef55e628823a0076ec12ee","601f4758011c834a68bb5fe2","Mozilla/5.0 (Windows NT 10.0; Win64; x64) AppleWebKit/537.36 (KHTML, like Gecko) Chrome/87.0.4280.141 Safari/537.36","v1","","","","","","","","-80,-70,-60,-50,-40","media/audio/stims/spherical_300cm_s20_c20_cd-full_matched_a-80.wav","spherical","20","20","full","matched","-80","-80","1251"
"echo-presentation","65","577032","0.0-65.0","5d8cef3c28e183001a335ab0","5fef55e628823a0076ec12ee","601f4758011c834a68bb5fe2","Mozilla/5.0 (Windows NT 10.0; Win64; x64) AppleWebKit/537.36 (KHTML, like Gecko) Chrome/87.0.4280.141 Safari/537.36","v1","","","","","","","","-80,-70,-60,-50,-40","media/audio/stims/spherical_300cm_s20_c20_cd-full_matched_a-50.wav","spherical","20","20","full","matched","-50","-80","1135"
"echo-presentation","66","579633","0.0-66.0","5d8cef3c28e183001a335ab0","5fef55e628823a0076ec12ee","601f4758011c834a68bb5fe2","Mozilla/5.0 (Windows NT 10.0; Win64; x64) AppleWebKit/537.36 (KHTML, like Gecko) Chrome/87.0.4280.141 Safari/537.36","v1","","","","","","","","-80,-70,-60,-50,-40","media/audio/stims/spherical_300cm_s20_c20_cd-full_matched_a-70.wav","spherical","20","20","full","matched","-70","-80","1508"
"echo-presentation","67","581484","0.0-67.0","5d8cef3c28e183001a335ab0","5fef55e628823a0076ec12ee","601f4758011c834a68bb5fe2","Mozilla/5.0 (Windows NT 10.0; Win64; x64) AppleWebKit/537.36 (KHTML, like Gecko) Chrome/87.0.4280.141 Safari/537.36","v1","","","","","","","","-80,-70,-60,-50,-40","media/audio/stims/spherical_300cm_s20_c20_cd-full_matched_a-70.wav","spherical","20","20","full","matched","-70","-70","1110"
"echo-presentation","68","583867","0.0-68.0","5d8cef3c28e183001a335ab0","5fef55e628823a0076ec12ee","601f4758011c834a68bb5fe2","Mozilla/5.0 (Windows NT 10.0; Win64; x64) AppleWebKit/537.36 (KHTML, like Gecko) Chrome/87.0.4280.141 Safari/537.36","v1","","","","","","","","-80,-70,-60,-50,-40","media/audio/stims/spherical_300cm_s20_c20_cd-full_matched_a-70.wav","spherical","20","20","full","matched","-70","-60","1611"
"echo-presentation","69","586504","0.0-69.0","5d8cef3c28e183001a335ab0","5fef55e628823a0076ec12ee","601f4758011c834a68bb5fe2","Mozilla/5.0 (Windows NT 10.0; Win64; x64) AppleWebKit/537.36 (KHTML, like Gecko) Chrome/87.0.4280.141 Safari/537.36","v1","","","","","","","","-80,-70,-60,-50,-40","media/audio/stims/spherical_300cm_s20_c20_cd-full_matched_a-60.wav","spherical","20","20","full","matched","-60","-50","1773"
"echo-presentation","70","588698","0.0-70.0","5d8cef3c28e183001a335ab0","5fef55e628823a0076ec12ee","601f4758011c834a68bb5fe2","Mozilla/5.0 (Windows NT 10.0; Win64; x64) AppleWebKit/537.36 (KHTML, like Gecko) Chrome/87.0.4280.141 Safari/537.36","v1","","","","","","","","-80,-70,-60,-50,-40","media/audio/stims/spherical_300cm_s20_c20_cd-full_matched_a-60.wav","spherical","20","20","full","matched","-60","-40","1521"
"echo-presentation","71","591057","0.0-71.0","5d8cef3c28e183001a335ab0","5fef55e628823a0076ec12ee","601f4758011c834a68bb5fe2","Mozilla/5.0 (Windows NT 10.0; Win64; x64) AppleWebKit/537.36 (KHTML, like Gecko) Chrome/87.0.4280.141 Safari/537.36","v1","","","","","","","","-80,-70,-60,-50,-40","media/audio/stims/spherical_300cm_s20_c20_cd-full_matched_a-80.wav","spherical","20","20","full","matched","-80","-40","1051"
"block-bookend","72","593425","0.0-72.0","5d8cef3c28e183001a335ab0","5fef55e628823a0076ec12ee","601f4758011c834a68bb5fe2","Mozilla/5.0 (Windows NT 10.0; Win64; x64) AppleWebKit/537.36 (KHTML, like Gecko) Chrome/87.0.4280.141 Safari/537.36","v1","","","","","","","","","","","","","","","","",""
"block-bookend","73","606391","0.0-73.0","5d8cef3c28e183001a335ab0","5fef55e628823a0076ec12ee","601f4758011c834a68bb5fe2","Mozilla/5.0 (Windows NT 10.0; Win64; x64) AppleWebKit/537.36 (KHTML, like Gecko) Chrome/87.0.4280.141 Safari/537.36","v1","","","","","","","","","","","","","","","","",""
"echo-presentation","74","610799","0.0-74.0","5d8cef3c28e183001a335ab0","5fef55e628823a0076ec12ee","601f4758011c834a68bb5fe2","Mozilla/5.0 (Windows NT 10.0; Win64; x64) AppleWebKit/537.36 (KHTML, like Gecko) Chrome/87.0.4280.141 Safari/537.36","v1","","","","","","","","-80,-70,-60,-50,-40","media/audio/stims/spherical_300cm_s20_c20_cd-full_matched_a-80.wav","spherical","20","20","full","matched","-80","-80","2231"
"echo-presentation","75","613498","0.0-75.0","5d8cef3c28e183001a335ab0","5fef55e628823a0076ec12ee","601f4758011c834a68bb5fe2","Mozilla/5.0 (Windows NT 10.0; Win64; x64) AppleWebKit/537.36 (KHTML, like Gecko) Chrome/87.0.4280.141 Safari/537.36","v1","","","","","","","","-80,-70,-60,-50,-40","media/audio/stims/spherical_300cm_s20_c20_cd-full_matched_a-60.wav","spherical","20","20","full","matched","-60","-60","1688"
"echo-presentation","76","616110","0.0-76.0","5d8cef3c28e183001a335ab0","5fef55e628823a0076ec12ee","601f4758011c834a68bb5fe2","Mozilla/5.0 (Windows NT 10.0; Win64; x64) AppleWebKit/537.36 (KHTML, like Gecko) Chrome/87.0.4280.141 Safari/537.36","v1","","","","","","","","-80,-70,-60,-50,-40","media/audio/stims/spherical_300cm_s20_c20_cd-full_matched_a-40.wav","spherical","20","20","full","matched","-40","-50","1735"
"echo-presentation","77","618284","0.0-77.0","5d8cef3c28e183001a335ab0","5fef55e628823a0076ec12ee","601f4758011c834a68bb5fe2","Mozilla/5.0 (Windows NT 10.0; Win64; x64) AppleWebKit/537.36 (KHTML, like Gecko) Chrome/87.0.4280.141 Safari/537.36","v1","","","","","","","","-80,-70,-60,-50,-40","media/audio/stims/spherical_300cm_s20_c20_cd-full_matched_a-40.wav","spherical","20","20","full","matched","-40","-40","1533"
"echo-presentation","78","621192","0.0-78.0","5d8cef3c28e183001a335ab0","5fef55e628823a0076ec12ee","601f4758011c834a68bb5fe2","Mozilla/5.0 (Windows NT 10.0; Win64; x64) AppleWebKit/537.36 (KHTML, like Gecko) Chrome/87.0.4280.141 Safari/537.36","v1","","","","","","","","-80,-70,-60,-50,-40","media/audio/stims/spherical_300cm_s20_c20_cd-full_matched_a-70.wav","spherical","20","20","full","matched","-70","-60","1740"
"echo-presentation","79","625058","0.0-79.0","5d8cef3c28e183001a335ab0","5fef55e628823a0076ec12ee","601f4758011c834a68bb5fe2","Mozilla/5.0 (Windows NT 10.0; Win64; x64) AppleWebKit/537.36 (KHTML, like Gecko) Chrome/87.0.4280.141 Safari/537.36","v1","","","","","","","","-80,-70,-60,-50,-40","media/audio/stims/spherical_300cm_s20_c20_cd-full_matched_a-60.wav","spherical","20","20","full","matched","-60","-70","1423"
"echo-presentation","80","627160","0.0-80.0","5d8cef3c28e183001a335ab0","5fef55e628823a0076ec12ee","601f4758011c834a68bb5fe2","Mozilla/5.0 (Windows NT 10.0; Win64; x64) AppleWebKit/537.36 (KHTML, like Gecko) Chrome/87.0.4280.141 Safari/537.36","v1","","","","","","","","-80,-70,-60,-50,-40","media/audio/stims/spherical_300cm_s20_c20_cd-full_matched_a-40.wav","spherical","20","20","full","matched","-40","-80","1172"
"echo-presentation","81","629867","0.0-81.0","5d8cef3c28e183001a335ab0","5fef55e628823a0076ec12ee","601f4758011c834a68bb5fe2","Mozilla/5.0 (Windows NT 10.0; Win64; x64) AppleWebKit/537.36 (KHTML, like Gecko) Chrome/87.0.4280.141 Safari/537.36","v1","","","","","","","","-80,-70,-60,-50,-40","media/audio/stims/spherical_300cm_s20_c20_cd-full_matched_a-80.wav","spherical","20","20","full","matched","-80","-60","1656"
"echo-presentation","82","632885","0.0-82.0","5d8cef3c28e183001a335ab0","5fef55e628823a0076ec12ee","601f4758011c834a68bb5fe2","Mozilla/5.0 (Windows NT 10.0; Win64; x64) AppleWebKit/537.36 (KHTML, like Gecko) Chrome/87.0.4280.141 Safari/537.36","v1","","","","","","","","-80,-70,-60,-50,-40","media/audio/stims/spherical_300cm_s20_c20_cd-full_matched_a-70.wav","spherical","20","20","full","matched","-70","-50","2103"
"echo-presentation","83","634485","0.0-83.0","5d8cef3c28e183001a335ab0","5fef55e628823a0076ec12ee","601f4758011c834a68bb5fe2","Mozilla/5.0 (Windows NT 10.0; Win64; x64) AppleWebKit/537.36 (KHTML, like Gecko) Chrome/87.0.4280.141 Safari/537.36","v1","","","","","","","","-80,-70,-60,-50,-40","media/audio/stims/spherical_300cm_s20_c20_cd-full_matched_a-80.wav","spherical","20","20","full","matched","-80","-40","1013"
"echo-presentation","84","636467","0.0-84.0","5d8cef3c28e183001a335ab0","5fef55e628823a0076ec12ee","601f4758011c834a68bb5fe2","Mozilla/5.0 (Windows NT 10.0; Win64; x64) AppleWebKit/537.36 (KHTML, like Gecko) Chrome/87.0.4280.141 Safari/537.36","v1","","","","","","","","-80,-70,-60,-50,-40","media/audio/stims/spherical_300cm_s20_c20_cd-full_matched_a-50.wav","spherical","20","20","full","matched","-50","-40","925"
"echo-presentation","85","638967","0.0-85.0","5d8cef3c28e183001a335ab0","5fef55e628823a0076ec12ee","601f4758011c834a68bb5fe2","Mozilla/5.0 (Windows NT 10.0; Win64; x64) AppleWebKit/537.36 (KHTML, like Gecko) Chrome/87.0.4280.141 Safari/537.36","v1","","","","","","","","-80,-70,-60,-50,-40","media/audio/stims/spherical_300cm_s20_c20_cd-full_matched_a-50.wav","spherical","20","20","full","matched","-50","-40","1706"
"echo-presentation","86","641234","0.0-86.0","5d8cef3c28e183001a335ab0","5fef55e628823a0076ec12ee","601f4758011c834a68bb5fe2","Mozilla/5.0 (Windows NT 10.0; Win64; x64) AppleWebKit/537.36 (KHTML, like Gecko) Chrome/87.0.4280.141 Safari/537.36","v1","","","","","","","","-80,-70,-60,-50,-40","media/audio/stims/spherical_300cm_s20_c20_cd-full_matched_a-60.wav","spherical","20","20","full","matched","-60","-50","1651"
"echo-presentation","87","645605","0.0-87.0","5d8cef3c28e183001a335ab0","5fef55e628823a0076ec12ee","601f4758011c834a68bb5fe2","Mozilla/5.0 (Windows NT 10.0; Win64; x64) AppleWebKit/537.36 (KHTML, like Gecko) Chrome/87.0.4280.141 Safari/537.36","v1","","","","","","","","-80,-70,-60,-50,-40","media/audio/stims/spherical_300cm_s20_c20_cd-full_matched_a-60.wav","spherical","20","20","full","matched","-60","-60","1630"
"echo-presentation","88","649235","0.0-88.0","5d8cef3c28e183001a335ab0","5fef55e628823a0076ec12ee","601f4758011c834a68bb5fe2","Mozilla/5.0 (Windows NT 10.0; Win64; x64) AppleWebKit/537.36 (KHTML, like Gecko) Chrome/87.0.4280.141 Safari/537.36","v1","","","","","","","","-80,-70,-60,-50,-40","media/audio/stims/spherical_300cm_s20_c20_cd-full_matched_a-50.wav","spherical","20","20","full","matched","-50","-60","1618"
"echo-presentation","89","651699","0.0-89.0","5d8cef3c28e183001a335ab0","5fef55e628823a0076ec12ee","601f4758011c834a68bb5fe2","Mozilla/5.0 (Windows NT 10.0; Win64; x64) AppleWebKit/537.36 (KHTML, like Gecko) Chrome/87.0.4280.141 Safari/537.36","v1","","","","","","","","-80,-70,-60,-50,-40","media/audio/stims/spherical_300cm_s20_c20_cd-full_matched_a-70.wav","spherical","20","20","full","matched","-70","-70","1592"
"echo-presentation","90","655420","0.0-90.0","5d8cef3c28e183001a335ab0","5fef55e628823a0076ec12ee","601f4758011c834a68bb5fe2","Mozilla/5.0 (Windows NT 10.0; Win64; x64) AppleWebKit/537.36 (KHTML, like Gecko) Chrome/87.0.4280.141 Safari/537.36","v1","","","","","","","","-80,-70,-60,-50,-40","media/audio/stims/spherical_300cm_s20_c20_cd-full_matched_a-80.wav","spherical","20","20","full","matched","-80","-70","1558"
"echo-presentation","91","658926","0.0-91.0","5d8cef3c28e183001a335ab0","5fef55e628823a0076ec12ee","601f4758011c834a68bb5fe2","Mozilla/5.0 (Windows NT 10.0; Win64; x64) AppleWebKit/537.36 (KHTML, like Gecko) Chrome/87.0.4280.141 Safari/537.36","v1","","","","","","","","-80,-70,-60,-50,-40","media/audio/stims/spherical_300cm_s20_c20_cd-full_matched_a-50.wav","spherical","20","20","full","matched","-50","-70","1567"
"echo-presentation","92","664549","0.0-92.0","5d8cef3c28e183001a335ab0","5fef55e628823a0076ec12ee","601f4758011c834a68bb5fe2","Mozilla/5.0 (Windows NT 10.0; Win64; x64) AppleWebKit/537.36 (KHTML, like Gecko) Chrome/87.0.4280.141 Safari/537.36","v1","","","","","","","","-80,-70,-60,-50,-40","media/audio/stims/spherical_300cm_s20_c20_cd-full_matched_a-40.wav","spherical","20","20","full","matched","-40","-80","4674"
"echo-presentation","93","667487","0.0-93.0","5d8cef3c28e183001a335ab0","5fef55e628823a0076ec12ee","601f4758011c834a68bb5fe2","Mozilla/5.0 (Windows NT 10.0; Win64; x64) AppleWebKit/537.36 (KHTML, like Gecko) Chrome/87.0.4280.141 Safari/537.36","v1","","","","","","","","-80,-70,-60,-50,-40","media/audio/stims/spherical_300cm_s20_c20_cd-full_matched_a-70.wav","spherical","20","20","full","matched","-70","-80","1234"
"block-bookend","94","673455","0.0-94.0","5d8cef3c28e183001a335ab0","5fef55e628823a0076ec12ee","601f4758011c834a68bb5fe2","Mozilla/5.0 (Windows NT 10.0; Win64; x64) AppleWebKit/537.36 (KHTML, like Gecko) Chrome/87.0.4280.141 Safari/537.36","v1","","","","","","","","","","","","","","","","",""
"block-bookend","95","680145","0.0-95.0","5d8cef3c28e183001a335ab0","5fef55e628823a0076ec12ee","601f4758011c834a68bb5fe2","Mozilla/5.0 (Windows NT 10.0; Win64; x64) AppleWebKit/537.36 (KHTML, like Gecko) Chrome/87.0.4280.141 Safari/537.36","v1","","","","","","","","","","","","","","","","",""
"echo-presentation","96","685670","0.0-96.0","5d8cef3c28e183001a335ab0","5fef55e628823a0076ec12ee","601f4758011c834a68bb5fe2","Mozilla/5.0 (Windows NT 10.0; Win64; x64) AppleWebKit/537.36 (KHTML, like Gecko) Chrome/87.0.4280.141 Safari/537.36","v1","","","","","","","","-20,-10,0,10,20","media/audio/stims/spherical_300cm_s20_c20_cd-full_matched_a0.wav","spherical","20","20","full","matched","0","-10","2828"
"echo-presentation","97","689217","0.0-97.0","5d8cef3c28e183001a335ab0","5fef55e628823a0076ec12ee","601f4758011c834a68bb5fe2","Mozilla/5.0 (Windows NT 10.0; Win64; x64) AppleWebKit/537.36 (KHTML, like Gecko) Chrome/87.0.4280.141 Safari/537.36","v1","","","","","","","","-20,-10,0,10,20","media/audio/stims/spherical_300cm_s20_c20_cd-full_matched_a-10.wav","spherical","20","20","full","matched","-10","0","1760"
"echo-presentation","98","691292","0.0-98.0","5d8cef3c28e183001a335ab0","5fef55e628823a0076ec12ee","601f4758011c834a68bb5fe2","Mozilla/5.0 (Windows NT 10.0; Win64; x64) AppleWebKit/537.36 (KHTML, like Gecko) Chrome/87.0.4280.141 Safari/537.36","v1","","","","","","","","-20,-10,0,10,20","media/audio/stims/spherical_300cm_s20_c20_cd-full_matched_a-20.wav","spherical","20","20","full","matched","-20","0","1377"
"echo-presentation","99","693576","0.0-99.0","5d8cef3c28e183001a335ab0","5fef55e628823a0076ec12ee","601f4758011c834a68bb5fe2","Mozilla/5.0 (Windows NT 10.0; Win64; x64) AppleWebKit/537.36 (KHTML, like Gecko) Chrome/87.0.4280.141 Safari/537.36","v1","","","","","","","","-20,-10,0,10,20","media/audio/stims/spherical_300cm_s20_c20_cd-full_matched_a-10.wav","spherical","20","20","full","matched","-10","-10","1696"
"echo-presentation","100","695798","0.0-100.0","5d8cef3c28e183001a335ab0","5fef55e628823a0076ec12ee","601f4758011c834a68bb5fe2","Mozilla/5.0 (Windows NT 10.0; Win64; x64) AppleWebKit/537.36 (KHTML, like Gecko) Chrome/87.0.4280.141 Safari/537.36","v1","","","","","","","","-20,-10,0,10,20","media/audio/stims/spherical_300cm_s20_c20_cd-full_matched_a-10.wav","spherical","20","20","full","matched","-10","0","1620"
"echo-presentation","101","698145","0.0-101.0","5d8cef3c28e183001a335ab0","5fef55e628823a0076ec12ee","601f4758011c834a68bb5fe2","Mozilla/5.0 (Windows NT 10.0; Win64; x64) AppleWebKit/537.36 (KHTML, like Gecko) Chrome/87.0.4280.141 Safari/537.36","v1","","","","","","","","-20,-10,0,10,20","media/audio/stims/spherical_300cm_s20_c20_cd-full_matched_a20.wav","spherical","20","20","full","matched","20","10","1629"
"echo-presentation","102","700225","0.0-102.0","5d8cef3c28e183001a335ab0","5fef55e628823a0076ec12ee","601f4758011c834a68bb5fe2","Mozilla/5.0 (Windows NT 10.0; Win64; x64) AppleWebKit/537.36 (KHTML, like Gecko) Chrome/87.0.4280.141 Safari/537.36","v1","","","","","","","","-20,-10,0,10,20","media/audio/stims/spherical_300cm_s20_c20_cd-full_matched_a0.wav","spherical","20","20","full","matched","0","10","1474"
"echo-presentation","103","702163","0.0-103.0","5d8cef3c28e183001a335ab0","5fef55e628823a0076ec12ee","601f4758011c834a68bb5fe2","Mozilla/5.0 (Windows NT 10.0; Win64; x64) AppleWebKit/537.36 (KHTML, like Gecko) Chrome/87.0.4280.141 Safari/537.36","v1","","","","","","","","-20,-10,0,10,20","media/audio/stims/spherical_300cm_s20_c20_cd-full_matched_a0.wav","spherical","20","20","full","matched","0","20","1403"
"echo-presentation","104","704562","0.0-104.0","5d8cef3c28e183001a335ab0","5fef55e628823a0076ec12ee","601f4758011c834a68bb5fe2","Mozilla/5.0 (Windows NT 10.0; Win64; x64) AppleWebKit/537.36 (KHTML, like Gecko) Chrome/87.0.4280.141 Safari/537.36","v1","","","","","","","","-20,-10,0,10,20","media/audio/stims/spherical_300cm_s20_c20_cd-full_matched_a20.wav","spherical","20","20","full","matched","20","20","1353"
"echo-presentation","105","707248","0.0-105.0","5d8cef3c28e183001a335ab0","5fef55e628823a0076ec12ee","601f4758011c834a68bb5fe2","Mozilla/5.0 (Windows NT 10.0; Win64; x64) AppleWebKit/537.36 (KHTML, like Gecko) Chrome/87.0.4280.141 Safari/537.36","v1","","","","","","","","-20,-10,0,10,20","media/audio/stims/spherical_300cm_s20_c20_cd-full_matched_a0.wav","spherical","20","20","full","matched","0","10","1794"
"echo-presentation","106","709752","0.0-106.0","5d8cef3c28e183001a335ab0","5fef55e628823a0076ec12ee","601f4758011c834a68bb5fe2","Mozilla/5.0 (Windows NT 10.0; Win64; x64) AppleWebKit/537.36 (KHTML, like Gecko) Chrome/87.0.4280.141 Safari/537.36","v1","","","","","","","","-20,-10,0,10,20","media/audio/stims/spherical_300cm_s20_c20_cd-full_matched_a-20.wav","spherical","20","20","full","matched","-20","0","1860"
"echo-presentation","107","711803","0.0-107.0","5d8cef3c28e183001a335ab0","5fef55e628823a0076ec12ee","601f4758011c834a68bb5fe2","Mozilla/5.0 (Windows NT 10.0; Win64; x64) AppleWebKit/537.36 (KHTML, like Gecko) Chrome/87.0.4280.141 Safari/537.36","v1","","","","","","","","-20,-10,0,10,20","media/audio/stims/spherical_300cm_s20_c20_cd-full_matched_a10.wav","spherical","20","20","full","matched","10","0","1370"
"echo-presentation","108","713988","0.0-108.0","5d8cef3c28e183001a335ab0","5fef55e628823a0076ec12ee","601f4758011c834a68bb5fe2","Mozilla/5.0 (Windows NT 10.0; Win64; x64) AppleWebKit/537.36 (KHTML, like Gecko) Chrome/87.0.4280.141 Safari/537.36","v1","","","","","","","","-20,-10,0,10,20","media/audio/stims/spherical_300cm_s20_c20_cd-full_matched_a10.wav","spherical","20","20","full","matched","10","0","1409"
"echo-presentation","109","716840","0.0-109.0","5d8cef3c28e183001a335ab0","5fef55e628823a0076ec12ee","601f4758011c834a68bb5fe2","Mozilla/5.0 (Windows NT 10.0; Win64; x64) AppleWebKit/537.36 (KHTML, like Gecko) Chrome/87.0.4280.141 Safari/537.36","v1","","","","","","","","-20,-10,0,10,20","media/audio/stims/spherical_300cm_s20_c20_cd-full_matched_a-10.wav","spherical","20","20","full","matched","-10","10","2150"
"echo-presentation","110","720285","0.0-110.0","5d8cef3c28e183001a335ab0","5fef55e628823a0076ec12ee","601f4758011c834a68bb5fe2","Mozilla/5.0 (Windows NT 10.0; Win64; x64) AppleWebKit/537.36 (KHTML, like Gecko) Chrome/87.0.4280.141 Safari/537.36","v1","","","","","","","","-20,-10,0,10,20","media/audio/stims/spherical_300cm_s20_c20_cd-full_matched_a10.wav","spherical","20","20","full","matched","10","10","2909"
"echo-presentation","111","722587","0.0-111.0","5d8cef3c28e183001a335ab0","5fef55e628823a0076ec12ee","601f4758011c834a68bb5fe2","Mozilla/5.0 (Windows NT 10.0; Win64; x64) AppleWebKit/537.36 (KHTML, like Gecko) Chrome/87.0.4280.141 Safari/537.36","v1","","","","","","","","-20,-10,0,10,20","media/audio/stims/spherical_300cm_s20_c20_cd-full_matched_a-20.wav","spherical","20","20","full","matched","-20","0","1778"
"echo-presentation","112","725170","0.0-112.0","5d8cef3c28e183001a335ab0","5fef55e628823a0076ec12ee","601f4758011c834a68bb5fe2","Mozilla/5.0 (Windows NT 10.0; Win64; x64) AppleWebKit/537.36 (KHTML, like Gecko) Chrome/87.0.4280.141 Safari/537.36","v1","","","","","","","","-20,-10,0,10,20","media/audio/stims/spherical_300cm_s20_c20_cd-full_matched_a10.wav","spherical","20","20","full","matched","10","-10","1880"
"echo-presentation","113","727152","0.0-113.0","5d8cef3c28e183001a335ab0","5fef55e628823a0076ec12ee","601f4758011c834a68bb5fe2","Mozilla/5.0 (Windows NT 10.0; Win64; x64) AppleWebKit/537.36 (KHTML, like Gecko) Chrome/87.0.4280.141 Safari/537.36","v1","","","","","","","","-20,-10,0,10,20","media/audio/stims/spherical_300cm_s20_c20_cd-full_matched_a-20.wav","spherical","20","20","full","matched","-20","-10","1353"
"echo-presentation","114","729265","0.0-114.0","5d8cef3c28e183001a335ab0","5fef55e628823a0076ec12ee","601f4758011c834a68bb5fe2","Mozilla/5.0 (Windows NT 10.0; Win64; x64) AppleWebKit/537.36 (KHTML, like Gecko) Chrome/87.0.4280.141 Safari/537.36","v1","","","","","","","","-20,-10,0,10,20","media/audio/stims/spherical_300cm_s20_c20_cd-full_matched_a20.wav","spherical","20","20","full","matched","20","0","1563"
"echo-presentation","115","731755","0.0-115.0","5d8cef3c28e183001a335ab0","5fef55e628823a0076ec12ee","601f4758011c834a68bb5fe2","Mozilla/5.0 (Windows NT 10.0; Win64; x64) AppleWebKit/537.36 (KHTML, like Gecko) Chrome/87.0.4280.141 Safari/537.36","v1","","","","","","","","-20,-10,0,10,20","media/audio/stims/spherical_300cm_s20_c20_cd-full_matched_a20.wav","spherical","20","20","full","matched","20","0","1412"
"block-bookend","116","735301","0.0-116.0","5d8cef3c28e183001a335ab0","5fef55e628823a0076ec12ee","601f4758011c834a68bb5fe2","Mozilla/5.0 (Windows NT 10.0; Win64; x64) AppleWebKit/537.36 (KHTML, like Gecko) Chrome/87.0.4280.141 Safari/537.36","v1","","","","","","","","","","","","","","","","",""
"block-bookend","117","755050","0.0-117.0","5d8cef3c28e183001a335ab0","5fef55e628823a0076ec12ee","601f4758011c834a68bb5fe2","Mozilla/5.0 (Windows NT 10.0; Win64; x64) AppleWebKit/537.36 (KHTML, like Gecko) Chrome/87.0.4280.141 Safari/537.36","v1","","","","","","","","","","","","","","","","",""
"echo-presentation","118","760014","0.0-118.0","5d8cef3c28e183001a335ab0","5fef55e628823a0076ec12ee","601f4758011c834a68bb5fe2","Mozilla/5.0 (Windows NT 10.0; Win64; x64) AppleWebKit/537.36 (KHTML, like Gecko) Chrome/87.0.4280.141 Safari/537.36","v1","","","","","","","","-20,-10,0,10,20","media/audio/stims/spherical_300cm_s20_c20_cd-full_matched_a0.wav","spherical","20","20","full","matched","0","-20","1714"
"echo-presentation","119","762332","0.0-119.0","5d8cef3c28e183001a335ab0","5fef55e628823a0076ec12ee","601f4758011c834a68bb5fe2","Mozilla/5.0 (Windows NT 10.0; Win64; x64) AppleWebKit/537.36 (KHTML, like Gecko) Chrome/87.0.4280.141 Safari/537.36","v1","","","","","","","","-20,-10,0,10,20","media/audio/stims/spherical_300cm_s20_c20_cd-full_matched_a0.wav","spherical","20","20","full","matched","0","-20","1527"
"echo-presentation","120","764753","0.0-120.0","5d8cef3c28e183001a335ab0","5fef55e628823a0076ec12ee","601f4758011c834a68bb5fe2","Mozilla/5.0 (Windows NT 10.0; Win64; x64) AppleWebKit/537.36 (KHTML, like Gecko) Chrome/87.0.4280.141 Safari/537.36","v1","","","","","","","","-20,-10,0,10,20","media/audio/stims/spherical_300cm_s20_c20_cd-full_matched_a-10.wav","spherical","20","20","full","matched","-10","-20","1771"
"echo-presentation","121","766716","0.0-121.0","5d8cef3c28e183001a335ab0","5fef55e628823a0076ec12ee","601f4758011c834a68bb5fe2","Mozilla/5.0 (Windows NT 10.0; Win64; x64) AppleWebKit/537.36 (KHTML, like Gecko) Chrome/87.0.4280.141 Safari/537.36","v1","","","","","","","","-20,-10,0,10,20","media/audio/stims/spherical_300cm_s20_c20_cd-full_matched_a-20.wav","spherical","20","20","full","matched","-20","-20","1327"
"echo-presentation","122","768529","0.0-122.0","5d8cef3c28e183001a335ab0","5fef55e628823a0076ec12ee","601f4758011c834a68bb5fe2","Mozilla/5.0 (Windows NT 10.0; Win64; x64) AppleWebKit/537.36 (KHTML, like Gecko) Chrome/87.0.4280.141 Safari/537.36","v1","","","","","","","","-20,-10,0,10,20","media/audio/stims/spherical_300cm_s20_c20_cd-full_matched_a-10.wav","spherical","20","20","full","matched","-10","-10","1210"
"echo-presentation","123","770688","0.0-123.0","5d8cef3c28e183001a335ab0","5fef55e628823a0076ec12ee","601f4758011c834a68bb5fe2","Mozilla/5.0 (Windows NT 10.0; Win64; x64) AppleWebKit/537.36 (KHTML, like Gecko) Chrome/87.0.4280.141 Safari/537.36","v1","","","","","","","","-20,-10,0,10,20","media/audio/stims/spherical_300cm_s20_c20_cd-full_matched_a10.wav","spherical","20","20","full","matched","10","-10","1520"
"echo-presentation","124","772571","0.0-124.0","5d8cef3c28e183001a335ab0","5fef55e628823a0076ec12ee","601f4758011c834a68bb5fe2","Mozilla/5.0 (Windows NT 10.0; Win64; x64) AppleWebKit/537.36 (KHTML, like Gecko) Chrome/87.0.4280.141 Safari/537.36","v1","","","","","","","","-20,-10,0,10,20","media/audio/stims/spherical_300cm_s20_c20_cd-full_matched_a-10.wav","spherical","20","20","full","matched","-10","-10","1242"
"echo-presentation","125","774491","0.0-125.0","5d8cef3c28e183001a335ab0","5fef55e628823a0076ec12ee","601f4758011c834a68bb5fe2","Mozilla/5.0 (Windows NT 10.0; Win64; x64) AppleWebKit/537.36 (KHTML, like Gecko) Chrome/87.0.4280.141 Safari/537.36","v1","","","","","","","","-20,-10,0,10,20","media/audio/stims/spherical_300cm_s20_c20_cd-full_matched_a-20.wav","spherical","20","20","full","matched","-20","-10","1352"
"echo-presentation","126","776451","0.0-126.0","5d8cef3c28e183001a335ab0","5fef55e628823a0076ec12ee","601f4758011c834a68bb5fe2","Mozilla/5.0 (Windows NT 10.0; Win64; x64) AppleWebKit/537.36 (KHTML, like Gecko) Chrome/87.0.4280.141 Safari/537.36","v1","","","","","","","","-20,-10,0,10,20","media/audio/stims/spherical_300cm_s20_c20_cd-full_matched_a20.wav","spherical","20","20","full","matched","20","0","1423"
"echo-presentation","127","778382","0.0-127.0","5d8cef3c28e183001a335ab0","5fef55e628823a0076ec12ee","601f4758011c834a68bb5fe2","Mozilla/5.0 (Windows NT 10.0; Win64; x64) AppleWebKit/537.36 (KHTML, like Gecko) Chrome/87.0.4280.141 Safari/537.36","v1","","","","","","","","-20,-10,0,10,20","media/audio/stims/spherical_300cm_s20_c20_cd-full_matched_a10.wav","spherical","20","20","full","matched","10","0","1389"
"echo-presentation","128","780076","0.0-128.0","5d8cef3c28e183001a335ab0","5fef55e628823a0076ec12ee","601f4758011c834a68bb5fe2","Mozilla/5.0 (Windows NT 10.0; Win64; x64) AppleWebKit/537.36 (KHTML, like Gecko) Chrome/87.0.4280.141 Safari/537.36","v1","","","","","","","","-20,-10,0,10,20","media/audio/stims/spherical_300cm_s20_c20_cd-full_matched_a20.wav","spherical","20","20","full","matched","20","0","1134"
"echo-presentation","129","782182","0.0-129.0","5d8cef3c28e183001a335ab0","5fef55e628823a0076ec12ee","601f4758011c834a68bb5fe2","Mozilla/5.0 (Windows NT 10.0; Win64; x64) AppleWebKit/537.36 (KHTML, like Gecko) Chrome/87.0.4280.141 Safari/537.36","v1","","","","","","","","-20,-10,0,10,20","media/audio/stims/spherical_300cm_s20_c20_cd-full_matched_a20.wav","spherical","20","20","full","matched","20","10","1457"
"echo-presentation","130","784232","0.0-130.0","5d8cef3c28e183001a335ab0","5fef55e628823a0076ec12ee","601f4758011c834a68bb5fe2","Mozilla/5.0 (Windows NT 10.0; Win64; x64) AppleWebKit/537.36 (KHTML, like Gecko) Chrome/87.0.4280.141 Safari/537.36","v1","","","","","","","","-20,-10,0,10,20","media/audio/stims/spherical_300cm_s20_c20_cd-full_matched_a-10.wav","spherical","20","20","full","matched","-10","10","1361"
"echo-presentation","131","785971","0.0-131.0","5d8cef3c28e183001a335ab0","5fef55e628823a0076ec12ee","601f4758011c834a68bb5fe2","Mozilla/5.0 (Windows NT 10.0; Win64; x64) AppleWebKit/537.36 (KHTML, like Gecko) Chrome/87.0.4280.141 Safari/537.36","v1","","","","","","","","-20,-10,0,10,20","media/audio/stims/spherical_300cm_s20_c20_cd-full_matched_a0.wav","spherical","20","20","full","matched","0","10","1223"
"echo-presentation","132","788939","0.0-132.0","5d8cef3c28e183001a335ab0","5fef55e628823a0076ec12ee","601f4758011c834a68bb5fe2","Mozilla/5.0 (Windows NT 10.0; Win64; x64) AppleWebKit/537.36 (KHTML, like Gecko) Chrome/87.0.4280.141 Safari/537.36","v1","","","","","","","","-20,-10,0,10,20","media/audio/stims/spherical_300cm_s20_c20_cd-full_matched_a10.wav","spherical","20","20","full","matched","10","0","1536"
"echo-presentation","133","791031","0.0-133.0","5d8cef3c28e183001a335ab0","5fef55e628823a0076ec12ee","601f4758011c834a68bb5fe2","Mozilla/5.0 (Windows NT 10.0; Win64; x64) AppleWebKit/537.36 (KHTML, like Gecko) Chrome/87.0.4280.141 Safari/537.36","v1","","","","","","","","-20,-10,0,10,20","media/audio/stims/spherical_300cm_s20_c20_cd-full_matched_a-20.wav","spherical","20","20","full","matched","-20","0","1513"
"echo-presentation","134","793832","0.0-134.0","5d8cef3c28e183001a335ab0","5fef55e628823a0076ec12ee","601f4758011c834a68bb5fe2","Mozilla/5.0 (Windows NT 10.0; Win64; x64) AppleWebKit/537.36 (KHTML, like Gecko) Chrome/87.0.4280.141 Safari/537.36","v1","","","","","","","","-20,-10,0,10,20","media/audio/stims/spherical_300cm_s20_c20_cd-full_matched_a20.wav","spherical","20","20","full","matched","20","0","2135"
"echo-presentation","135","796308","0.0-135.0","5d8cef3c28e183001a335ab0","5fef55e628823a0076ec12ee","601f4758011c834a68bb5fe2","Mozilla/5.0 (Windows NT 10.0; Win64; x64) AppleWebKit/537.36 (KHTML, like Gecko) Chrome/87.0.4280.141 Safari/537.36","v1","","","","","","","","-20,-10,0,10,20","media/audio/stims/spherical_300cm_s20_c20_cd-full_matched_a10.wav","spherical","20","20","full","matched","10","10","1939"
"echo-presentation","136","799211","0.0-136.0","5d8cef3c28e183001a335ab0","5fef55e628823a0076ec12ee","601f4758011c834a68bb5fe2","Mozilla/5.0 (Windows NT 10.0; Win64; x64) AppleWebKit/537.36 (KHTML, like Gecko) Chrome/87.0.4280.141 Safari/537.36","v1","","","","","","","","-20,-10,0,10,20","media/audio/stims/spherical_300cm_s20_c20_cd-full_matched_a0.wav","spherical","20","20","full","matched","0","0","1452"
"echo-presentation","137","803683","0.0-137.0","5d8cef3c28e183001a335ab0","5fef55e628823a0076ec12ee","601f4758011c834a68bb5fe2","Mozilla/5.0 (Windows NT 10.0; Win64; x64) AppleWebKit/537.36 (KHTML, like Gecko) Chrome/87.0.4280.141 Safari/537.36","v1","","","","","","","","-20,-10,0,10,20","media/audio/stims/spherical_300cm_s20_c20_cd-full_matched_a-20.wav","spherical","20","20","full","matched","-20","0","1464"
"block-bookend","138","805995","0.0-138.0","5d8cef3c28e183001a335ab0","5fef55e628823a0076ec12ee","601f4758011c834a68bb5fe2","Mozilla/5.0 (Windows NT 10.0; Win64; x64) AppleWebKit/537.36 (KHTML, like Gecko) Chrome/87.0.4280.141 Safari/537.36","v1","","","","","","","","","","","","","","","","",""
