"trial_type","trial_index","time_elapsed","internal_node_id","prolificPid","studyId","sessionId","userAgent","version","rt","stimulus","key_press","chosenKeyset","failureCount","testIndex","globalVolume","choices","filename","modelName","slowdown","compensation","compensationDescriptor","receiverOrientationType","azimuth","responseAzimuth","responseDelay"
"pavlovia","0","3","0.0-0.0","5e29e902c2253a0587298e26","5fef55e628823a0076ec12ee","60200e15bc368958338bd3d1","Mozilla/5.0 (Windows NT 6.1; Win64; x64) AppleWebKit/537.36 (KHTML, like Gecko) Chrome/86.0.4240.111 Safari/537.36","v1-up-stims","","","","","","","","","","","","","","","","",""
"html-keyboard-response","1","47471","0.0-1.0","5e29e902c2253a0587298e26","5fef55e628823a0076ec12ee","60200e15bc368958338bd3d1","Mozilla/5.0 (Windows NT 6.1; Win64; x64) AppleWebKit/537.36 (KHTML, like Gecko) Chrome/86.0.4240.111 Safari/537.36","v1-up-stims","47466.59500012174","<div><h1>Welcome!</h1><p>Press any key to continue.</p></div>","32","","","","","","","","","","","","","",""
"consent-form","2","93935","0.0-2.0","5e29e902c2253a0587298e26","5fef55e628823a0076ec12ee","60200e15bc368958338bd3d1","Mozilla/5.0 (Windows NT 6.1; Win64; x64) AppleWebKit/537.36 (KHTML, like Gecko) Chrome/86.0.4240.111 Safari/537.36","v1-up-stims","","","","","","","","","","","","","","","","",""
"keyset-select","3","156449","0.0-3.0","5e29e902c2253a0587298e26","5fef55e628823a0076ec12ee","60200e15bc368958338bd3d1","Mozilla/5.0 (Windows NT 6.1; Win64; x64) AppleWebKit/537.36 (KHTML, like Gecko) Chrome/86.0.4240.111 Safari/537.36","v1-up-stims","","","","left-hand","","","","","","","","","","","","",""
"headphone-check","4","239811","0.0-4.0","5e29e902c2253a0587298e26","5fef55e628823a0076ec12ee","60200e15bc368958338bd3d1","Mozilla/5.0 (Windows NT 6.1; Win64; x64) AppleWebKit/537.36 (KHTML, like Gecko) Chrome/86.0.4240.111 Safari/537.36","v1-up-stims","","","","","0","6","0.3","","","","","","","","","",""
"headphone-backwards-check","5","252393","0.0-5.0","5e29e902c2253a0587298e26","5fef55e628823a0076ec12ee","60200e15bc368958338bd3d1","Mozilla/5.0 (Windows NT 6.1; Win64; x64) AppleWebKit/537.36 (KHTML, like Gecko) Chrome/86.0.4240.111 Safari/537.36","v1-up-stims","","","","","0","","","","","","","","","","","",""
"training","6","397423","0.0-6.0","5e29e902c2253a0587298e26","5fef55e628823a0076ec12ee","60200e15bc368958338bd3d1","Mozilla/5.0 (Windows NT 6.1; Win64; x64) AppleWebKit/537.36 (KHTML, like Gecko) Chrome/86.0.4240.111 Safari/537.36","v1-up-stims","","","","","","","","","","","","","","","","",""
"block-bookend","7","420106","0.0-7.0","5e29e902c2253a0587298e26","5fef55e628823a0076ec12ee","60200e15bc368958338bd3d1","Mozilla/5.0 (Windows NT 6.1; Win64; x64) AppleWebKit/537.36 (KHTML, like Gecko) Chrome/86.0.4240.111 Safari/537.36","v1-up-stims","","","","","","","","","","","","","","","","",""
"echo-presentation","8","426937","0.0-8.0","5e29e902c2253a0587298e26","5fef55e628823a0076ec12ee","60200e15bc368958338bd3d1","Mozilla/5.0 (Windows NT 6.1; Win64; x64) AppleWebKit/537.36 (KHTML, like Gecko) Chrome/86.0.4240.111 Safari/537.36","v1-up-stims","","","","","","","","-80,-70,-60,-50,-40","media/audio/stims/spherical_300cm_s20_c20_cd-full_matched_a-80.wav","spherical","20","20","full","matched","-80","-80","2725"
"echo-presentation","9","432801","0.0-9.0","5e29e902c2253a0587298e26","5fef55e628823a0076ec12ee","60200e15bc368958338bd3d1","Mozilla/5.0 (Windows NT 6.1; Win64; x64) AppleWebKit/537.36 (KHTML, like Gecko) Chrome/86.0.4240.111 Safari/537.36","v1-up-stims","","","","","","","","-80,-70,-60,-50,-40","media/audio/stims/spherical_300cm_s20_c20_cd-full_matched_a-80.wav","spherical","20","20","full","matched","-80","-70","3651"
"echo-presentation","10","436839","0.0-10.0","5e29e902c2253a0587298e26","5fef55e628823a0076ec12ee","60200e15bc368958338bd3d1","Mozilla/5.0 (Windows NT 6.1; Win64; x64) AppleWebKit/537.36 (KHTML, like Gecko) Chrome/86.0.4240.111 Safari/537.36","v1-up-stims","","","","","","","","-80,-70,-60,-50,-40","media/audio/stims/spherical_300cm_s20_c20_cd-full_matched_a-70.wav","spherical","20","20","full","matched","-70","-70","2275"
"echo-presentation","11","441271","0.0-11.0","5e29e902c2253a0587298e26","5fef55e628823a0076ec12ee","60200e15bc368958338bd3d1","Mozilla/5.0 (Windows NT 6.1; Win64; x64) AppleWebKit/537.36 (KHTML, like Gecko) Chrome/86.0.4240.111 Safari/537.36","v1-up-stims","","","","","","","","-80,-70,-60,-50,-40","media/audio/stims/spherical_300cm_s20_c20_cd-full_matched_a-50.wav","spherical","20","20","full","matched","-50","-80","2168"
"echo-presentation","12","445971","0.0-12.0","5e29e902c2253a0587298e26","5fef55e628823a0076ec12ee","60200e15bc368958338bd3d1","Mozilla/5.0 (Windows NT 6.1; Win64; x64) AppleWebKit/537.36 (KHTML, like Gecko) Chrome/86.0.4240.111 Safari/537.36","v1-up-stims","","","","","","","","-80,-70,-60,-50,-40","media/audio/stims/spherical_300cm_s20_c20_cd-full_matched_a-40.wav","spherical","20","20","full","matched","-40","-70","2781"
"echo-presentation","13","454993","0.0-13.0","5e29e902c2253a0587298e26","5fef55e628823a0076ec12ee","60200e15bc368958338bd3d1","Mozilla/5.0 (Windows NT 6.1; Win64; x64) AppleWebKit/537.36 (KHTML, like Gecko) Chrome/86.0.4240.111 Safari/537.36","v1-up-stims","","","","","","","","-80,-70,-60,-50,-40","media/audio/stims/spherical_300cm_s20_c20_cd-full_matched_a-60.wav","spherical","20","20","full","matched","-60","-60","6033"
"echo-presentation","14","459213","0.0-14.0","5e29e902c2253a0587298e26","5fef55e628823a0076ec12ee","60200e15bc368958338bd3d1","Mozilla/5.0 (Windows NT 6.1; Win64; x64) AppleWebKit/537.36 (KHTML, like Gecko) Chrome/86.0.4240.111 Safari/537.36","v1-up-stims","","","","","","","","-80,-70,-60,-50,-40","media/audio/stims/spherical_300cm_s20_c20_cd-full_matched_a-70.wav","spherical","20","20","full","matched","-70","-50","2201"
"echo-presentation","15","464481","0.0-15.0","5e29e902c2253a0587298e26","5fef55e628823a0076ec12ee","60200e15bc368958338bd3d1","Mozilla/5.0 (Windows NT 6.1; Win64; x64) AppleWebKit/537.36 (KHTML, like Gecko) Chrome/86.0.4240.111 Safari/537.36","v1-up-stims","","","","","","","","-80,-70,-60,-50,-40","media/audio/stims/spherical_300cm_s20_c20_cd-full_matched_a-40.wav","spherical","20","20","full","matched","-40","-50","3861"
"echo-presentation","16","468903","0.0-16.0","5e29e902c2253a0587298e26","5fef55e628823a0076ec12ee","60200e15bc368958338bd3d1","Mozilla/5.0 (Windows NT 6.1; Win64; x64) AppleWebKit/537.36 (KHTML, like Gecko) Chrome/86.0.4240.111 Safari/537.36","v1-up-stims","","","","","","","","-80,-70,-60,-50,-40","media/audio/stims/spherical_300cm_s20_c20_cd-full_matched_a-70.wav","spherical","20","20","full","matched","-70","-70","1484"
"echo-presentation","17","472557","0.0-17.0","5e29e902c2253a0587298e26","5fef55e628823a0076ec12ee","60200e15bc368958338bd3d1","Mozilla/5.0 (Windows NT 6.1; Win64; x64) AppleWebKit/537.36 (KHTML, like Gecko) Chrome/86.0.4240.111 Safari/537.36","v1-up-stims","","","","","","","","-80,-70,-60,-50,-40","media/audio/stims/spherical_300cm_s20_c20_cd-full_matched_a-60.wav","spherical","20","20","full","matched","-60","-70","2100"
"echo-presentation","18","476457","0.0-18.0","5e29e902c2253a0587298e26","5fef55e628823a0076ec12ee","60200e15bc368958338bd3d1","Mozilla/5.0 (Windows NT 6.1; Win64; x64) AppleWebKit/537.36 (KHTML, like Gecko) Chrome/86.0.4240.111 Safari/537.36","v1-up-stims","","","","","","","","-80,-70,-60,-50,-40","media/audio/stims/spherical_300cm_s20_c20_cd-full_matched_a-70.wav","spherical","20","20","full","matched","-70","-60","1473"
"echo-presentation","19","479360","0.0-19.0","5e29e902c2253a0587298e26","5fef55e628823a0076ec12ee","60200e15bc368958338bd3d1","Mozilla/5.0 (Windows NT 6.1; Win64; x64) AppleWebKit/537.36 (KHTML, like Gecko) Chrome/86.0.4240.111 Safari/537.36","v1-up-stims","","","","","","","","-80,-70,-60,-50,-40","media/audio/stims/spherical_300cm_s20_c20_cd-full_matched_a-50.wav","spherical","20","20","full","matched","-50","-80","1662"
"echo-presentation","20","483000","0.0-20.0","5e29e902c2253a0587298e26","5fef55e628823a0076ec12ee","60200e15bc368958338bd3d1","Mozilla/5.0 (Windows NT 6.1; Win64; x64) AppleWebKit/537.36 (KHTML, like Gecko) Chrome/86.0.4240.111 Safari/537.36","v1-up-stims","","","","","","","","-80,-70,-60,-50,-40","media/audio/stims/spherical_300cm_s20_c20_cd-full_matched_a-60.wav","spherical","20","20","full","matched","-60","-60","2351"
"echo-presentation","21","486443","0.0-21.0","5e29e902c2253a0587298e26","5fef55e628823a0076ec12ee","60200e15bc368958338bd3d1","Mozilla/5.0 (Windows NT 6.1; Win64; x64) AppleWebKit/537.36 (KHTML, like Gecko) Chrome/86.0.4240.111 Safari/537.36","v1-up-stims","","","","","","","","-80,-70,-60,-50,-40","media/audio/stims/spherical_300cm_s20_c20_cd-full_matched_a-60.wav","spherical","20","20","full","matched","-60","-50","2093"
"echo-presentation","22","489532","0.0-22.0","5e29e902c2253a0587298e26","5fef55e628823a0076ec12ee","60200e15bc368958338bd3d1","Mozilla/5.0 (Windows NT 6.1; Win64; x64) AppleWebKit/537.36 (KHTML, like Gecko) Chrome/86.0.4240.111 Safari/537.36","v1-up-stims","","","","","","","","-80,-70,-60,-50,-40","media/audio/stims/spherical_300cm_s20_c20_cd-full_matched_a-50.wav","spherical","20","20","full","matched","-50","-60","1891"
"echo-presentation","23","493048","0.0-23.0","5e29e902c2253a0587298e26","5fef55e628823a0076ec12ee","60200e15bc368958338bd3d1","Mozilla/5.0 (Windows NT 6.1; Win64; x64) AppleWebKit/537.36 (KHTML, like Gecko) Chrome/86.0.4240.111 Safari/537.36","v1-up-stims","","","","","","","","-80,-70,-60,-50,-40","media/audio/stims/spherical_300cm_s20_c20_cd-full_matched_a-40.wav","spherical","20","20","full","matched","-40","-70","1423"
"echo-presentation","24","497408","0.0-24.0","5e29e902c2253a0587298e26","5fef55e628823a0076ec12ee","60200e15bc368958338bd3d1","Mozilla/5.0 (Windows NT 6.1; Win64; x64) AppleWebKit/537.36 (KHTML, like Gecko) Chrome/86.0.4240.111 Safari/537.36","v1-up-stims","","","","","","","","-80,-70,-60,-50,-40","media/audio/stims/spherical_300cm_s20_c20_cd-full_matched_a-40.wav","spherical","20","20","full","matched","-40","-50","2722"
"echo-presentation","25","501327","0.0-25.0","5e29e902c2253a0587298e26","5fef55e628823a0076ec12ee","60200e15bc368958338bd3d1","Mozilla/5.0 (Windows NT 6.1; Win64; x64) AppleWebKit/537.36 (KHTML, like Gecko) Chrome/86.0.4240.111 Safari/537.36","v1-up-stims","","","","","","","","-80,-70,-60,-50,-40","media/audio/stims/spherical_300cm_s20_c20_cd-full_matched_a-80.wav","spherical","20","20","full","matched","-80","-70","2549"
"echo-presentation","26","504351","0.0-26.0","5e29e902c2253a0587298e26","5fef55e628823a0076ec12ee","60200e15bc368958338bd3d1","Mozilla/5.0 (Windows NT 6.1; Win64; x64) AppleWebKit/537.36 (KHTML, like Gecko) Chrome/86.0.4240.111 Safari/537.36","v1-up-stims","","","","","","","","-80,-70,-60,-50,-40","media/audio/stims/spherical_300cm_s20_c20_cd-full_matched_a-50.wav","spherical","20","20","full","matched","-50","-40","1987"
"echo-presentation","27","507142","0.0-27.0","5e29e902c2253a0587298e26","5fef55e628823a0076ec12ee","60200e15bc368958338bd3d1","Mozilla/5.0 (Windows NT 6.1; Win64; x64) AppleWebKit/537.36 (KHTML, like Gecko) Chrome/86.0.4240.111 Safari/537.36","v1-up-stims","","","","","","","","-80,-70,-60,-50,-40","media/audio/stims/spherical_300cm_s20_c20_cd-full_matched_a-80.wav","spherical","20","20","full","matched","-80","-50","1547"
"block-bookend","28","512044","0.0-28.0","5e29e902c2253a0587298e26","5fef55e628823a0076ec12ee","60200e15bc368958338bd3d1","Mozilla/5.0 (Windows NT 6.1; Win64; x64) AppleWebKit/537.36 (KHTML, like Gecko) Chrome/86.0.4240.111 Safari/537.36","v1-up-stims","","","","","","","","","","","","","","","","",""
"block-bookend","29","526589","0.0-29.0","5e29e902c2253a0587298e26","5fef55e628823a0076ec12ee","60200e15bc368958338bd3d1","Mozilla/5.0 (Windows NT 6.1; Win64; x64) AppleWebKit/537.36 (KHTML, like Gecko) Chrome/86.0.4240.111 Safari/537.36","v1-up-stims","","","","","","","","","","","","","","","","",""
"echo-presentation","30","531624","0.0-30.0","5e29e902c2253a0587298e26","5fef55e628823a0076ec12ee","60200e15bc368958338bd3d1","Mozilla/5.0 (Windows NT 6.1; Win64; x64) AppleWebKit/537.36 (KHTML, like Gecko) Chrome/86.0.4240.111 Safari/537.36","v1-up-stims","","","","","","","","-80,-70,-60,-50,-40","media/audio/stims/spherical_300cm_s20_c20_cd-full_matched_a-50.wav","spherical","20","20","full","matched","-50","-60","1405"
"echo-presentation","31","534184","0.0-31.0","5e29e902c2253a0587298e26","5fef55e628823a0076ec12ee","60200e15bc368958338bd3d1","Mozilla/5.0 (Windows NT 6.1; Win64; x64) AppleWebKit/537.36 (KHTML, like Gecko) Chrome/86.0.4240.111 Safari/537.36","v1-up-stims","","","","","","","","-80,-70,-60,-50,-40","media/audio/stims/spherical_300cm_s20_c20_cd-full_matched_a-50.wav","spherical","20","20","full","matched","-50","-70","1123"
"echo-presentation","32","537582","0.0-32.0","5e29e902c2253a0587298e26","5fef55e628823a0076ec12ee","60200e15bc368958338bd3d1","Mozilla/5.0 (Windows NT 6.1; Win64; x64) AppleWebKit/537.36 (KHTML, like Gecko) Chrome/86.0.4240.111 Safari/537.36","v1-up-stims","","","","","","","","-80,-70,-60,-50,-40","media/audio/stims/spherical_300cm_s20_c20_cd-full_matched_a-50.wav","spherical","20","20","full","matched","-50","-80","1759"
"echo-presentation","33","540244","0.0-33.0","5e29e902c2253a0587298e26","5fef55e628823a0076ec12ee","60200e15bc368958338bd3d1","Mozilla/5.0 (Windows NT 6.1; Win64; x64) AppleWebKit/537.36 (KHTML, like Gecko) Chrome/86.0.4240.111 Safari/537.36","v1-up-stims","","","","","","","","-80,-70,-60,-50,-40","media/audio/stims/spherical_300cm_s20_c20_cd-full_matched_a-80.wav","spherical","20","20","full","matched","-80","-80","1294"
"echo-presentation","34","542643","0.0-34.0","5e29e902c2253a0587298e26","5fef55e628823a0076ec12ee","60200e15bc368958338bd3d1","Mozilla/5.0 (Windows NT 6.1; Win64; x64) AppleWebKit/537.36 (KHTML, like Gecko) Chrome/86.0.4240.111 Safari/537.36","v1-up-stims","","","","","","","","-80,-70,-60,-50,-40","media/audio/stims/spherical_300cm_s20_c20_cd-full_matched_a-80.wav","spherical","20","20","full","matched","-80","-80","1276"
"echo-presentation","35","545070","0.0-35.0","5e29e902c2253a0587298e26","5fef55e628823a0076ec12ee","60200e15bc368958338bd3d1","Mozilla/5.0 (Windows NT 6.1; Win64; x64) AppleWebKit/537.36 (KHTML, like Gecko) Chrome/86.0.4240.111 Safari/537.36","v1-up-stims","","","","","","","","-80,-70,-60,-50,-40","media/audio/stims/spherical_300cm_s20_c20_cd-full_matched_a-70.wav","spherical","20","20","full","matched","-70","-80","1362"
"echo-presentation","36","548187","0.0-36.0","5e29e902c2253a0587298e26","5fef55e628823a0076ec12ee","60200e15bc368958338bd3d1","Mozilla/5.0 (Windows NT 6.1; Win64; x64) AppleWebKit/537.36 (KHTML, like Gecko) Chrome/86.0.4240.111 Safari/537.36","v1-up-stims","","","","","","","","-80,-70,-60,-50,-40","media/audio/stims/spherical_300cm_s20_c20_cd-full_matched_a-70.wav","spherical","20","20","full","matched","-70","-70","1208"
"echo-presentation","37","551895","0.0-37.0","5e29e902c2253a0587298e26","5fef55e628823a0076ec12ee","60200e15bc368958338bd3d1","Mozilla/5.0 (Windows NT 6.1; Win64; x64) AppleWebKit/537.36 (KHTML, like Gecko) Chrome/86.0.4240.111 Safari/537.36","v1-up-stims","","","","","","","","-80,-70,-60,-50,-40","media/audio/stims/spherical_300cm_s20_c20_cd-full_matched_a-60.wav","spherical","20","20","full","matched","-60","-50","1760"
"echo-presentation","38","554542","0.0-38.0","5e29e902c2253a0587298e26","5fef55e628823a0076ec12ee","60200e15bc368958338bd3d1","Mozilla/5.0 (Windows NT 6.1; Win64; x64) AppleWebKit/537.36 (KHTML, like Gecko) Chrome/86.0.4240.111 Safari/537.36","v1-up-stims","","","","","","","","-80,-70,-60,-50,-40","media/audio/stims/spherical_300cm_s20_c20_cd-full_matched_a-40.wav","spherical","20","20","full","matched","-40","-40","1654"
"echo-presentation","39","557484","0.0-39.0","5e29e902c2253a0587298e26","5fef55e628823a0076ec12ee","60200e15bc368958338bd3d1","Mozilla/5.0 (Windows NT 6.1; Win64; x64) AppleWebKit/537.36 (KHTML, like Gecko) Chrome/86.0.4240.111 Safari/537.36","v1-up-stims","","","","","","","","-80,-70,-60,-50,-40","media/audio/stims/spherical_300cm_s20_c20_cd-full_matched_a-70.wav","spherical","20","20","full","matched","-70","-60","1640"
"echo-presentation","40","559961","0.0-40.0","5e29e902c2253a0587298e26","5fef55e628823a0076ec12ee","60200e15bc368958338bd3d1","Mozilla/5.0 (Windows NT 6.1; Win64; x64) AppleWebKit/537.36 (KHTML, like Gecko) Chrome/86.0.4240.111 Safari/537.36","v1-up-stims","","","","","","","","-80,-70,-60,-50,-40","media/audio/stims/spherical_300cm_s20_c20_cd-full_matched_a-40.wav","spherical","20","20","full","matched","-40","-40","1534"
"echo-presentation","41","563821","0.0-41.0","5e29e902c2253a0587298e26","5fef55e628823a0076ec12ee","60200e15bc368958338bd3d1","Mozilla/5.0 (Windows NT 6.1; Win64; x64) AppleWebKit/537.36 (KHTML, like Gecko) Chrome/86.0.4240.111 Safari/537.36","v1-up-stims","","","","","","","","-80,-70,-60,-50,-40","media/audio/stims/spherical_300cm_s20_c20_cd-full_matched_a-40.wav","spherical","20","20","full","matched","-40","-40","1521"
"echo-presentation","42","566306","0.0-42.0","5e29e902c2253a0587298e26","5fef55e628823a0076ec12ee","60200e15bc368958338bd3d1","Mozilla/5.0 (Windows NT 6.1; Win64; x64) AppleWebKit/537.36 (KHTML, like Gecko) Chrome/86.0.4240.111 Safari/537.36","v1-up-stims","","","","","","","","-80,-70,-60,-50,-40","media/audio/stims/spherical_300cm_s20_c20_cd-full_matched_a-60.wav","spherical","20","20","full","matched","-60","-50","1345"
"echo-presentation","43","568599","0.0-43.0","5e29e902c2253a0587298e26","5fef55e628823a0076ec12ee","60200e15bc368958338bd3d1","Mozilla/5.0 (Windows NT 6.1; Win64; x64) AppleWebKit/537.36 (KHTML, like Gecko) Chrome/86.0.4240.111 Safari/537.36","v1-up-stims","","","","","","","","-80,-70,-60,-50,-40","media/audio/stims/spherical_300cm_s20_c20_cd-full_matched_a-60.wav","spherical","20","20","full","matched","-60","-60","1281"
"echo-presentation","44","570910","0.0-44.0","5e29e902c2253a0587298e26","5fef55e628823a0076ec12ee","60200e15bc368958338bd3d1","Mozilla/5.0 (Windows NT 6.1; Win64; x64) AppleWebKit/537.36 (KHTML, like Gecko) Chrome/86.0.4240.111 Safari/537.36","v1-up-stims","","","","","","","","-80,-70,-60,-50,-40","media/audio/stims/spherical_300cm_s20_c20_cd-full_matched_a-50.wav","spherical","20","20","full","matched","-50","-60","1251"
"echo-presentation","45","573333","0.0-45.0","5e29e902c2253a0587298e26","5fef55e628823a0076ec12ee","60200e15bc368958338bd3d1","Mozilla/5.0 (Windows NT 6.1; Win64; x64) AppleWebKit/537.36 (KHTML, like Gecko) Chrome/86.0.4240.111 Safari/537.36","v1-up-stims","","","","","","","","-80,-70,-60,-50,-40","media/audio/stims/spherical_300cm_s20_c20_cd-full_matched_a-80.wav","spherical","20","20","full","matched","-80","-70","1224"
"echo-presentation","46","575717","0.0-46.0","5e29e902c2253a0587298e26","5fef55e628823a0076ec12ee","60200e15bc368958338bd3d1","Mozilla/5.0 (Windows NT 6.1; Win64; x64) AppleWebKit/537.36 (KHTML, like Gecko) Chrome/86.0.4240.111 Safari/537.36","v1-up-stims","","","","","","","","-80,-70,-60,-50,-40","media/audio/stims/spherical_300cm_s20_c20_cd-full_matched_a-70.wav","spherical","20","20","full","matched","-70","-70","1345"
"echo-presentation","47","578401","0.0-47.0","5e29e902c2253a0587298e26","5fef55e628823a0076ec12ee","60200e15bc368958338bd3d1","Mozilla/5.0 (Windows NT 6.1; Win64; x64) AppleWebKit/537.36 (KHTML, like Gecko) Chrome/86.0.4240.111 Safari/537.36","v1-up-stims","","","","","","","","-80,-70,-60,-50,-40","media/audio/stims/spherical_300cm_s20_c20_cd-full_matched_a-40.wav","spherical","20","20","full","matched","-40","-40","1531"
"echo-presentation","48","581844","0.0-48.0","5e29e902c2253a0587298e26","5fef55e628823a0076ec12ee","60200e15bc368958338bd3d1","Mozilla/5.0 (Windows NT 6.1; Win64; x64) AppleWebKit/537.36 (KHTML, like Gecko) Chrome/86.0.4240.111 Safari/537.36","v1-up-stims","","","","","","","","-80,-70,-60,-50,-40","media/audio/stims/spherical_300cm_s20_c20_cd-full_matched_a-60.wav","spherical","20","20","full","matched","-60","-40","2467"
"echo-presentation","49","584839","0.0-49.0","5e29e902c2253a0587298e26","5fef55e628823a0076ec12ee","60200e15bc368958338bd3d1","Mozilla/5.0 (Windows NT 6.1; Win64; x64) AppleWebKit/537.36 (KHTML, like Gecko) Chrome/86.0.4240.111 Safari/537.36","v1-up-stims","","","","","","","","-80,-70,-60,-50,-40","media/audio/stims/spherical_300cm_s20_c20_cd-full_matched_a-80.wav","spherical","20","20","full","matched","-80","-60","1949"
"block-bookend","50","598531","0.0-50.0","5e29e902c2253a0587298e26","5fef55e628823a0076ec12ee","60200e15bc368958338bd3d1","Mozilla/5.0 (Windows NT 6.1; Win64; x64) AppleWebKit/537.36 (KHTML, like Gecko) Chrome/86.0.4240.111 Safari/537.36","v1-up-stims","","","","","","","","","","","","","","","","",""
"block-bookend","51","607195","0.0-51.0","5e29e902c2253a0587298e26","5fef55e628823a0076ec12ee","60200e15bc368958338bd3d1","Mozilla/5.0 (Windows NT 6.1; Win64; x64) AppleWebKit/537.36 (KHTML, like Gecko) Chrome/86.0.4240.111 Safari/537.36","v1-up-stims","","","","","","","","","","","","","","","","",""
"echo-presentation","52","614300","0.0-52.0","5e29e902c2253a0587298e26","5fef55e628823a0076ec12ee","60200e15bc368958338bd3d1","Mozilla/5.0 (Windows NT 6.1; Win64; x64) AppleWebKit/537.36 (KHTML, like Gecko) Chrome/86.0.4240.111 Safari/537.36","v1-up-stims","","","","","","","","40,50,60,70,80","media/audio/stims/spherical_300cm_s20_c20_cd-full_matched_a60.wav","spherical","20","20","full","matched","60","40","3388"
"echo-presentation","53","618166","0.0-53.0","5e29e902c2253a0587298e26","5fef55e628823a0076ec12ee","60200e15bc368958338bd3d1","Mozilla/5.0 (Windows NT 6.1; Win64; x64) AppleWebKit/537.36 (KHTML, like Gecko) Chrome/86.0.4240.111 Safari/537.36","v1-up-stims","","","","","","","","40,50,60,70,80","media/audio/stims/spherical_300cm_s20_c20_cd-full_matched_a40.wav","spherical","20","20","full","matched","40","40","1716"
"echo-presentation","54","622590","0.0-54.0","5e29e902c2253a0587298e26","5fef55e628823a0076ec12ee","60200e15bc368958338bd3d1","Mozilla/5.0 (Windows NT 6.1; Win64; x64) AppleWebKit/537.36 (KHTML, like Gecko) Chrome/86.0.4240.111 Safari/537.36","v1-up-stims","","","","","","","","40,50,60,70,80","media/audio/stims/spherical_300cm_s20_c20_cd-full_matched_a40.wav","spherical","20","20","full","matched","40","50","3008"
"echo-presentation","55","625240","0.0-55.0","5e29e902c2253a0587298e26","5fef55e628823a0076ec12ee","60200e15bc368958338bd3d1","Mozilla/5.0 (Windows NT 6.1; Win64; x64) AppleWebKit/537.36 (KHTML, like Gecko) Chrome/86.0.4240.111 Safari/537.36","v1-up-stims","","","","","","","","40,50,60,70,80","media/audio/stims/spherical_300cm_s20_c20_cd-full_matched_a60.wav","spherical","20","20","full","matched","60","60","1531"
"echo-presentation","56","629160","0.0-56.0","5e29e902c2253a0587298e26","5fef55e628823a0076ec12ee","60200e15bc368958338bd3d1","Mozilla/5.0 (Windows NT 6.1; Win64; x64) AppleWebKit/537.36 (KHTML, like Gecko) Chrome/86.0.4240.111 Safari/537.36","v1-up-stims","","","","","","","","40,50,60,70,80","media/audio/stims/spherical_300cm_s20_c20_cd-full_matched_a40.wav","spherical","20","20","full","matched","40","50","2981"
"echo-presentation","57","632001","0.0-57.0","5e29e902c2253a0587298e26","5fef55e628823a0076ec12ee","60200e15bc368958338bd3d1","Mozilla/5.0 (Windows NT 6.1; Win64; x64) AppleWebKit/537.36 (KHTML, like Gecko) Chrome/86.0.4240.111 Safari/537.36","v1-up-stims","","","","","","","","40,50,60,70,80","media/audio/stims/spherical_300cm_s20_c20_cd-full_matched_a40.wav","spherical","20","20","full","matched","40","70","1705"
"echo-presentation","58","635366","0.0-58.0","5e29e902c2253a0587298e26","5fef55e628823a0076ec12ee","60200e15bc368958338bd3d1","Mozilla/5.0 (Windows NT 6.1; Win64; x64) AppleWebKit/537.36 (KHTML, like Gecko) Chrome/86.0.4240.111 Safari/537.36","v1-up-stims","","","","","","","","40,50,60,70,80","media/audio/stims/spherical_300cm_s20_c20_cd-full_matched_a80.wav","spherical","20","20","full","matched","80","70","2277"
"echo-presentation","59","638236","0.0-59.0","5e29e902c2253a0587298e26","5fef55e628823a0076ec12ee","60200e15bc368958338bd3d1","Mozilla/5.0 (Windows NT 6.1; Win64; x64) AppleWebKit/537.36 (KHTML, like Gecko) Chrome/86.0.4240.111 Safari/537.36","v1-up-stims","","","","","","","","40,50,60,70,80","media/audio/stims/spherical_300cm_s20_c20_cd-full_matched_a50.wav","spherical","20","20","full","matched","50","60","1834"
"echo-presentation","60","641182","0.0-60.0","5e29e902c2253a0587298e26","5fef55e628823a0076ec12ee","60200e15bc368958338bd3d1","Mozilla/5.0 (Windows NT 6.1; Win64; x64) AppleWebKit/537.36 (KHTML, like Gecko) Chrome/86.0.4240.111 Safari/537.36","v1-up-stims","","","","","","","","40,50,60,70,80","media/audio/stims/spherical_300cm_s20_c20_cd-full_matched_a80.wav","spherical","20","20","full","matched","80","80","1909"
"echo-presentation","61","643666","0.0-61.0","5e29e902c2253a0587298e26","5fef55e628823a0076ec12ee","60200e15bc368958338bd3d1","Mozilla/5.0 (Windows NT 6.1; Win64; x64) AppleWebKit/537.36 (KHTML, like Gecko) Chrome/86.0.4240.111 Safari/537.36","v1-up-stims","","","","","","","","40,50,60,70,80","media/audio/stims/spherical_300cm_s20_c20_cd-full_matched_a60.wav","spherical","20","20","full","matched","60","50","1420"
"echo-presentation","62","647451","0.0-62.0","5e29e902c2253a0587298e26","5fef55e628823a0076ec12ee","60200e15bc368958338bd3d1","Mozilla/5.0 (Windows NT 6.1; Win64; x64) AppleWebKit/537.36 (KHTML, like Gecko) Chrome/86.0.4240.111 Safari/537.36","v1-up-stims","","","","","","","","40,50,60,70,80","media/audio/stims/spherical_300cm_s20_c20_cd-full_matched_a50.wav","spherical","20","20","full","matched","50","60","2669"
"echo-presentation","63","649865","0.0-63.0","5e29e902c2253a0587298e26","5fef55e628823a0076ec12ee","60200e15bc368958338bd3d1","Mozilla/5.0 (Windows NT 6.1; Win64; x64) AppleWebKit/537.36 (KHTML, like Gecko) Chrome/86.0.4240.111 Safari/537.36","v1-up-stims","","","","","","","","40,50,60,70,80","media/audio/stims/spherical_300cm_s20_c20_cd-full_matched_a70.wav","spherical","20","20","full","matched","70","80","1570"
"echo-presentation","64","652816","0.0-64.0","5e29e902c2253a0587298e26","5fef55e628823a0076ec12ee","60200e15bc368958338bd3d1","Mozilla/5.0 (Windows NT 6.1; Win64; x64) AppleWebKit/537.36 (KHTML, like Gecko) Chrome/86.0.4240.111 Safari/537.36","v1-up-stims","","","","","","","","40,50,60,70,80","media/audio/stims/spherical_300cm_s20_c20_cd-full_matched_a60.wav","spherical","20","20","full","matched","60","80","1788"
"echo-presentation","65","655088","0.0-65.0","5e29e902c2253a0587298e26","5fef55e628823a0076ec12ee","60200e15bc368958338bd3d1","Mozilla/5.0 (Windows NT 6.1; Win64; x64) AppleWebKit/537.36 (KHTML, like Gecko) Chrome/86.0.4240.111 Safari/537.36","v1-up-stims","","","","","","","","40,50,60,70,80","media/audio/stims/spherical_300cm_s20_c20_cd-full_matched_a70.wav","spherical","20","20","full","matched","70","70","1292"
"echo-presentation","66","660362","0.0-66.0","5e29e902c2253a0587298e26","5fef55e628823a0076ec12ee","60200e15bc368958338bd3d1","Mozilla/5.0 (Windows NT 6.1; Win64; x64) AppleWebKit/537.36 (KHTML, like Gecko) Chrome/86.0.4240.111 Safari/537.36","v1-up-stims","","","","","","","","40,50,60,70,80","media/audio/stims/spherical_300cm_s20_c20_cd-full_matched_a80.wav","spherical","20","20","full","matched","80","60","2881"
"echo-presentation","67","663068","0.0-67.0","5e29e902c2253a0587298e26","5fef55e628823a0076ec12ee","60200e15bc368958338bd3d1","Mozilla/5.0 (Windows NT 6.1; Win64; x64) AppleWebKit/537.36 (KHTML, like Gecko) Chrome/86.0.4240.111 Safari/537.36","v1-up-stims","","","","","","","","40,50,60,70,80","media/audio/stims/spherical_300cm_s20_c20_cd-full_matched_a70.wav","spherical","20","20","full","matched","70","70","1685"
"echo-presentation","68","666055","0.0-68.0","5e29e902c2253a0587298e26","5fef55e628823a0076ec12ee","60200e15bc368958338bd3d1","Mozilla/5.0 (Windows NT 6.1; Win64; x64) AppleWebKit/537.36 (KHTML, like Gecko) Chrome/86.0.4240.111 Safari/537.36","v1-up-stims","","","","","","","","40,50,60,70,80","media/audio/stims/spherical_300cm_s20_c20_cd-full_matched_a80.wav","spherical","20","20","full","matched","80","80","1736"
"echo-presentation","69","668872","0.0-69.0","5e29e902c2253a0587298e26","5fef55e628823a0076ec12ee","60200e15bc368958338bd3d1","Mozilla/5.0 (Windows NT 6.1; Win64; x64) AppleWebKit/537.36 (KHTML, like Gecko) Chrome/86.0.4240.111 Safari/537.36","v1-up-stims","","","","","","","","40,50,60,70,80","media/audio/stims/spherical_300cm_s20_c20_cd-full_matched_a50.wav","spherical","20","20","full","matched","50","40","1566"
"echo-presentation","70","671325","0.0-70.0","5e29e902c2253a0587298e26","5fef55e628823a0076ec12ee","60200e15bc368958338bd3d1","Mozilla/5.0 (Windows NT 6.1; Win64; x64) AppleWebKit/537.36 (KHTML, like Gecko) Chrome/86.0.4240.111 Safari/537.36","v1-up-stims","","","","","","","","40,50,60,70,80","media/audio/stims/spherical_300cm_s20_c20_cd-full_matched_a70.wav","spherical","20","20","full","matched","70","50","1420"
"echo-presentation","71","675081","0.0-71.0","5e29e902c2253a0587298e26","5fef55e628823a0076ec12ee","60200e15bc368958338bd3d1","Mozilla/5.0 (Windows NT 6.1; Win64; x64) AppleWebKit/537.36 (KHTML, like Gecko) Chrome/86.0.4240.111 Safari/537.36","v1-up-stims","","","","","","","","40,50,60,70,80","media/audio/stims/spherical_300cm_s20_c20_cd-full_matched_a50.wav","spherical","20","20","full","matched","50","40","2228"
"block-bookend","72","684488","0.0-72.0","5e29e902c2253a0587298e26","5fef55e628823a0076ec12ee","60200e15bc368958338bd3d1","Mozilla/5.0 (Windows NT 6.1; Win64; x64) AppleWebKit/537.36 (KHTML, like Gecko) Chrome/86.0.4240.111 Safari/537.36","v1-up-stims","","","","","","","","","","","","","","","","",""
"block-bookend","73","694186","0.0-73.0","5e29e902c2253a0587298e26","5fef55e628823a0076ec12ee","60200e15bc368958338bd3d1","Mozilla/5.0 (Windows NT 6.1; Win64; x64) AppleWebKit/537.36 (KHTML, like Gecko) Chrome/86.0.4240.111 Safari/537.36","v1-up-stims","","","","","","","","","","","","","","","","",""
"echo-presentation","74","697187","0.0-74.0","5e29e902c2253a0587298e26","5fef55e628823a0076ec12ee","60200e15bc368958338bd3d1","Mozilla/5.0 (Windows NT 6.1; Win64; x64) AppleWebKit/537.36 (KHTML, like Gecko) Chrome/86.0.4240.111 Safari/537.36","v1-up-stims","","","","","","","","40,50,60,70,80","media/audio/stims/spherical_300cm_s20_c20_cd-full_matched_a60.wav","spherical","20","20","full","matched","60","50","1262"
"echo-presentation","75","699349","0.0-75.0","5e29e902c2253a0587298e26","5fef55e628823a0076ec12ee","60200e15bc368958338bd3d1","Mozilla/5.0 (Windows NT 6.1; Win64; x64) AppleWebKit/537.36 (KHTML, like Gecko) Chrome/86.0.4240.111 Safari/537.36","v1-up-stims","","","","","","","","40,50,60,70,80","media/audio/stims/spherical_300cm_s20_c20_cd-full_matched_a70.wav","spherical","20","20","full","matched","70","60","1107"
"echo-presentation","76","701346","0.0-76.0","5e29e902c2253a0587298e26","5fef55e628823a0076ec12ee","60200e15bc368958338bd3d1","Mozilla/5.0 (Windows NT 6.1; Win64; x64) AppleWebKit/537.36 (KHTML, like Gecko) Chrome/86.0.4240.111 Safari/537.36","v1-up-stims","","","","","","","","40,50,60,70,80","media/audio/stims/spherical_300cm_s20_c20_cd-full_matched_a60.wav","spherical","20","20","full","matched","60","70","1151"
"echo-presentation","77","703394","0.0-77.0","5e29e902c2253a0587298e26","5fef55e628823a0076ec12ee","60200e15bc368958338bd3d1","Mozilla/5.0 (Windows NT 6.1; Win64; x64) AppleWebKit/537.36 (KHTML, like Gecko) Chrome/86.0.4240.111 Safari/537.36","v1-up-stims","","","","","","","","40,50,60,70,80","media/audio/stims/spherical_300cm_s20_c20_cd-full_matched_a70.wav","spherical","20","20","full","matched","70","80","1153"
"echo-presentation","78","705404","0.0-78.0","5e29e902c2253a0587298e26","5fef55e628823a0076ec12ee","60200e15bc368958338bd3d1","Mozilla/5.0 (Windows NT 6.1; Win64; x64) AppleWebKit/537.36 (KHTML, like Gecko) Chrome/86.0.4240.111 Safari/537.36","v1-up-stims","","","","","","","","40,50,60,70,80","media/audio/stims/spherical_300cm_s20_c20_cd-full_matched_a80.wav","spherical","20","20","full","matched","80","80","1153"
"echo-presentation","79","707898","0.0-79.0","5e29e902c2253a0587298e26","5fef55e628823a0076ec12ee","60200e15bc368958338bd3d1","Mozilla/5.0 (Windows NT 6.1; Win64; x64) AppleWebKit/537.36 (KHTML, like Gecko) Chrome/86.0.4240.111 Safari/537.36","v1-up-stims","","","","","","","","40,50,60,70,80","media/audio/stims/spherical_300cm_s20_c20_cd-full_matched_a50.wav","spherical","20","20","full","matched","50","60","1526"
"echo-presentation","80","709828","0.0-80.0","5e29e902c2253a0587298e26","5fef55e628823a0076ec12ee","60200e15bc368958338bd3d1","Mozilla/5.0 (Windows NT 6.1; Win64; x64) AppleWebKit/537.36 (KHTML, like Gecko) Chrome/86.0.4240.111 Safari/537.36","v1-up-stims","","","","","","","","40,50,60,70,80","media/audio/stims/spherical_300cm_s20_c20_cd-full_matched_a40.wav","spherical","20","20","full","matched","40","50","1067"
"echo-presentation","81","712123","0.0-81.0","5e29e902c2253a0587298e26","5fef55e628823a0076ec12ee","60200e15bc368958338bd3d1","Mozilla/5.0 (Windows NT 6.1; Win64; x64) AppleWebKit/537.36 (KHTML, like Gecko) Chrome/86.0.4240.111 Safari/537.36","v1-up-stims","","","","","","","","40,50,60,70,80","media/audio/stims/spherical_300cm_s20_c20_cd-full_matched_a80.wav","spherical","20","20","full","matched","80","70","1351"
"echo-presentation","82","714241","0.0-82.0","5e29e902c2253a0587298e26","5fef55e628823a0076ec12ee","60200e15bc368958338bd3d1","Mozilla/5.0 (Windows NT 6.1; Win64; x64) AppleWebKit/537.36 (KHTML, like Gecko) Chrome/86.0.4240.111 Safari/537.36","v1-up-stims","","","","","","","","40,50,60,70,80","media/audio/stims/spherical_300cm_s20_c20_cd-full_matched_a40.wav","spherical","20","20","full","matched","40","60","1293"
"echo-presentation","83","716469","0.0-83.0","5e29e902c2253a0587298e26","5fef55e628823a0076ec12ee","60200e15bc368958338bd3d1","Mozilla/5.0 (Windows NT 6.1; Win64; x64) AppleWebKit/537.36 (KHTML, like Gecko) Chrome/86.0.4240.111 Safari/537.36","v1-up-stims","","","","","","","","40,50,60,70,80","media/audio/stims/spherical_300cm_s20_c20_cd-full_matched_a80.wav","spherical","20","20","full","matched","80","80","1420"
"echo-presentation","84","718504","0.0-84.0","5e29e902c2253a0587298e26","5fef55e628823a0076ec12ee","60200e15bc368958338bd3d1","Mozilla/5.0 (Windows NT 6.1; Win64; x64) AppleWebKit/537.36 (KHTML, like Gecko) Chrome/86.0.4240.111 Safari/537.36","v1-up-stims","","","","","","","","40,50,60,70,80","media/audio/stims/spherical_300cm_s20_c20_cd-full_matched_a80.wav","spherical","20","20","full","matched","80","80","1108"
"echo-presentation","85","720881","0.0-85.0","5e29e902c2253a0587298e26","5fef55e628823a0076ec12ee","60200e15bc368958338bd3d1","Mozilla/5.0 (Windows NT 6.1; Win64; x64) AppleWebKit/537.36 (KHTML, like Gecko) Chrome/86.0.4240.111 Safari/537.36","v1-up-stims","","","","","","","","40,50,60,70,80","media/audio/stims/spherical_300cm_s20_c20_cd-full_matched_a40.wav","spherical","20","20","full","matched","40","50","1360"
"echo-presentation","86","723090","0.0-86.0","5e29e902c2253a0587298e26","5fef55e628823a0076ec12ee","60200e15bc368958338bd3d1","Mozilla/5.0 (Windows NT 6.1; Win64; x64) AppleWebKit/537.36 (KHTML, like Gecko) Chrome/86.0.4240.111 Safari/537.36","v1-up-stims","","","","","","","","40,50,60,70,80","media/audio/stims/spherical_300cm_s20_c20_cd-full_matched_a60.wav","spherical","20","20","full","matched","60","50","1347"
"echo-presentation","87","725219","0.0-87.0","5e29e902c2253a0587298e26","5fef55e628823a0076ec12ee","60200e15bc368958338bd3d1","Mozilla/5.0 (Windows NT 6.1; Win64; x64) AppleWebKit/537.36 (KHTML, like Gecko) Chrome/86.0.4240.111 Safari/537.36","v1-up-stims","","","","","","","","40,50,60,70,80","media/audio/stims/spherical_300cm_s20_c20_cd-full_matched_a50.wav","spherical","20","20","full","matched","50","50","1310"
"echo-presentation","88","727809","0.0-88.0","5e29e902c2253a0587298e26","5fef55e628823a0076ec12ee","60200e15bc368958338bd3d1","Mozilla/5.0 (Windows NT 6.1; Win64; x64) AppleWebKit/537.36 (KHTML, like Gecko) Chrome/86.0.4240.111 Safari/537.36","v1-up-stims","","","","","","","","40,50,60,70,80","media/audio/stims/spherical_300cm_s20_c20_cd-full_matched_a50.wav","spherical","20","20","full","matched","50","60","1510"
"echo-presentation","89","730485","0.0-89.0","5e29e902c2253a0587298e26","5fef55e628823a0076ec12ee","60200e15bc368958338bd3d1","Mozilla/5.0 (Windows NT 6.1; Win64; x64) AppleWebKit/537.36 (KHTML, like Gecko) Chrome/86.0.4240.111 Safari/537.36","v1-up-stims","","","","","","","","40,50,60,70,80","media/audio/stims/spherical_300cm_s20_c20_cd-full_matched_a70.wav","spherical","20","20","full","matched","70","70","1713"
"echo-presentation","90","732600","0.0-90.0","5e29e902c2253a0587298e26","5fef55e628823a0076ec12ee","60200e15bc368958338bd3d1","Mozilla/5.0 (Windows NT 6.1; Win64; x64) AppleWebKit/537.36 (KHTML, like Gecko) Chrome/86.0.4240.111 Safari/537.36","v1-up-stims","","","","","","","","40,50,60,70,80","media/audio/stims/spherical_300cm_s20_c20_cd-full_matched_a60.wav","spherical","20","20","full","matched","60","80","1199"
"echo-presentation","91","734717","0.0-91.0","5e29e902c2253a0587298e26","5fef55e628823a0076ec12ee","60200e15bc368958338bd3d1","Mozilla/5.0 (Windows NT 6.1; Win64; x64) AppleWebKit/537.36 (KHTML, like Gecko) Chrome/86.0.4240.111 Safari/537.36","v1-up-stims","","","","","","","","40,50,60,70,80","media/audio/stims/spherical_300cm_s20_c20_cd-full_matched_a70.wav","spherical","20","20","full","matched","70","80","1096"
"echo-presentation","92","738006","0.0-92.0","5e29e902c2253a0587298e26","5fef55e628823a0076ec12ee","60200e15bc368958338bd3d1","Mozilla/5.0 (Windows NT 6.1; Win64; x64) AppleWebKit/537.36 (KHTML, like Gecko) Chrome/86.0.4240.111 Safari/537.36","v1-up-stims","","","","","","","","40,50,60,70,80","media/audio/stims/spherical_300cm_s20_c20_cd-full_matched_a50.wav","spherical","20","20","full","matched","50","40","2010"
"echo-presentation","93","740264","0.0-93.0","5e29e902c2253a0587298e26","5fef55e628823a0076ec12ee","60200e15bc368958338bd3d1","Mozilla/5.0 (Windows NT 6.1; Win64; x64) AppleWebKit/537.36 (KHTML, like Gecko) Chrome/86.0.4240.111 Safari/537.36","v1-up-stims","","","","","","","","40,50,60,70,80","media/audio/stims/spherical_300cm_s20_c20_cd-full_matched_a40.wav","spherical","20","20","full","matched","40","50","1420"
"block-bookend","94","749735","0.0-94.0","5e29e902c2253a0587298e26","5fef55e628823a0076ec12ee","60200e15bc368958338bd3d1","Mozilla/5.0 (Windows NT 6.1; Win64; x64) AppleWebKit/537.36 (KHTML, like Gecko) Chrome/86.0.4240.111 Safari/537.36","v1-up-stims","","","","","","","","","","","","","","","","",""
"block-bookend","95","760956","0.0-95.0","5e29e902c2253a0587298e26","5fef55e628823a0076ec12ee","60200e15bc368958338bd3d1","Mozilla/5.0 (Windows NT 6.1; Win64; x64) AppleWebKit/537.36 (KHTML, like Gecko) Chrome/86.0.4240.111 Safari/537.36","v1-up-stims","","","","","","","","","","","","","","","","",""
"echo-presentation","96","765095","0.0-96.0","5e29e902c2253a0587298e26","5fef55e628823a0076ec12ee","60200e15bc368958338bd3d1","Mozilla/5.0 (Windows NT 6.1; Win64; x64) AppleWebKit/537.36 (KHTML, like Gecko) Chrome/86.0.4240.111 Safari/537.36","v1-up-stims","","","","","","","","-20,-10,0,10,20","media/audio/stims/spherical_300cm_s20_c20_cd-full_matched_a-20.wav","spherical","20","20","full","matched","-20","-20","1597"
"echo-presentation","97","767860","0.0-97.0","5e29e902c2253a0587298e26","5fef55e628823a0076ec12ee","60200e15bc368958338bd3d1","Mozilla/5.0 (Windows NT 6.1; Win64; x64) AppleWebKit/537.36 (KHTML, like Gecko) Chrome/86.0.4240.111 Safari/537.36","v1-up-stims","","","","","","","","-20,-10,0,10,20","media/audio/stims/spherical_300cm_s20_c20_cd-full_matched_a0.wav","spherical","20","20","full","matched","0","0","1546"
"echo-presentation","98","770405","0.0-98.0","5e29e902c2253a0587298e26","5fef55e628823a0076ec12ee","60200e15bc368958338bd3d1","Mozilla/5.0 (Windows NT 6.1; Win64; x64) AppleWebKit/537.36 (KHTML, like Gecko) Chrome/86.0.4240.111 Safari/537.36","v1-up-stims","","","","","","","","-20,-10,0,10,20","media/audio/stims/spherical_300cm_s20_c20_cd-full_matched_a-20.wav","spherical","20","20","full","matched","-20","-10","1425"
"echo-presentation","99","773615","0.0-99.0","5e29e902c2253a0587298e26","5fef55e628823a0076ec12ee","60200e15bc368958338bd3d1","Mozilla/5.0 (Windows NT 6.1; Win64; x64) AppleWebKit/537.36 (KHTML, like Gecko) Chrome/86.0.4240.111 Safari/537.36","v1-up-stims","","","","","","","","-20,-10,0,10,20","media/audio/stims/spherical_300cm_s20_c20_cd-full_matched_a20.wav","spherical","20","20","full","matched","20","20","1546"
"echo-presentation","100","776457","0.0-100.0","5e29e902c2253a0587298e26","5fef55e628823a0076ec12ee","60200e15bc368958338bd3d1","Mozilla/5.0 (Windows NT 6.1; Win64; x64) AppleWebKit/537.36 (KHTML, like Gecko) Chrome/86.0.4240.111 Safari/537.36","v1-up-stims","","","","","","","","-20,-10,0,10,20","media/audio/stims/spherical_300cm_s20_c20_cd-full_matched_a10.wav","spherical","20","20","full","matched","10","10","1435"
"echo-presentation","101","778760","0.0-101.0","5e29e902c2253a0587298e26","5fef55e628823a0076ec12ee","60200e15bc368958338bd3d1","Mozilla/5.0 (Windows NT 6.1; Win64; x64) AppleWebKit/537.36 (KHTML, like Gecko) Chrome/86.0.4240.111 Safari/537.36","v1-up-stims","","","","","","","","-20,-10,0,10,20","media/audio/stims/spherical_300cm_s20_c20_cd-full_matched_a-10.wav","spherical","20","20","full","matched","-10","-10","1356"
"echo-presentation","102","781328","0.0-102.0","5e29e902c2253a0587298e26","5fef55e628823a0076ec12ee","60200e15bc368958338bd3d1","Mozilla/5.0 (Windows NT 6.1; Win64; x64) AppleWebKit/537.36 (KHTML, like Gecko) Chrome/86.0.4240.111 Safari/537.36","v1-up-stims","","","","","","","","-20,-10,0,10,20","media/audio/stims/spherical_300cm_s20_c20_cd-full_matched_a10.wav","spherical","20","20","full","matched","10","10","1394"
"echo-presentation","103","784225","0.0-103.0","5e29e902c2253a0587298e26","5fef55e628823a0076ec12ee","60200e15bc368958338bd3d1","Mozilla/5.0 (Windows NT 6.1; Win64; x64) AppleWebKit/537.36 (KHTML, like Gecko) Chrome/86.0.4240.111 Safari/537.36","v1-up-stims","","","","","","","","-20,-10,0,10,20","media/audio/stims/spherical_300cm_s20_c20_cd-full_matched_a20.wav","spherical","20","20","full","matched","20","10","1670"
"echo-presentation","104","786936","0.0-104.0","5e29e902c2253a0587298e26","5fef55e628823a0076ec12ee","60200e15bc368958338bd3d1","Mozilla/5.0 (Windows NT 6.1; Win64; x64) AppleWebKit/537.36 (KHTML, like Gecko) Chrome/86.0.4240.111 Safari/537.36","v1-up-stims","","","","","","","","-20,-10,0,10,20","media/audio/stims/spherical_300cm_s20_c20_cd-full_matched_a-20.wav","spherical","20","20","full","matched","-20","-20","1682"
"echo-presentation","105","789601","0.0-105.0","5e29e902c2253a0587298e26","5fef55e628823a0076ec12ee","60200e15bc368958338bd3d1","Mozilla/5.0 (Windows NT 6.1; Win64; x64) AppleWebKit/537.36 (KHTML, like Gecko) Chrome/86.0.4240.111 Safari/537.36","v1-up-stims","","","","","","","","-20,-10,0,10,20","media/audio/stims/spherical_300cm_s20_c20_cd-full_matched_a-10.wav","spherical","20","20","full","matched","-10","-20","1533"
"echo-presentation","106","792176","0.0-106.0","5e29e902c2253a0587298e26","5fef55e628823a0076ec12ee","60200e15bc368958338bd3d1","Mozilla/5.0 (Windows NT 6.1; Win64; x64) AppleWebKit/537.36 (KHTML, like Gecko) Chrome/86.0.4240.111 Safari/537.36","v1-up-stims","","","","","","","","-20,-10,0,10,20","media/audio/stims/spherical_300cm_s20_c20_cd-full_matched_a20.wav","spherical","20","20","full","matched","20","20","1572"
"echo-presentation","107","795023","0.0-107.0","5e29e902c2253a0587298e26","5fef55e628823a0076ec12ee","60200e15bc368958338bd3d1","Mozilla/5.0 (Windows NT 6.1; Win64; x64) AppleWebKit/537.36 (KHTML, like Gecko) Chrome/86.0.4240.111 Safari/537.36","v1-up-stims","","","","","","","","-20,-10,0,10,20","media/audio/stims/spherical_300cm_s20_c20_cd-full_matched_a0.wav","spherical","20","20","full","matched","0","20","1731"
"echo-presentation","108","797169","0.0-108.0","5e29e902c2253a0587298e26","5fef55e628823a0076ec12ee","60200e15bc368958338bd3d1","Mozilla/5.0 (Windows NT 6.1; Win64; x64) AppleWebKit/537.36 (KHTML, like Gecko) Chrome/86.0.4240.111 Safari/537.36","v1-up-stims","","","","","","","","-20,-10,0,10,20","media/audio/stims/spherical_300cm_s20_c20_cd-full_matched_a-10.wav","spherical","20","20","full","matched","-10","-20","1360"
"echo-presentation","109","799395","0.0-109.0","5e29e902c2253a0587298e26","5fef55e628823a0076ec12ee","60200e15bc368958338bd3d1","Mozilla/5.0 (Windows NT 6.1; Win64; x64) AppleWebKit/537.36 (KHTML, like Gecko) Chrome/86.0.4240.111 Safari/537.36","v1-up-stims","","","","","","","","-20,-10,0,10,20","media/audio/stims/spherical_300cm_s20_c20_cd-full_matched_a20.wav","spherical","20","20","full","matched","20","10","1284"
"echo-presentation","110","801754","0.0-110.0","5e29e902c2253a0587298e26","5fef55e628823a0076ec12ee","60200e15bc368958338bd3d1","Mozilla/5.0 (Windows NT 6.1; Win64; x64) AppleWebKit/537.36 (KHTML, like Gecko) Chrome/86.0.4240.111 Safari/537.36","v1-up-stims","","","","","","","","-20,-10,0,10,20","media/audio/stims/spherical_300cm_s20_c20_cd-full_matched_a10.wav","spherical","20","20","full","matched","10","0","1410"
"echo-presentation","111","804083","0.0-111.0","5e29e902c2253a0587298e26","5fef55e628823a0076ec12ee","60200e15bc368958338bd3d1","Mozilla/5.0 (Windows NT 6.1; Win64; x64) AppleWebKit/537.36 (KHTML, like Gecko) Chrome/86.0.4240.111 Safari/537.36","v1-up-stims","","","","","","","","-20,-10,0,10,20","media/audio/stims/spherical_300cm_s20_c20_cd-full_matched_a-20.wav","spherical","20","20","full","matched","-20","-20","1280"
"echo-presentation","112","807458","0.0-112.0","5e29e902c2253a0587298e26","5fef55e628823a0076ec12ee","60200e15bc368958338bd3d1","Mozilla/5.0 (Windows NT 6.1; Win64; x64) AppleWebKit/537.36 (KHTML, like Gecko) Chrome/86.0.4240.111 Safari/537.36","v1-up-stims","","","","","","","","-20,-10,0,10,20","media/audio/stims/spherical_300cm_s20_c20_cd-full_matched_a0.wav","spherical","20","20","full","matched","0","-10","1950"
"echo-presentation","113","810516","0.0-113.0","5e29e902c2253a0587298e26","5fef55e628823a0076ec12ee","60200e15bc368958338bd3d1","Mozilla/5.0 (Windows NT 6.1; Win64; x64) AppleWebKit/537.36 (KHTML, like Gecko) Chrome/86.0.4240.111 Safari/537.36","v1-up-stims","","","","","","","","-20,-10,0,10,20","media/audio/stims/spherical_300cm_s20_c20_cd-full_matched_a10.wav","spherical","20","20","full","matched","10","0","2200"
"echo-presentation","114","814831","0.0-114.0","5e29e902c2253a0587298e26","5fef55e628823a0076ec12ee","60200e15bc368958338bd3d1","Mozilla/5.0 (Windows NT 6.1; Win64; x64) AppleWebKit/537.36 (KHTML, like Gecko) Chrome/86.0.4240.111 Safari/537.36","v1-up-stims","","","","","","","","-20,-10,0,10,20","media/audio/stims/spherical_300cm_s20_c20_cd-full_matched_a0.wav","spherical","20","20","full","matched","0","-10","1890"
"echo-presentation","115","817564","0.0-115.0","5e29e902c2253a0587298e26","5fef55e628823a0076ec12ee","60200e15bc368958338bd3d1","Mozilla/5.0 (Windows NT 6.1; Win64; x64) AppleWebKit/537.36 (KHTML, like Gecko) Chrome/86.0.4240.111 Safari/537.36","v1-up-stims","","","","","","","","-20,-10,0,10,20","media/audio/stims/spherical_300cm_s20_c20_cd-full_matched_a-10.wav","spherical","20","20","full","matched","-10","-10","1793"
"block-bookend","116","830684","0.0-116.0","5e29e902c2253a0587298e26","5fef55e628823a0076ec12ee","60200e15bc368958338bd3d1","Mozilla/5.0 (Windows NT 6.1; Win64; x64) AppleWebKit/537.36 (KHTML, like Gecko) Chrome/86.0.4240.111 Safari/537.36","v1-up-stims","","","","","","","","","","","","","","","","",""
"block-bookend","117","838839","0.0-117.0","5e29e902c2253a0587298e26","5fef55e628823a0076ec12ee","60200e15bc368958338bd3d1","Mozilla/5.0 (Windows NT 6.1; Win64; x64) AppleWebKit/537.36 (KHTML, like Gecko) Chrome/86.0.4240.111 Safari/537.36","v1-up-stims","","","","","","","","","","","","","","","","",""
"echo-presentation","118","843241","0.0-118.0","5e29e902c2253a0587298e26","5fef55e628823a0076ec12ee","60200e15bc368958338bd3d1","Mozilla/5.0 (Windows NT 6.1; Win64; x64) AppleWebKit/537.36 (KHTML, like Gecko) Chrome/86.0.4240.111 Safari/537.36","v1-up-stims","","","","","","","","-20,-10,0,10,20","media/audio/stims/spherical_300cm_s20_c20_cd-full_matched_a0.wav","spherical","20","20","full","matched","0","-10","2122"
"echo-presentation","119","845407","0.0-119.0","5e29e902c2253a0587298e26","5fef55e628823a0076ec12ee","60200e15bc368958338bd3d1","Mozilla/5.0 (Windows NT 6.1; Win64; x64) AppleWebKit/537.36 (KHTML, like Gecko) Chrome/86.0.4240.111 Safari/537.36","v1-up-stims","","","","","","","","-20,-10,0,10,20","media/audio/stims/spherical_300cm_s20_c20_cd-full_matched_a-10.wav","spherical","20","20","full","matched","-10","-20","1149"
"echo-presentation","120","847871","0.0-120.0","5e29e902c2253a0587298e26","5fef55e628823a0076ec12ee","60200e15bc368958338bd3d1","Mozilla/5.0 (Windows NT 6.1; Win64; x64) AppleWebKit/537.36 (KHTML, like Gecko) Chrome/86.0.4240.111 Safari/537.36","v1-up-stims","","","","","","","","-20,-10,0,10,20","media/audio/stims/spherical_300cm_s20_c20_cd-full_matched_a20.wav","spherical","20","20","full","matched","20","10","1189"
"echo-presentation","121","850234","0.0-121.0","5e29e902c2253a0587298e26","5fef55e628823a0076ec12ee","60200e15bc368958338bd3d1","Mozilla/5.0 (Windows NT 6.1; Win64; x64) AppleWebKit/537.36 (KHTML, like Gecko) Chrome/86.0.4240.111 Safari/537.36","v1-up-stims","","","","","","","","-20,-10,0,10,20","media/audio/stims/spherical_300cm_s20_c20_cd-full_matched_a20.wav","spherical","20","20","full","matched","20","0","1265"
"echo-presentation","122","853040","0.0-122.0","5e29e902c2253a0587298e26","5fef55e628823a0076ec12ee","60200e15bc368958338bd3d1","Mozilla/5.0 (Windows NT 6.1; Win64; x64) AppleWebKit/537.36 (KHTML, like Gecko) Chrome/86.0.4240.111 Safari/537.36","v1-up-stims","","","","","","","","-20,-10,0,10,20","media/audio/stims/spherical_300cm_s20_c20_cd-full_matched_a20.wav","spherical","20","20","full","matched","20","10","1718"
"echo-presentation","123","855257","0.0-123.0","5e29e902c2253a0587298e26","5fef55e628823a0076ec12ee","60200e15bc368958338bd3d1","Mozilla/5.0 (Windows NT 6.1; Win64; x64) AppleWebKit/537.36 (KHTML, like Gecko) Chrome/86.0.4240.111 Safari/537.36","v1-up-stims","","","","","","","","-20,-10,0,10,20","media/audio/stims/spherical_300cm_s20_c20_cd-full_matched_a-20.wav","spherical","20","20","full","matched","-20","-10","1111"
"echo-presentation","124","857780","0.0-124.0","5e29e902c2253a0587298e26","5fef55e628823a0076ec12ee","60200e15bc368958338bd3d1","Mozilla/5.0 (Windows NT 6.1; Win64; x64) AppleWebKit/537.36 (KHTML, like Gecko) Chrome/86.0.4240.111 Safari/537.36","v1-up-stims","","","","","","","","-20,-10,0,10,20","media/audio/stims/spherical_300cm_s20_c20_cd-full_matched_a0.wav","spherical","20","20","full","matched","0","-10","1405"
"echo-presentation","125","859974","0.0-125.0","5e29e902c2253a0587298e26","5fef55e628823a0076ec12ee","60200e15bc368958338bd3d1","Mozilla/5.0 (Windows NT 6.1; Win64; x64) AppleWebKit/537.36 (KHTML, like Gecko) Chrome/86.0.4240.111 Safari/537.36","v1-up-stims","","","","","","","","-20,-10,0,10,20","media/audio/stims/spherical_300cm_s20_c20_cd-full_matched_a-10.wav","spherical","20","20","full","matched","-10","-10","1123"
"echo-presentation","126","862282","0.0-126.0","5e29e902c2253a0587298e26","5fef55e628823a0076ec12ee","60200e15bc368958338bd3d1","Mozilla/5.0 (Windows NT 6.1; Win64; x64) AppleWebKit/537.36 (KHTML, like Gecko) Chrome/86.0.4240.111 Safari/537.36","v1-up-stims","","","","","","","","-20,-10,0,10,20","media/audio/stims/spherical_300cm_s20_c20_cd-full_matched_a-20.wav","spherical","20","20","full","matched","-20","-20","1118"
"echo-presentation","127","864838","0.0-127.0","5e29e902c2253a0587298e26","5fef55e628823a0076ec12ee","60200e15bc368958338bd3d1","Mozilla/5.0 (Windows NT 6.1; Win64; x64) AppleWebKit/537.36 (KHTML, like Gecko) Chrome/86.0.4240.111 Safari/537.36","v1-up-stims","","","","","","","","-20,-10,0,10,20","media/audio/stims/spherical_300cm_s20_c20_cd-full_matched_a10.wav","spherical","20","20","full","matched","10","10","1382"
"echo-presentation","128","867467","0.0-128.0","5e29e902c2253a0587298e26","5fef55e628823a0076ec12ee","60200e15bc368958338bd3d1","Mozilla/5.0 (Windows NT 6.1; Win64; x64) AppleWebKit/537.36 (KHTML, like Gecko) Chrome/86.0.4240.111 Safari/537.36","v1-up-stims","","","","","","","","-20,-10,0,10,20","media/audio/stims/spherical_300cm_s20_c20_cd-full_matched_a-20.wav","spherical","20","20","full","matched","-20","-10","1531"
"echo-presentation","129","869638","0.0-129.0","5e29e902c2253a0587298e26","5fef55e628823a0076ec12ee","60200e15bc368958338bd3d1","Mozilla/5.0 (Windows NT 6.1; Win64; x64) AppleWebKit/537.36 (KHTML, like Gecko) Chrome/86.0.4240.111 Safari/537.36","v1-up-stims","","","","","","","","-20,-10,0,10,20","media/audio/stims/spherical_300cm_s20_c20_cd-full_matched_a10.wav","spherical","20","20","full","matched","10","10","1108"
"echo-presentation","130","872136","0.0-130.0","5e29e902c2253a0587298e26","5fef55e628823a0076ec12ee","60200e15bc368958338bd3d1","Mozilla/5.0 (Windows NT 6.1; Win64; x64) AppleWebKit/537.36 (KHTML, like Gecko) Chrome/86.0.4240.111 Safari/537.36","v1-up-stims","","","","","","","","-20,-10,0,10,20","media/audio/stims/spherical_300cm_s20_c20_cd-full_matched_a10.wav","spherical","20","20","full","matched","10","0","1178"
"echo-presentation","131","874485","0.0-131.0","5e29e902c2253a0587298e26","5fef55e628823a0076ec12ee","60200e15bc368958338bd3d1","Mozilla/5.0 (Windows NT 6.1; Win64; x64) AppleWebKit/537.36 (KHTML, like Gecko) Chrome/86.0.4240.111 Safari/537.36","v1-up-stims","","","","","","","","-20,-10,0,10,20","media/audio/stims/spherical_300cm_s20_c20_cd-full_matched_a0.wav","spherical","20","20","full","matched","0","0","1178"
"echo-presentation","132","877221","0.0-132.0","5e29e902c2253a0587298e26","5fef55e628823a0076ec12ee","60200e15bc368958338bd3d1","Mozilla/5.0 (Windows NT 6.1; Win64; x64) AppleWebKit/537.36 (KHTML, like Gecko) Chrome/86.0.4240.111 Safari/537.36","v1-up-stims","","","","","","","","-20,-10,0,10,20","media/audio/stims/spherical_300cm_s20_c20_cd-full_matched_a10.wav","spherical","20","20","full","matched","10","0","1382"
"echo-presentation","133","879968","0.0-133.0","5e29e902c2253a0587298e26","5fef55e628823a0076ec12ee","60200e15bc368958338bd3d1","Mozilla/5.0 (Windows NT 6.1; Win64; x64) AppleWebKit/537.36 (KHTML, like Gecko) Chrome/86.0.4240.111 Safari/537.36","v1-up-stims","","","","","","","","-20,-10,0,10,20","media/audio/stims/spherical_300cm_s20_c20_cd-full_matched_a-20.wav","spherical","20","20","full","matched","-20","-10","1597"
"echo-presentation","134","883963","0.0-134.0","5e29e902c2253a0587298e26","5fef55e628823a0076ec12ee","60200e15bc368958338bd3d1","Mozilla/5.0 (Windows NT 6.1; Win64; x64) AppleWebKit/537.36 (KHTML, like Gecko) Chrome/86.0.4240.111 Safari/537.36","v1-up-stims","","","","","","","","-20,-10,0,10,20","media/audio/stims/spherical_300cm_s20_c20_cd-full_matched_a0.wav","spherical","20","20","full","matched","0","0","3058"
"echo-presentation","135","886394","0.0-135.0","5e29e902c2253a0587298e26","5fef55e628823a0076ec12ee","60200e15bc368958338bd3d1","Mozilla/5.0 (Windows NT 6.1; Win64; x64) AppleWebKit/537.36 (KHTML, like Gecko) Chrome/86.0.4240.111 Safari/537.36","v1-up-stims","","","","","","","","-20,-10,0,10,20","media/audio/stims/spherical_300cm_s20_c20_cd-full_matched_a-10.wav","spherical","20","20","full","matched","-10","-20","1347"
"echo-presentation","136","888487","0.0-136.0","5e29e902c2253a0587298e26","5fef55e628823a0076ec12ee","60200e15bc368958338bd3d1","Mozilla/5.0 (Windows NT 6.1; Win64; x64) AppleWebKit/537.36 (KHTML, like Gecko) Chrome/86.0.4240.111 Safari/537.36","v1-up-stims","","","","","","","","-20,-10,0,10,20","media/audio/stims/spherical_300cm_s20_c20_cd-full_matched_a-10.wav","spherical","20","20","full","matched","-10","-20","1137"
"echo-presentation","137","890783","0.0-137.0","5e29e902c2253a0587298e26","5fef55e628823a0076ec12ee","60200e15bc368958338bd3d1","Mozilla/5.0 (Windows NT 6.1; Win64; x64) AppleWebKit/537.36 (KHTML, like Gecko) Chrome/86.0.4240.111 Safari/537.36","v1-up-stims","","","","","","","","-20,-10,0,10,20","media/audio/stims/spherical_300cm_s20_c20_cd-full_matched_a20.wav","spherical","20","20","full","matched","20","10","1254"
"block-bookend","138","895010","0.0-138.0","5e29e902c2253a0587298e26","5fef55e628823a0076ec12ee","60200e15bc368958338bd3d1","Mozilla/5.0 (Windows NT 6.1; Win64; x64) AppleWebKit/537.36 (KHTML, like Gecko) Chrome/86.0.4240.111 Safari/537.36","v1-up-stims","","","","","","","","","","","","","","","","",""
