"trial_type","trial_index","time_elapsed","internal_node_id","prolificPid","studyId","sessionId","userAgent","version","rt","stimulus","key_press","chosenKeyset","failureCount","testIndex","globalVolume","choices","filename","modelName","slowdown","compensation","compensationDescriptor","receiverOrientationType","azimuth","responseAzimuth","responseDelay"
"pavlovia","0","5","0.0-0.0","5f7725e18a6ec01fb01238d1","5fef55e628823a0076ec12ee","60200e1d76e6d65a69b5a16e","Mozilla/5.0 (Windows NT 10.0; Win64; x64) AppleWebKit/537.36 (KHTML, like Gecko) Chrome/86.0.4240.198 Safari/537.36 OPR/72.0.3815.487","v1-up-stims","","","","","","","","","","","","","","","","",""
"html-keyboard-response","1","4038","0.0-1.0","5f7725e18a6ec01fb01238d1","5fef55e628823a0076ec12ee","60200e1d76e6d65a69b5a16e","Mozilla/5.0 (Windows NT 10.0; Win64; x64) AppleWebKit/537.36 (KHTML, like Gecko) Chrome/86.0.4240.198 Safari/537.36 OPR/72.0.3815.487","v1-up-stims","4031.569999999192","<div><h1>Welcome!</h1><p>Press any key to continue.</p></div>","39","","","","","","","","","","","","","",""
"consent-form","2","8548","0.0-2.0","5f7725e18a6ec01fb01238d1","5fef55e628823a0076ec12ee","60200e1d76e6d65a69b5a16e","Mozilla/5.0 (Windows NT 10.0; Win64; x64) AppleWebKit/537.36 (KHTML, like Gecko) Chrome/86.0.4240.198 Safari/537.36 OPR/72.0.3815.487","v1-up-stims","","","","","","","","","","","","","","","","",""
"keyset-select","3","11978","0.0-3.0","5f7725e18a6ec01fb01238d1","5fef55e628823a0076ec12ee","60200e1d76e6d65a69b5a16e","Mozilla/5.0 (Windows NT 10.0; Win64; x64) AppleWebKit/537.36 (KHTML, like Gecko) Chrome/86.0.4240.198 Safari/537.36 OPR/72.0.3815.487","v1-up-stims","","","","left-hand","","","","","","","","","","","","",""
"headphone-check","4","45294","0.0-4.0","5f7725e18a6ec01fb01238d1","5fef55e628823a0076ec12ee","60200e1d76e6d65a69b5a16e","Mozilla/5.0 (Windows NT 10.0; Win64; x64) AppleWebKit/537.36 (KHTML, like Gecko) Chrome/86.0.4240.198 Safari/537.36 OPR/72.0.3815.487","v1-up-stims","","","","","0","6","0.3","","","","","","","","","",""
"headphone-backwards-check","5","50236","0.0-5.0","5f7725e18a6ec01fb01238d1","5fef55e628823a0076ec12ee","60200e1d76e6d65a69b5a16e","Mozilla/5.0 (Windows NT 10.0; Win64; x64) AppleWebKit/537.36 (KHTML, like Gecko) Chrome/86.0.4240.198 Safari/537.36 OPR/72.0.3815.487","v1-up-stims","","","","","0","","","","","","","","","","","",""
"training","6","124563","0.0-6.0","5f7725e18a6ec01fb01238d1","5fef55e628823a0076ec12ee","60200e1d76e6d65a69b5a16e","Mozilla/5.0 (Windows NT 10.0; Win64; x64) AppleWebKit/537.36 (KHTML, like Gecko) Chrome/86.0.4240.198 Safari/537.36 OPR/72.0.3815.487","v1-up-stims","","","","","","","","","","","","","","","","",""
"block-bookend","7","135387","0.0-7.0","5f7725e18a6ec01fb01238d1","5fef55e628823a0076ec12ee","60200e1d76e6d65a69b5a16e","Mozilla/5.0 (Windows NT 10.0; Win64; x64) AppleWebKit/537.36 (KHTML, like Gecko) Chrome/86.0.4240.198 Safari/537.36 OPR/72.0.3815.487","v1-up-stims","","","","","","","","","","","","","","","","",""
"echo-presentation","8","139379","0.0-8.0","5f7725e18a6ec01fb01238d1","5fef55e628823a0076ec12ee","60200e1d76e6d65a69b5a16e","Mozilla/5.0 (Windows NT 10.0; Win64; x64) AppleWebKit/537.36 (KHTML, like Gecko) Chrome/86.0.4240.198 Safari/537.36 OPR/72.0.3815.487","v1-up-stims","","","","","","","","-80,-70,-60,-50,-40","media/audio/stims/spherical_300cm_s20_c20_cd-full_matched_a-50.wav","spherical","20","20","full","matched","-50","-80","1557"
"echo-presentation","9","145274","0.0-9.0","5f7725e18a6ec01fb01238d1","5fef55e628823a0076ec12ee","60200e1d76e6d65a69b5a16e","Mozilla/5.0 (Windows NT 10.0; Win64; x64) AppleWebKit/537.36 (KHTML, like Gecko) Chrome/86.0.4240.198 Safari/537.36 OPR/72.0.3815.487","v1-up-stims","","","","","","","","-80,-70,-60,-50,-40","media/audio/stims/spherical_300cm_s20_c20_cd-full_matched_a-60.wav","spherical","20","20","full","matched","-60","-60","4130"
"echo-presentation","10","147390","0.0-10.0","5f7725e18a6ec01fb01238d1","5fef55e628823a0076ec12ee","60200e1d76e6d65a69b5a16e","Mozilla/5.0 (Windows NT 10.0; Win64; x64) AppleWebKit/537.36 (KHTML, like Gecko) Chrome/86.0.4240.198 Safari/537.36 OPR/72.0.3815.487","v1-up-stims","","","","","","","","-80,-70,-60,-50,-40","media/audio/stims/spherical_300cm_s20_c20_cd-full_matched_a-80.wav","spherical","20","20","full","matched","-80","-80","1014"
"echo-presentation","11","149604","0.0-11.0","5f7725e18a6ec01fb01238d1","5fef55e628823a0076ec12ee","60200e1d76e6d65a69b5a16e","Mozilla/5.0 (Windows NT 10.0; Win64; x64) AppleWebKit/537.36 (KHTML, like Gecko) Chrome/86.0.4240.198 Safari/537.36 OPR/72.0.3815.487","v1-up-stims","","","","","","","","-80,-70,-60,-50,-40","media/audio/stims/spherical_300cm_s20_c20_cd-full_matched_a-60.wav","spherical","20","20","full","matched","-60","-80","982"
"echo-presentation","12","152657","0.0-12.0","5f7725e18a6ec01fb01238d1","5fef55e628823a0076ec12ee","60200e1d76e6d65a69b5a16e","Mozilla/5.0 (Windows NT 10.0; Win64; x64) AppleWebKit/537.36 (KHTML, like Gecko) Chrome/86.0.4240.198 Safari/537.36 OPR/72.0.3815.487","v1-up-stims","","","","","","","","-80,-70,-60,-50,-40","media/audio/stims/spherical_300cm_s20_c20_cd-full_matched_a-40.wav","spherical","20","20","full","matched","-40","-70","1726"
"echo-presentation","13","154706","0.0-13.0","5f7725e18a6ec01fb01238d1","5fef55e628823a0076ec12ee","60200e1d76e6d65a69b5a16e","Mozilla/5.0 (Windows NT 10.0; Win64; x64) AppleWebKit/537.36 (KHTML, like Gecko) Chrome/86.0.4240.198 Safari/537.36 OPR/72.0.3815.487","v1-up-stims","","","","","","","","-80,-70,-60,-50,-40","media/audio/stims/spherical_300cm_s20_c20_cd-full_matched_a-70.wav","spherical","20","20","full","matched","-70","-80","997"
"echo-presentation","14","157304","0.0-14.0","5f7725e18a6ec01fb01238d1","5fef55e628823a0076ec12ee","60200e1d76e6d65a69b5a16e","Mozilla/5.0 (Windows NT 10.0; Win64; x64) AppleWebKit/537.36 (KHTML, like Gecko) Chrome/86.0.4240.198 Safari/537.36 OPR/72.0.3815.487","v1-up-stims","","","","","","","","-80,-70,-60,-50,-40","media/audio/stims/spherical_300cm_s20_c20_cd-full_matched_a-80.wav","spherical","20","20","full","matched","-80","-80","1110"
"echo-presentation","15","159963","0.0-15.0","5f7725e18a6ec01fb01238d1","5fef55e628823a0076ec12ee","60200e1d76e6d65a69b5a16e","Mozilla/5.0 (Windows NT 10.0; Win64; x64) AppleWebKit/537.36 (KHTML, like Gecko) Chrome/86.0.4240.198 Safari/537.36 OPR/72.0.3815.487","v1-up-stims","","","","","","","","-80,-70,-60,-50,-40","media/audio/stims/spherical_300cm_s20_c20_cd-full_matched_a-70.wav","spherical","20","20","full","matched","-70","-80","1443"
"echo-presentation","16","162095","0.0-16.0","5f7725e18a6ec01fb01238d1","5fef55e628823a0076ec12ee","60200e1d76e6d65a69b5a16e","Mozilla/5.0 (Windows NT 10.0; Win64; x64) AppleWebKit/537.36 (KHTML, like Gecko) Chrome/86.0.4240.198 Safari/537.36 OPR/72.0.3815.487","v1-up-stims","","","","","","","","-80,-70,-60,-50,-40","media/audio/stims/spherical_300cm_s20_c20_cd-full_matched_a-60.wav","spherical","20","20","full","matched","-60","-80","1030"
"echo-presentation","17","166338","0.0-17.0","5f7725e18a6ec01fb01238d1","5fef55e628823a0076ec12ee","60200e1d76e6d65a69b5a16e","Mozilla/5.0 (Windows NT 10.0; Win64; x64) AppleWebKit/537.36 (KHTML, like Gecko) Chrome/86.0.4240.198 Safari/537.36 OPR/72.0.3815.487","v1-up-stims","","","","","","","","-80,-70,-60,-50,-40","media/audio/stims/spherical_300cm_s20_c20_cd-full_matched_a-50.wav","spherical","20","20","full","matched","-50","-80","3117"
"echo-presentation","18","168738","0.0-18.0","5f7725e18a6ec01fb01238d1","5fef55e628823a0076ec12ee","60200e1d76e6d65a69b5a16e","Mozilla/5.0 (Windows NT 10.0; Win64; x64) AppleWebKit/537.36 (KHTML, like Gecko) Chrome/86.0.4240.198 Safari/537.36 OPR/72.0.3815.487","v1-up-stims","","","","","","","","-80,-70,-60,-50,-40","media/audio/stims/spherical_300cm_s20_c20_cd-full_matched_a-50.wav","spherical","20","20","full","matched","-50","-80","1069"
"echo-presentation","19","171375","0.0-19.0","5f7725e18a6ec01fb01238d1","5fef55e628823a0076ec12ee","60200e1d76e6d65a69b5a16e","Mozilla/5.0 (Windows NT 10.0; Win64; x64) AppleWebKit/537.36 (KHTML, like Gecko) Chrome/86.0.4240.198 Safari/537.36 OPR/72.0.3815.487","v1-up-stims","","","","","","","","-80,-70,-60,-50,-40","media/audio/stims/spherical_300cm_s20_c20_cd-full_matched_a-70.wav","spherical","20","20","full","matched","-70","-80","1508"
"echo-presentation","20","173799","0.0-20.0","5f7725e18a6ec01fb01238d1","5fef55e628823a0076ec12ee","60200e1d76e6d65a69b5a16e","Mozilla/5.0 (Windows NT 10.0; Win64; x64) AppleWebKit/537.36 (KHTML, like Gecko) Chrome/86.0.4240.198 Safari/537.36 OPR/72.0.3815.487","v1-up-stims","","","","","","","","-80,-70,-60,-50,-40","media/audio/stims/spherical_300cm_s20_c20_cd-full_matched_a-40.wav","spherical","20","20","full","matched","-40","-80","1291"
"echo-presentation","21","176243","0.0-21.0","5f7725e18a6ec01fb01238d1","5fef55e628823a0076ec12ee","60200e1d76e6d65a69b5a16e","Mozilla/5.0 (Windows NT 10.0; Win64; x64) AppleWebKit/537.36 (KHTML, like Gecko) Chrome/86.0.4240.198 Safari/537.36 OPR/72.0.3815.487","v1-up-stims","","","","","","","","-80,-70,-60,-50,-40","media/audio/stims/spherical_300cm_s20_c20_cd-full_matched_a-40.wav","spherical","20","20","full","matched","-40","-80","1524"
"echo-presentation","22","178605","0.0-22.0","5f7725e18a6ec01fb01238d1","5fef55e628823a0076ec12ee","60200e1d76e6d65a69b5a16e","Mozilla/5.0 (Windows NT 10.0; Win64; x64) AppleWebKit/537.36 (KHTML, like Gecko) Chrome/86.0.4240.198 Safari/537.36 OPR/72.0.3815.487","v1-up-stims","","","","","","","","-80,-70,-60,-50,-40","media/audio/stims/spherical_300cm_s20_c20_cd-full_matched_a-40.wav","spherical","20","20","full","matched","-40","-80","1509"
"echo-presentation","23","180464","0.0-23.0","5f7725e18a6ec01fb01238d1","5fef55e628823a0076ec12ee","60200e1d76e6d65a69b5a16e","Mozilla/5.0 (Windows NT 10.0; Win64; x64) AppleWebKit/537.36 (KHTML, like Gecko) Chrome/86.0.4240.198 Safari/537.36 OPR/72.0.3815.487","v1-up-stims","","","","","","","","-80,-70,-60,-50,-40","media/audio/stims/spherical_300cm_s20_c20_cd-full_matched_a-80.wav","spherical","20","20","full","matched","-80","-80","1091"
"echo-presentation","24","182430","0.0-24.0","5f7725e18a6ec01fb01238d1","5fef55e628823a0076ec12ee","60200e1d76e6d65a69b5a16e","Mozilla/5.0 (Windows NT 10.0; Win64; x64) AppleWebKit/537.36 (KHTML, like Gecko) Chrome/86.0.4240.198 Safari/537.36 OPR/72.0.3815.487","v1-up-stims","","","","","","","","-80,-70,-60,-50,-40","media/audio/stims/spherical_300cm_s20_c20_cd-full_matched_a-50.wav","spherical","20","20","full","matched","-50","-80","926"
"echo-presentation","25","184580","0.0-25.0","5f7725e18a6ec01fb01238d1","5fef55e628823a0076ec12ee","60200e1d76e6d65a69b5a16e","Mozilla/5.0 (Windows NT 10.0; Win64; x64) AppleWebKit/537.36 (KHTML, like Gecko) Chrome/86.0.4240.198 Safari/537.36 OPR/72.0.3815.487","v1-up-stims","","","","","","","","-80,-70,-60,-50,-40","media/audio/stims/spherical_300cm_s20_c20_cd-full_matched_a-60.wav","spherical","20","20","full","matched","-60","-80","1228"
"echo-presentation","26","186362","0.0-26.0","5f7725e18a6ec01fb01238d1","5fef55e628823a0076ec12ee","60200e1d76e6d65a69b5a16e","Mozilla/5.0 (Windows NT 10.0; Win64; x64) AppleWebKit/537.36 (KHTML, like Gecko) Chrome/86.0.4240.198 Safari/537.36 OPR/72.0.3815.487","v1-up-stims","","","","","","","","-80,-70,-60,-50,-40","media/audio/stims/spherical_300cm_s20_c20_cd-full_matched_a-80.wav","spherical","20","20","full","matched","-80","-80","966"
"echo-presentation","27","188789","0.0-27.0","5f7725e18a6ec01fb01238d1","5fef55e628823a0076ec12ee","60200e1d76e6d65a69b5a16e","Mozilla/5.0 (Windows NT 10.0; Win64; x64) AppleWebKit/537.36 (KHTML, like Gecko) Chrome/86.0.4240.198 Safari/537.36 OPR/72.0.3815.487","v1-up-stims","","","","","","","","-80,-70,-60,-50,-40","media/audio/stims/spherical_300cm_s20_c20_cd-full_matched_a-70.wav","spherical","20","20","full","matched","-70","-80","1405"
"block-bookend","28","191907","0.0-28.0","5f7725e18a6ec01fb01238d1","5fef55e628823a0076ec12ee","60200e1d76e6d65a69b5a16e","Mozilla/5.0 (Windows NT 10.0; Win64; x64) AppleWebKit/537.36 (KHTML, like Gecko) Chrome/86.0.4240.198 Safari/537.36 OPR/72.0.3815.487","v1-up-stims","","","","","","","","","","","","","","","","",""
"block-bookend","29","199563","0.0-29.0","5f7725e18a6ec01fb01238d1","5fef55e628823a0076ec12ee","60200e1d76e6d65a69b5a16e","Mozilla/5.0 (Windows NT 10.0; Win64; x64) AppleWebKit/537.36 (KHTML, like Gecko) Chrome/86.0.4240.198 Safari/537.36 OPR/72.0.3815.487","v1-up-stims","","","","","","","","","","","","","","","","",""
"echo-presentation","30","202048","0.0-30.0","5f7725e18a6ec01fb01238d1","5fef55e628823a0076ec12ee","60200e1d76e6d65a69b5a16e","Mozilla/5.0 (Windows NT 10.0; Win64; x64) AppleWebKit/537.36 (KHTML, like Gecko) Chrome/86.0.4240.198 Safari/537.36 OPR/72.0.3815.487","v1-up-stims","","","","","","","","-80,-70,-60,-50,-40","media/audio/stims/spherical_300cm_s20_c20_cd-full_matched_a-60.wav","spherical","20","20","full","matched","-60","-80","1182"
"echo-presentation","31","204272","0.0-31.0","5f7725e18a6ec01fb01238d1","5fef55e628823a0076ec12ee","60200e1d76e6d65a69b5a16e","Mozilla/5.0 (Windows NT 10.0; Win64; x64) AppleWebKit/537.36 (KHTML, like Gecko) Chrome/86.0.4240.198 Safari/537.36 OPR/72.0.3815.487","v1-up-stims","","","","","","","","-80,-70,-60,-50,-40","media/audio/stims/spherical_300cm_s20_c20_cd-full_matched_a-80.wav","spherical","20","20","full","matched","-80","-80","1229"
"echo-presentation","32","206530","0.0-32.0","5f7725e18a6ec01fb01238d1","5fef55e628823a0076ec12ee","60200e1d76e6d65a69b5a16e","Mozilla/5.0 (Windows NT 10.0; Win64; x64) AppleWebKit/537.36 (KHTML, like Gecko) Chrome/86.0.4240.198 Safari/537.36 OPR/72.0.3815.487","v1-up-stims","","","","","","","","-80,-70,-60,-50,-40","media/audio/stims/spherical_300cm_s20_c20_cd-full_matched_a-60.wav","spherical","20","20","full","matched","-60","-80","1372"
"echo-presentation","33","209165","0.0-33.0","5f7725e18a6ec01fb01238d1","5fef55e628823a0076ec12ee","60200e1d76e6d65a69b5a16e","Mozilla/5.0 (Windows NT 10.0; Win64; x64) AppleWebKit/537.36 (KHTML, like Gecko) Chrome/86.0.4240.198 Safari/537.36 OPR/72.0.3815.487","v1-up-stims","","","","","","","","-80,-70,-60,-50,-40","media/audio/stims/spherical_300cm_s20_c20_cd-full_matched_a-80.wav","spherical","20","20","full","matched","-80","-80","1710"
"echo-presentation","34","211105","0.0-34.0","5f7725e18a6ec01fb01238d1","5fef55e628823a0076ec12ee","60200e1d76e6d65a69b5a16e","Mozilla/5.0 (Windows NT 10.0; Win64; x64) AppleWebKit/537.36 (KHTML, like Gecko) Chrome/86.0.4240.198 Safari/537.36 OPR/72.0.3815.487","v1-up-stims","","","","","","","","-80,-70,-60,-50,-40","media/audio/stims/spherical_300cm_s20_c20_cd-full_matched_a-70.wav","spherical","20","20","full","matched","-70","-80","1069"
"echo-presentation","35","212962","0.0-35.0","5f7725e18a6ec01fb01238d1","5fef55e628823a0076ec12ee","60200e1d76e6d65a69b5a16e","Mozilla/5.0 (Windows NT 10.0; Win64; x64) AppleWebKit/537.36 (KHTML, like Gecko) Chrome/86.0.4240.198 Safari/537.36 OPR/72.0.3815.487","v1-up-stims","","","","","","","","-80,-70,-60,-50,-40","media/audio/stims/spherical_300cm_s20_c20_cd-full_matched_a-40.wav","spherical","20","20","full","matched","-40","-80","989"
"echo-presentation","36","215061","0.0-36.0","5f7725e18a6ec01fb01238d1","5fef55e628823a0076ec12ee","60200e1d76e6d65a69b5a16e","Mozilla/5.0 (Windows NT 10.0; Win64; x64) AppleWebKit/537.36 (KHTML, like Gecko) Chrome/86.0.4240.198 Safari/537.36 OPR/72.0.3815.487","v1-up-stims","","","","","","","","-80,-70,-60,-50,-40","media/audio/stims/spherical_300cm_s20_c20_cd-full_matched_a-50.wav","spherical","20","20","full","matched","-50","-80","973"
"echo-presentation","37","217089","0.0-37.0","5f7725e18a6ec01fb01238d1","5fef55e628823a0076ec12ee","60200e1d76e6d65a69b5a16e","Mozilla/5.0 (Windows NT 10.0; Win64; x64) AppleWebKit/537.36 (KHTML, like Gecko) Chrome/86.0.4240.198 Safari/537.36 OPR/72.0.3815.487","v1-up-stims","","","","","","","","-80,-70,-60,-50,-40","media/audio/stims/spherical_300cm_s20_c20_cd-full_matched_a-40.wav","spherical","20","20","full","matched","-40","-80","1004"
"echo-presentation","38","219896","0.0-38.0","5f7725e18a6ec01fb01238d1","5fef55e628823a0076ec12ee","60200e1d76e6d65a69b5a16e","Mozilla/5.0 (Windows NT 10.0; Win64; x64) AppleWebKit/537.36 (KHTML, like Gecko) Chrome/86.0.4240.198 Safari/537.36 OPR/72.0.3815.487","v1-up-stims","","","","","","","","-80,-70,-60,-50,-40","media/audio/stims/spherical_300cm_s20_c20_cd-full_matched_a-70.wav","spherical","20","20","full","matched","-70","-70","1773"
"echo-presentation","39","222139","0.0-39.0","5f7725e18a6ec01fb01238d1","5fef55e628823a0076ec12ee","60200e1d76e6d65a69b5a16e","Mozilla/5.0 (Windows NT 10.0; Win64; x64) AppleWebKit/537.36 (KHTML, like Gecko) Chrome/86.0.4240.198 Safari/537.36 OPR/72.0.3815.487","v1-up-stims","","","","","","","","-80,-70,-60,-50,-40","media/audio/stims/spherical_300cm_s20_c20_cd-full_matched_a-50.wav","spherical","20","20","full","matched","-50","-80","1470"
"echo-presentation","40","224075","0.0-40.0","5f7725e18a6ec01fb01238d1","5fef55e628823a0076ec12ee","60200e1d76e6d65a69b5a16e","Mozilla/5.0 (Windows NT 10.0; Win64; x64) AppleWebKit/537.36 (KHTML, like Gecko) Chrome/86.0.4240.198 Safari/537.36 OPR/72.0.3815.487","v1-up-stims","","","","","","","","-80,-70,-60,-50,-40","media/audio/stims/spherical_300cm_s20_c20_cd-full_matched_a-80.wav","spherical","20","20","full","matched","-80","-80","917"
"echo-presentation","41","226052","0.0-41.0","5f7725e18a6ec01fb01238d1","5fef55e628823a0076ec12ee","60200e1d76e6d65a69b5a16e","Mozilla/5.0 (Windows NT 10.0; Win64; x64) AppleWebKit/537.36 (KHTML, like Gecko) Chrome/86.0.4240.198 Safari/537.36 OPR/72.0.3815.487","v1-up-stims","","","","","","","","-80,-70,-60,-50,-40","media/audio/stims/spherical_300cm_s20_c20_cd-full_matched_a-70.wav","spherical","20","20","full","matched","-70","-80","870"
"echo-presentation","42","228062","0.0-42.0","5f7725e18a6ec01fb01238d1","5fef55e628823a0076ec12ee","60200e1d76e6d65a69b5a16e","Mozilla/5.0 (Windows NT 10.0; Win64; x64) AppleWebKit/537.36 (KHTML, like Gecko) Chrome/86.0.4240.198 Safari/537.36 OPR/72.0.3815.487","v1-up-stims","","","","","","","","-80,-70,-60,-50,-40","media/audio/stims/spherical_300cm_s20_c20_cd-full_matched_a-70.wav","spherical","20","20","full","matched","-70","-80","965"
"echo-presentation","43","230108","0.0-43.0","5f7725e18a6ec01fb01238d1","5fef55e628823a0076ec12ee","60200e1d76e6d65a69b5a16e","Mozilla/5.0 (Windows NT 10.0; Win64; x64) AppleWebKit/537.36 (KHTML, like Gecko) Chrome/86.0.4240.198 Safari/537.36 OPR/72.0.3815.487","v1-up-stims","","","","","","","","-80,-70,-60,-50,-40","media/audio/stims/spherical_300cm_s20_c20_cd-full_matched_a-60.wav","spherical","20","20","full","matched","-60","-80","1070"
"echo-presentation","44","231849","0.0-44.0","5f7725e18a6ec01fb01238d1","5fef55e628823a0076ec12ee","60200e1d76e6d65a69b5a16e","Mozilla/5.0 (Windows NT 10.0; Win64; x64) AppleWebKit/537.36 (KHTML, like Gecko) Chrome/86.0.4240.198 Safari/537.36 OPR/72.0.3815.487","v1-up-stims","","","","","","","","-80,-70,-60,-50,-40","media/audio/stims/spherical_300cm_s20_c20_cd-full_matched_a-40.wav","spherical","20","20","full","matched","-40","-80","844"
"echo-presentation","45","234024","0.0-45.0","5f7725e18a6ec01fb01238d1","5fef55e628823a0076ec12ee","60200e1d76e6d65a69b5a16e","Mozilla/5.0 (Windows NT 10.0; Win64; x64) AppleWebKit/537.36 (KHTML, like Gecko) Chrome/86.0.4240.198 Safari/537.36 OPR/72.0.3815.487","v1-up-stims","","","","","","","","-80,-70,-60,-50,-40","media/audio/stims/spherical_300cm_s20_c20_cd-full_matched_a-60.wav","spherical","20","20","full","matched","-60","-80","1181"
"echo-presentation","46","235866","0.0-46.0","5f7725e18a6ec01fb01238d1","5fef55e628823a0076ec12ee","60200e1d76e6d65a69b5a16e","Mozilla/5.0 (Windows NT 10.0; Win64; x64) AppleWebKit/537.36 (KHTML, like Gecko) Chrome/86.0.4240.198 Safari/537.36 OPR/72.0.3815.487","v1-up-stims","","","","","","","","-80,-70,-60,-50,-40","media/audio/stims/spherical_300cm_s20_c20_cd-full_matched_a-50.wav","spherical","20","20","full","matched","-50","-80","932"
"echo-presentation","47","238107","0.0-47.0","5f7725e18a6ec01fb01238d1","5fef55e628823a0076ec12ee","60200e1d76e6d65a69b5a16e","Mozilla/5.0 (Windows NT 10.0; Win64; x64) AppleWebKit/537.36 (KHTML, like Gecko) Chrome/86.0.4240.198 Safari/537.36 OPR/72.0.3815.487","v1-up-stims","","","","","","","","-80,-70,-60,-50,-40","media/audio/stims/spherical_300cm_s20_c20_cd-full_matched_a-50.wav","spherical","20","20","full","matched","-50","-80","1397"
"echo-presentation","48","239885","0.0-48.0","5f7725e18a6ec01fb01238d1","5fef55e628823a0076ec12ee","60200e1d76e6d65a69b5a16e","Mozilla/5.0 (Windows NT 10.0; Win64; x64) AppleWebKit/537.36 (KHTML, like Gecko) Chrome/86.0.4240.198 Safari/537.36 OPR/72.0.3815.487","v1-up-stims","","","","","","","","-80,-70,-60,-50,-40","media/audio/stims/spherical_300cm_s20_c20_cd-full_matched_a-80.wav","spherical","20","20","full","matched","-80","-80","1140"
"echo-presentation","49","242781","0.0-49.0","5f7725e18a6ec01fb01238d1","5fef55e628823a0076ec12ee","60200e1d76e6d65a69b5a16e","Mozilla/5.0 (Windows NT 10.0; Win64; x64) AppleWebKit/537.36 (KHTML, like Gecko) Chrome/86.0.4240.198 Safari/537.36 OPR/72.0.3815.487","v1-up-stims","","","","","","","","-80,-70,-60,-50,-40","media/audio/stims/spherical_300cm_s20_c20_cd-full_matched_a-40.wav","spherical","20","20","full","matched","-40","-80","1934"
"block-bookend","50","244275","0.0-50.0","5f7725e18a6ec01fb01238d1","5fef55e628823a0076ec12ee","60200e1d76e6d65a69b5a16e","Mozilla/5.0 (Windows NT 10.0; Win64; x64) AppleWebKit/537.36 (KHTML, like Gecko) Chrome/86.0.4240.198 Safari/537.36 OPR/72.0.3815.487","v1-up-stims","","","","","","","","","","","","","","","","",""
"block-bookend","51","254195","0.0-51.0","5f7725e18a6ec01fb01238d1","5fef55e628823a0076ec12ee","60200e1d76e6d65a69b5a16e","Mozilla/5.0 (Windows NT 10.0; Win64; x64) AppleWebKit/537.36 (KHTML, like Gecko) Chrome/86.0.4240.198 Safari/537.36 OPR/72.0.3815.487","v1-up-stims","","","","","","","","","","","","","","","","",""
"echo-presentation","52","260005","0.0-52.0","5f7725e18a6ec01fb01238d1","5fef55e628823a0076ec12ee","60200e1d76e6d65a69b5a16e","Mozilla/5.0 (Windows NT 10.0; Win64; x64) AppleWebKit/537.36 (KHTML, like Gecko) Chrome/86.0.4240.198 Safari/537.36 OPR/72.0.3815.487","v1-up-stims","","","","","","","","40,50,60,70,80","media/audio/stims/spherical_300cm_s20_c20_cd-full_matched_a50.wav","spherical","20","20","full","matched","50","80","3142"
"echo-presentation","53","263249","0.0-53.0","5f7725e18a6ec01fb01238d1","5fef55e628823a0076ec12ee","60200e1d76e6d65a69b5a16e","Mozilla/5.0 (Windows NT 10.0; Win64; x64) AppleWebKit/537.36 (KHTML, like Gecko) Chrome/86.0.4240.198 Safari/537.36 OPR/72.0.3815.487","v1-up-stims","","","","","","","","40,50,60,70,80","media/audio/stims/spherical_300cm_s20_c20_cd-full_matched_a50.wav","spherical","20","20","full","matched","50","80","2238"
"echo-presentation","54","266245","0.0-54.0","5f7725e18a6ec01fb01238d1","5fef55e628823a0076ec12ee","60200e1d76e6d65a69b5a16e","Mozilla/5.0 (Windows NT 10.0; Win64; x64) AppleWebKit/537.36 (KHTML, like Gecko) Chrome/86.0.4240.198 Safari/537.36 OPR/72.0.3815.487","v1-up-stims","","","","","","","","40,50,60,70,80","media/audio/stims/spherical_300cm_s20_c20_cd-full_matched_a50.wav","spherical","20","20","full","matched","50","80","1630"
"echo-presentation","55","269072","0.0-55.0","5f7725e18a6ec01fb01238d1","5fef55e628823a0076ec12ee","60200e1d76e6d65a69b5a16e","Mozilla/5.0 (Windows NT 10.0; Win64; x64) AppleWebKit/537.36 (KHTML, like Gecko) Chrome/86.0.4240.198 Safari/537.36 OPR/72.0.3815.487","v1-up-stims","","","","","","","","40,50,60,70,80","media/audio/stims/spherical_300cm_s20_c20_cd-full_matched_a60.wav","spherical","20","20","full","matched","60","80","1507"
"echo-presentation","56","271012","0.0-56.0","5f7725e18a6ec01fb01238d1","5fef55e628823a0076ec12ee","60200e1d76e6d65a69b5a16e","Mozilla/5.0 (Windows NT 10.0; Win64; x64) AppleWebKit/537.36 (KHTML, like Gecko) Chrome/86.0.4240.198 Safari/537.36 OPR/72.0.3815.487","v1-up-stims","","","","","","","","40,50,60,70,80","media/audio/stims/spherical_300cm_s20_c20_cd-full_matched_a80.wav","spherical","20","20","full","matched","80","80","885"
"echo-presentation","57","273301","0.0-57.0","5f7725e18a6ec01fb01238d1","5fef55e628823a0076ec12ee","60200e1d76e6d65a69b5a16e","Mozilla/5.0 (Windows NT 10.0; Win64; x64) AppleWebKit/537.36 (KHTML, like Gecko) Chrome/86.0.4240.198 Safari/537.36 OPR/72.0.3815.487","v1-up-stims","","","","","","","","40,50,60,70,80","media/audio/stims/spherical_300cm_s20_c20_cd-full_matched_a80.wav","spherical","20","20","full","matched","80","70","1158"
"echo-presentation","58","275477","0.0-58.0","5f7725e18a6ec01fb01238d1","5fef55e628823a0076ec12ee","60200e1d76e6d65a69b5a16e","Mozilla/5.0 (Windows NT 10.0; Win64; x64) AppleWebKit/537.36 (KHTML, like Gecko) Chrome/86.0.4240.198 Safari/537.36 OPR/72.0.3815.487","v1-up-stims","","","","","","","","40,50,60,70,80","media/audio/stims/spherical_300cm_s20_c20_cd-full_matched_a70.wav","spherical","20","20","full","matched","70","80","1085"
"echo-presentation","59","277441","0.0-59.0","5f7725e18a6ec01fb01238d1","5fef55e628823a0076ec12ee","60200e1d76e6d65a69b5a16e","Mozilla/5.0 (Windows NT 10.0; Win64; x64) AppleWebKit/537.36 (KHTML, like Gecko) Chrome/86.0.4240.198 Safari/537.36 OPR/72.0.3815.487","v1-up-stims","","","","","","","","40,50,60,70,80","media/audio/stims/spherical_300cm_s20_c20_cd-full_matched_a40.wav","spherical","20","20","full","matched","40","80","893"
"echo-presentation","60","279293","0.0-60.0","5f7725e18a6ec01fb01238d1","5fef55e628823a0076ec12ee","60200e1d76e6d65a69b5a16e","Mozilla/5.0 (Windows NT 10.0; Win64; x64) AppleWebKit/537.36 (KHTML, like Gecko) Chrome/86.0.4240.198 Safari/537.36 OPR/72.0.3815.487","v1-up-stims","","","","","","","","40,50,60,70,80","media/audio/stims/spherical_300cm_s20_c20_cd-full_matched_a40.wav","spherical","20","20","full","matched","40","80","868"
"echo-presentation","61","281151","0.0-61.0","5f7725e18a6ec01fb01238d1","5fef55e628823a0076ec12ee","60200e1d76e6d65a69b5a16e","Mozilla/5.0 (Windows NT 10.0; Win64; x64) AppleWebKit/537.36 (KHTML, like Gecko) Chrome/86.0.4240.198 Safari/537.36 OPR/72.0.3815.487","v1-up-stims","","","","","","","","40,50,60,70,80","media/audio/stims/spherical_300cm_s20_c20_cd-full_matched_a40.wav","spherical","20","20","full","matched","40","80","844"
"echo-presentation","62","282873","0.0-62.0","5f7725e18a6ec01fb01238d1","5fef55e628823a0076ec12ee","60200e1d76e6d65a69b5a16e","Mozilla/5.0 (Windows NT 10.0; Win64; x64) AppleWebKit/537.36 (KHTML, like Gecko) Chrome/86.0.4240.198 Safari/537.36 OPR/72.0.3815.487","v1-up-stims","","","","","","","","40,50,60,70,80","media/audio/stims/spherical_300cm_s20_c20_cd-full_matched_a70.wav","spherical","20","20","full","matched","70","80","852"
"echo-presentation","63","284470","0.0-63.0","5f7725e18a6ec01fb01238d1","5fef55e628823a0076ec12ee","60200e1d76e6d65a69b5a16e","Mozilla/5.0 (Windows NT 10.0; Win64; x64) AppleWebKit/537.36 (KHTML, like Gecko) Chrome/86.0.4240.198 Safari/537.36 OPR/72.0.3815.487","v1-up-stims","","","","","","","","40,50,60,70,80","media/audio/stims/spherical_300cm_s20_c20_cd-full_matched_a50.wav","spherical","20","20","full","matched","50","80","869"
"echo-presentation","64","286414","0.0-64.0","5f7725e18a6ec01fb01238d1","5fef55e628823a0076ec12ee","60200e1d76e6d65a69b5a16e","Mozilla/5.0 (Windows NT 10.0; Win64; x64) AppleWebKit/537.36 (KHTML, like Gecko) Chrome/86.0.4240.198 Safari/537.36 OPR/72.0.3815.487","v1-up-stims","","","","","","","","40,50,60,70,80","media/audio/stims/spherical_300cm_s20_c20_cd-full_matched_a70.wav","spherical","20","20","full","matched","70","80","999"
"echo-presentation","65","288081","0.0-65.0","5f7725e18a6ec01fb01238d1","5fef55e628823a0076ec12ee","60200e1d76e6d65a69b5a16e","Mozilla/5.0 (Windows NT 10.0; Win64; x64) AppleWebKit/537.36 (KHTML, like Gecko) Chrome/86.0.4240.198 Safari/537.36 OPR/72.0.3815.487","v1-up-stims","","","","","","","","40,50,60,70,80","media/audio/stims/spherical_300cm_s20_c20_cd-full_matched_a70.wav","spherical","20","20","full","matched","70","80","790"
"echo-presentation","66","289829","0.0-66.0","5f7725e18a6ec01fb01238d1","5fef55e628823a0076ec12ee","60200e1d76e6d65a69b5a16e","Mozilla/5.0 (Windows NT 10.0; Win64; x64) AppleWebKit/537.36 (KHTML, like Gecko) Chrome/86.0.4240.198 Safari/537.36 OPR/72.0.3815.487","v1-up-stims","","","","","","","","40,50,60,70,80","media/audio/stims/spherical_300cm_s20_c20_cd-full_matched_a40.wav","spherical","20","20","full","matched","40","80","797"
"echo-presentation","67","291674","0.0-67.0","5f7725e18a6ec01fb01238d1","5fef55e628823a0076ec12ee","60200e1d76e6d65a69b5a16e","Mozilla/5.0 (Windows NT 10.0; Win64; x64) AppleWebKit/537.36 (KHTML, like Gecko) Chrome/86.0.4240.198 Safari/537.36 OPR/72.0.3815.487","v1-up-stims","","","","","","","","40,50,60,70,80","media/audio/stims/spherical_300cm_s20_c20_cd-full_matched_a60.wav","spherical","20","20","full","matched","60","80","821"
"echo-presentation","68","293488","0.0-68.0","5f7725e18a6ec01fb01238d1","5fef55e628823a0076ec12ee","60200e1d76e6d65a69b5a16e","Mozilla/5.0 (Windows NT 10.0; Win64; x64) AppleWebKit/537.36 (KHTML, like Gecko) Chrome/86.0.4240.198 Safari/537.36 OPR/72.0.3815.487","v1-up-stims","","","","","","","","40,50,60,70,80","media/audio/stims/spherical_300cm_s20_c20_cd-full_matched_a80.wav","spherical","20","20","full","matched","80","80","821"
"echo-presentation","69","295211","0.0-69.0","5f7725e18a6ec01fb01238d1","5fef55e628823a0076ec12ee","60200e1d76e6d65a69b5a16e","Mozilla/5.0 (Windows NT 10.0; Win64; x64) AppleWebKit/537.36 (KHTML, like Gecko) Chrome/86.0.4240.198 Safari/537.36 OPR/72.0.3815.487","v1-up-stims","","","","","","","","40,50,60,70,80","media/audio/stims/spherical_300cm_s20_c20_cd-full_matched_a80.wav","spherical","20","20","full","matched","80","80","813"
"echo-presentation","70","297227","0.0-70.0","5f7725e18a6ec01fb01238d1","5fef55e628823a0076ec12ee","60200e1d76e6d65a69b5a16e","Mozilla/5.0 (Windows NT 10.0; Win64; x64) AppleWebKit/537.36 (KHTML, like Gecko) Chrome/86.0.4240.198 Safari/537.36 OPR/72.0.3815.487","v1-up-stims","","","","","","","","40,50,60,70,80","media/audio/stims/spherical_300cm_s20_c20_cd-full_matched_a60.wav","spherical","20","20","full","matched","60","80","1068"
"echo-presentation","71","299759","0.0-71.0","5f7725e18a6ec01fb01238d1","5fef55e628823a0076ec12ee","60200e1d76e6d65a69b5a16e","Mozilla/5.0 (Windows NT 10.0; Win64; x64) AppleWebKit/537.36 (KHTML, like Gecko) Chrome/86.0.4240.198 Safari/537.36 OPR/72.0.3815.487","v1-up-stims","","","","","","","","40,50,60,70,80","media/audio/stims/spherical_300cm_s20_c20_cd-full_matched_a60.wav","spherical","20","20","full","matched","60","80","1020"
"block-bookend","72","300795","0.0-72.0","5f7725e18a6ec01fb01238d1","5fef55e628823a0076ec12ee","60200e1d76e6d65a69b5a16e","Mozilla/5.0 (Windows NT 10.0; Win64; x64) AppleWebKit/537.36 (KHTML, like Gecko) Chrome/86.0.4240.198 Safari/537.36 OPR/72.0.3815.487","v1-up-stims","","","","","","","","","","","","","","","","",""
"block-bookend","73","306306","0.0-73.0","5f7725e18a6ec01fb01238d1","5fef55e628823a0076ec12ee","60200e1d76e6d65a69b5a16e","Mozilla/5.0 (Windows NT 10.0; Win64; x64) AppleWebKit/537.36 (KHTML, like Gecko) Chrome/86.0.4240.198 Safari/537.36 OPR/72.0.3815.487","v1-up-stims","","","","","","","","","","","","","","","","",""
"echo-presentation","74","309650","0.0-74.0","5f7725e18a6ec01fb01238d1","5fef55e628823a0076ec12ee","60200e1d76e6d65a69b5a16e","Mozilla/5.0 (Windows NT 10.0; Win64; x64) AppleWebKit/537.36 (KHTML, like Gecko) Chrome/86.0.4240.198 Safari/537.36 OPR/72.0.3815.487","v1-up-stims","","","","","","","","40,50,60,70,80","media/audio/stims/spherical_300cm_s20_c20_cd-full_matched_a70.wav","spherical","20","20","full","matched","70","70","2277"
"echo-presentation","75","311787","0.0-75.0","5f7725e18a6ec01fb01238d1","5fef55e628823a0076ec12ee","60200e1d76e6d65a69b5a16e","Mozilla/5.0 (Windows NT 10.0; Win64; x64) AppleWebKit/537.36 (KHTML, like Gecko) Chrome/86.0.4240.198 Safari/537.36 OPR/72.0.3815.487","v1-up-stims","","","","","","","","40,50,60,70,80","media/audio/stims/spherical_300cm_s20_c20_cd-full_matched_a40.wav","spherical","20","20","full","matched","40","80","934"
"echo-presentation","76","314333","0.0-76.0","5f7725e18a6ec01fb01238d1","5fef55e628823a0076ec12ee","60200e1d76e6d65a69b5a16e","Mozilla/5.0 (Windows NT 10.0; Win64; x64) AppleWebKit/537.36 (KHTML, like Gecko) Chrome/86.0.4240.198 Safari/537.36 OPR/72.0.3815.487","v1-up-stims","","","","","","","","40,50,60,70,80","media/audio/stims/spherical_300cm_s20_c20_cd-full_matched_a60.wav","spherical","20","20","full","matched","60","70","1429"
"echo-presentation","77","319703","0.0-77.0","5f7725e18a6ec01fb01238d1","5fef55e628823a0076ec12ee","60200e1d76e6d65a69b5a16e","Mozilla/5.0 (Windows NT 10.0; Win64; x64) AppleWebKit/537.36 (KHTML, like Gecko) Chrome/86.0.4240.198 Safari/537.36 OPR/72.0.3815.487","v1-up-stims","","","","","","","","40,50,60,70,80","media/audio/stims/spherical_300cm_s20_c20_cd-full_matched_a80.wav","spherical","20","20","full","matched","80","70","3579"
"echo-presentation","78","322379","0.0-78.0","5f7725e18a6ec01fb01238d1","5fef55e628823a0076ec12ee","60200e1d76e6d65a69b5a16e","Mozilla/5.0 (Windows NT 10.0; Win64; x64) AppleWebKit/537.36 (KHTML, like Gecko) Chrome/86.0.4240.198 Safari/537.36 OPR/72.0.3815.487","v1-up-stims","","","","","","","","40,50,60,70,80","media/audio/stims/spherical_300cm_s20_c20_cd-full_matched_a40.wav","spherical","20","20","full","matched","40","70","1654"
"echo-presentation","79","325516","0.0-79.0","5f7725e18a6ec01fb01238d1","5fef55e628823a0076ec12ee","60200e1d76e6d65a69b5a16e","Mozilla/5.0 (Windows NT 10.0; Win64; x64) AppleWebKit/537.36 (KHTML, like Gecko) Chrome/86.0.4240.198 Safari/537.36 OPR/72.0.3815.487","v1-up-stims","","","","","","","","40,50,60,70,80","media/audio/stims/spherical_300cm_s20_c20_cd-full_matched_a60.wav","spherical","20","20","full","matched","60","80","2334"
"echo-presentation","80","327171","0.0-80.0","5f7725e18a6ec01fb01238d1","5fef55e628823a0076ec12ee","60200e1d76e6d65a69b5a16e","Mozilla/5.0 (Windows NT 10.0; Win64; x64) AppleWebKit/537.36 (KHTML, like Gecko) Chrome/86.0.4240.198 Safari/537.36 OPR/72.0.3815.487","v1-up-stims","","","","","","","","40,50,60,70,80","media/audio/stims/spherical_300cm_s20_c20_cd-full_matched_a70.wav","spherical","20","20","full","matched","70","70","860"
"echo-presentation","81","329167","0.0-81.0","5f7725e18a6ec01fb01238d1","5fef55e628823a0076ec12ee","60200e1d76e6d65a69b5a16e","Mozilla/5.0 (Windows NT 10.0; Win64; x64) AppleWebKit/537.36 (KHTML, like Gecko) Chrome/86.0.4240.198 Safari/537.36 OPR/72.0.3815.487","v1-up-stims","","","","","","","","40,50,60,70,80","media/audio/stims/spherical_300cm_s20_c20_cd-full_matched_a70.wav","spherical","20","20","full","matched","70","80","943"
"echo-presentation","82","331226","0.0-82.0","5f7725e18a6ec01fb01238d1","5fef55e628823a0076ec12ee","60200e1d76e6d65a69b5a16e","Mozilla/5.0 (Windows NT 10.0; Win64; x64) AppleWebKit/537.36 (KHTML, like Gecko) Chrome/86.0.4240.198 Safari/537.36 OPR/72.0.3815.487","v1-up-stims","","","","","","","","40,50,60,70,80","media/audio/stims/spherical_300cm_s20_c20_cd-full_matched_a80.wav","spherical","20","20","full","matched","80","70","1141"
"echo-presentation","83","333007","0.0-83.0","5f7725e18a6ec01fb01238d1","5fef55e628823a0076ec12ee","60200e1d76e6d65a69b5a16e","Mozilla/5.0 (Windows NT 10.0; Win64; x64) AppleWebKit/537.36 (KHTML, like Gecko) Chrome/86.0.4240.198 Safari/537.36 OPR/72.0.3815.487","v1-up-stims","","","","","","","","40,50,60,70,80","media/audio/stims/spherical_300cm_s20_c20_cd-full_matched_a50.wav","spherical","20","20","full","matched","50","80","918"
"echo-presentation","84","335003","0.0-84.0","5f7725e18a6ec01fb01238d1","5fef55e628823a0076ec12ee","60200e1d76e6d65a69b5a16e","Mozilla/5.0 (Windows NT 10.0; Win64; x64) AppleWebKit/537.36 (KHTML, like Gecko) Chrome/86.0.4240.198 Safari/537.36 OPR/72.0.3815.487","v1-up-stims","","","","","","","","40,50,60,70,80","media/audio/stims/spherical_300cm_s20_c20_cd-full_matched_a80.wav","spherical","20","20","full","matched","80","80","934"
"echo-presentation","85","336802","0.0-85.0","5f7725e18a6ec01fb01238d1","5fef55e628823a0076ec12ee","60200e1d76e6d65a69b5a16e","Mozilla/5.0 (Windows NT 10.0; Win64; x64) AppleWebKit/537.36 (KHTML, like Gecko) Chrome/86.0.4240.198 Safari/537.36 OPR/72.0.3815.487","v1-up-stims","","","","","","","","40,50,60,70,80","media/audio/stims/spherical_300cm_s20_c20_cd-full_matched_a50.wav","spherical","20","20","full","matched","50","80","845"
"echo-presentation","86","338595","0.0-86.0","5f7725e18a6ec01fb01238d1","5fef55e628823a0076ec12ee","60200e1d76e6d65a69b5a16e","Mozilla/5.0 (Windows NT 10.0; Win64; x64) AppleWebKit/537.36 (KHTML, like Gecko) Chrome/86.0.4240.198 Safari/537.36 OPR/72.0.3815.487","v1-up-stims","","","","","","","","40,50,60,70,80","media/audio/stims/spherical_300cm_s20_c20_cd-full_matched_a50.wav","spherical","20","20","full","matched","50","80","884"
"echo-presentation","87","340378","0.0-87.0","5f7725e18a6ec01fb01238d1","5fef55e628823a0076ec12ee","60200e1d76e6d65a69b5a16e","Mozilla/5.0 (Windows NT 10.0; Win64; x64) AppleWebKit/537.36 (KHTML, like Gecko) Chrome/86.0.4240.198 Safari/537.36 OPR/72.0.3815.487","v1-up-stims","","","","","","","","40,50,60,70,80","media/audio/stims/spherical_300cm_s20_c20_cd-full_matched_a60.wav","spherical","20","20","full","matched","60","80","919"
"echo-presentation","88","342100","0.0-88.0","5f7725e18a6ec01fb01238d1","5fef55e628823a0076ec12ee","60200e1d76e6d65a69b5a16e","Mozilla/5.0 (Windows NT 10.0; Win64; x64) AppleWebKit/537.36 (KHTML, like Gecko) Chrome/86.0.4240.198 Safari/537.36 OPR/72.0.3815.487","v1-up-stims","","","","","","","","40,50,60,70,80","media/audio/stims/spherical_300cm_s20_c20_cd-full_matched_a60.wav","spherical","20","20","full","matched","60","80","852"
"echo-presentation","89","343953","0.0-89.0","5f7725e18a6ec01fb01238d1","5fef55e628823a0076ec12ee","60200e1d76e6d65a69b5a16e","Mozilla/5.0 (Windows NT 10.0; Win64; x64) AppleWebKit/537.36 (KHTML, like Gecko) Chrome/86.0.4240.198 Safari/537.36 OPR/72.0.3815.487","v1-up-stims","","","","","","","","40,50,60,70,80","media/audio/stims/spherical_300cm_s20_c20_cd-full_matched_a70.wav","spherical","20","20","full","matched","70","70","926"
"echo-presentation","90","346443","0.0-90.0","5f7725e18a6ec01fb01238d1","5fef55e628823a0076ec12ee","60200e1d76e6d65a69b5a16e","Mozilla/5.0 (Windows NT 10.0; Win64; x64) AppleWebKit/537.36 (KHTML, like Gecko) Chrome/86.0.4240.198 Safari/537.36 OPR/72.0.3815.487","v1-up-stims","","","","","","","","40,50,60,70,80","media/audio/stims/spherical_300cm_s20_c20_cd-full_matched_a50.wav","spherical","20","20","full","matched","50","80","1045"
"echo-presentation","91","348406","0.0-91.0","5f7725e18a6ec01fb01238d1","5fef55e628823a0076ec12ee","60200e1d76e6d65a69b5a16e","Mozilla/5.0 (Windows NT 10.0; Win64; x64) AppleWebKit/537.36 (KHTML, like Gecko) Chrome/86.0.4240.198 Safari/537.36 OPR/72.0.3815.487","v1-up-stims","","","","","","","","40,50,60,70,80","media/audio/stims/spherical_300cm_s20_c20_cd-full_matched_a40.wav","spherical","20","20","full","matched","40","80","894"
"echo-presentation","92","350612","0.0-92.0","5f7725e18a6ec01fb01238d1","5fef55e628823a0076ec12ee","60200e1d76e6d65a69b5a16e","Mozilla/5.0 (Windows NT 10.0; Win64; x64) AppleWebKit/537.36 (KHTML, like Gecko) Chrome/86.0.4240.198 Safari/537.36 OPR/72.0.3815.487","v1-up-stims","","","","","","","","40,50,60,70,80","media/audio/stims/spherical_300cm_s20_c20_cd-full_matched_a80.wav","spherical","20","20","full","matched","80","70","1373"
"echo-presentation","93","352224","0.0-93.0","5f7725e18a6ec01fb01238d1","5fef55e628823a0076ec12ee","60200e1d76e6d65a69b5a16e","Mozilla/5.0 (Windows NT 10.0; Win64; x64) AppleWebKit/537.36 (KHTML, like Gecko) Chrome/86.0.4240.198 Safari/537.36 OPR/72.0.3815.487","v1-up-stims","","","","","","","","40,50,60,70,80","media/audio/stims/spherical_300cm_s20_c20_cd-full_matched_a40.wav","spherical","20","20","full","matched","40","80","861"
"block-bookend","94","353051","0.0-94.0","5f7725e18a6ec01fb01238d1","5fef55e628823a0076ec12ee","60200e1d76e6d65a69b5a16e","Mozilla/5.0 (Windows NT 10.0; Win64; x64) AppleWebKit/537.36 (KHTML, like Gecko) Chrome/86.0.4240.198 Safari/537.36 OPR/72.0.3815.487","v1-up-stims","","","","","","","","","","","","","","","","",""
"block-bookend","95","358235","0.0-95.0","5f7725e18a6ec01fb01238d1","5fef55e628823a0076ec12ee","60200e1d76e6d65a69b5a16e","Mozilla/5.0 (Windows NT 10.0; Win64; x64) AppleWebKit/537.36 (KHTML, like Gecko) Chrome/86.0.4240.198 Safari/537.36 OPR/72.0.3815.487","v1-up-stims","","","","","","","","","","","","","","","","",""
"echo-presentation","96","363803","0.0-96.0","5f7725e18a6ec01fb01238d1","5fef55e628823a0076ec12ee","60200e1d76e6d65a69b5a16e","Mozilla/5.0 (Windows NT 10.0; Win64; x64) AppleWebKit/537.36 (KHTML, like Gecko) Chrome/86.0.4240.198 Safari/537.36 OPR/72.0.3815.487","v1-up-stims","","","","","","","","-20,-10,0,10,20","media/audio/stims/spherical_300cm_s20_c20_cd-full_matched_a-10.wav","spherical","20","20","full","matched","-10","-10","3998"
"echo-presentation","97","366492","0.0-97.0","5f7725e18a6ec01fb01238d1","5fef55e628823a0076ec12ee","60200e1d76e6d65a69b5a16e","Mozilla/5.0 (Windows NT 10.0; Win64; x64) AppleWebKit/537.36 (KHTML, like Gecko) Chrome/86.0.4240.198 Safari/537.36 OPR/72.0.3815.487","v1-up-stims","","","","","","","","-20,-10,0,10,20","media/audio/stims/spherical_300cm_s20_c20_cd-full_matched_a-20.wav","spherical","20","20","full","matched","-20","-10","1605"
"echo-presentation","98","368873","0.0-98.0","5f7725e18a6ec01fb01238d1","5fef55e628823a0076ec12ee","60200e1d76e6d65a69b5a16e","Mozilla/5.0 (Windows NT 10.0; Win64; x64) AppleWebKit/537.36 (KHTML, like Gecko) Chrome/86.0.4240.198 Safari/537.36 OPR/72.0.3815.487","v1-up-stims","","","","","","","","-20,-10,0,10,20","media/audio/stims/spherical_300cm_s20_c20_cd-full_matched_a-10.wav","spherical","20","20","full","matched","-10","-10","1373"
"echo-presentation","99","371468","0.0-99.0","5f7725e18a6ec01fb01238d1","5fef55e628823a0076ec12ee","60200e1d76e6d65a69b5a16e","Mozilla/5.0 (Windows NT 10.0; Win64; x64) AppleWebKit/537.36 (KHTML, like Gecko) Chrome/86.0.4240.198 Safari/537.36 OPR/72.0.3815.487","v1-up-stims","","","","","","","","-20,-10,0,10,20","media/audio/stims/spherical_300cm_s20_c20_cd-full_matched_a10.wav","spherical","20","20","full","matched","10","0","1726"
"echo-presentation","100","373254","0.0-100.0","5f7725e18a6ec01fb01238d1","5fef55e628823a0076ec12ee","60200e1d76e6d65a69b5a16e","Mozilla/5.0 (Windows NT 10.0; Win64; x64) AppleWebKit/537.36 (KHTML, like Gecko) Chrome/86.0.4240.198 Safari/537.36 OPR/72.0.3815.487","v1-up-stims","","","","","","","","-20,-10,0,10,20","media/audio/stims/spherical_300cm_s20_c20_cd-full_matched_a10.wav","spherical","20","20","full","matched","10","0","909"
"echo-presentation","101","375865","0.0-101.0","5f7725e18a6ec01fb01238d1","5fef55e628823a0076ec12ee","60200e1d76e6d65a69b5a16e","Mozilla/5.0 (Windows NT 10.0; Win64; x64) AppleWebKit/537.36 (KHTML, like Gecko) Chrome/86.0.4240.198 Safari/537.36 OPR/72.0.3815.487","v1-up-stims","","","","","","","","-20,-10,0,10,20","media/audio/stims/spherical_300cm_s20_c20_cd-full_matched_a10.wav","spherical","20","20","full","matched","10","10","1452"
"echo-presentation","102","378229","0.0-102.0","5f7725e18a6ec01fb01238d1","5fef55e628823a0076ec12ee","60200e1d76e6d65a69b5a16e","Mozilla/5.0 (Windows NT 10.0; Win64; x64) AppleWebKit/537.36 (KHTML, like Gecko) Chrome/86.0.4240.198 Safari/537.36 OPR/72.0.3815.487","v1-up-stims","","","","","","","","-20,-10,0,10,20","media/audio/stims/spherical_300cm_s20_c20_cd-full_matched_a0.wav","spherical","20","20","full","matched","0","-10","1613"
"echo-presentation","103","380304","0.0-103.0","5f7725e18a6ec01fb01238d1","5fef55e628823a0076ec12ee","60200e1d76e6d65a69b5a16e","Mozilla/5.0 (Windows NT 10.0; Win64; x64) AppleWebKit/537.36 (KHTML, like Gecko) Chrome/86.0.4240.198 Safari/537.36 OPR/72.0.3815.487","v1-up-stims","","","","","","","","-20,-10,0,10,20","media/audio/stims/spherical_300cm_s20_c20_cd-full_matched_a-20.wav","spherical","20","20","full","matched","-20","-10","1275"
"echo-presentation","104","382317","0.0-104.0","5f7725e18a6ec01fb01238d1","5fef55e628823a0076ec12ee","60200e1d76e6d65a69b5a16e","Mozilla/5.0 (Windows NT 10.0; Win64; x64) AppleWebKit/537.36 (KHTML, like Gecko) Chrome/86.0.4240.198 Safari/537.36 OPR/72.0.3815.487","v1-up-stims","","","","","","","","-20,-10,0,10,20","media/audio/stims/spherical_300cm_s20_c20_cd-full_matched_a-20.wav","spherical","20","20","full","matched","-20","0","1166"
"echo-presentation","105","385283","0.0-105.0","5f7725e18a6ec01fb01238d1","5fef55e628823a0076ec12ee","60200e1d76e6d65a69b5a16e","Mozilla/5.0 (Windows NT 10.0; Win64; x64) AppleWebKit/537.36 (KHTML, like Gecko) Chrome/86.0.4240.198 Safari/537.36 OPR/72.0.3815.487","v1-up-stims","","","","","","","","-20,-10,0,10,20","media/audio/stims/spherical_300cm_s20_c20_cd-full_matched_a-10.wav","spherical","20","20","full","matched","-10","0","1212"
"echo-presentation","106","387235","0.0-106.0","5f7725e18a6ec01fb01238d1","5fef55e628823a0076ec12ee","60200e1d76e6d65a69b5a16e","Mozilla/5.0 (Windows NT 10.0; Win64; x64) AppleWebKit/537.36 (KHTML, like Gecko) Chrome/86.0.4240.198 Safari/537.36 OPR/72.0.3815.487","v1-up-stims","","","","","","","","-20,-10,0,10,20","media/audio/stims/spherical_300cm_s20_c20_cd-full_matched_a20.wav","spherical","20","20","full","matched","20","0","933"
"echo-presentation","107","392959","0.0-107.0","5f7725e18a6ec01fb01238d1","5fef55e628823a0076ec12ee","60200e1d76e6d65a69b5a16e","Mozilla/5.0 (Windows NT 10.0; Win64; x64) AppleWebKit/537.36 (KHTML, like Gecko) Chrome/86.0.4240.198 Safari/537.36 OPR/72.0.3815.487","v1-up-stims","","","","","","","","-20,-10,0,10,20","media/audio/stims/spherical_300cm_s20_c20_cd-full_matched_a10.wav","spherical","20","20","full","matched","10","0","1166"
"echo-presentation","108","395016","0.0-108.0","5f7725e18a6ec01fb01238d1","5fef55e628823a0076ec12ee","60200e1d76e6d65a69b5a16e","Mozilla/5.0 (Windows NT 10.0; Win64; x64) AppleWebKit/537.36 (KHTML, like Gecko) Chrome/86.0.4240.198 Safari/537.36 OPR/72.0.3815.487","v1-up-stims","","","","","","","","-20,-10,0,10,20","media/audio/stims/spherical_300cm_s20_c20_cd-full_matched_a-20.wav","spherical","20","20","full","matched","-20","-10","1021"
"echo-presentation","109","396785","0.0-109.0","5f7725e18a6ec01fb01238d1","5fef55e628823a0076ec12ee","60200e1d76e6d65a69b5a16e","Mozilla/5.0 (Windows NT 10.0; Win64; x64) AppleWebKit/537.36 (KHTML, like Gecko) Chrome/86.0.4240.198 Safari/537.36 OPR/72.0.3815.487","v1-up-stims","","","","","","","","-20,-10,0,10,20","media/audio/stims/spherical_300cm_s20_c20_cd-full_matched_a0.wav","spherical","20","20","full","matched","0","0","843"
"echo-presentation","110","399565","0.0-110.0","5f7725e18a6ec01fb01238d1","5fef55e628823a0076ec12ee","60200e1d76e6d65a69b5a16e","Mozilla/5.0 (Windows NT 10.0; Win64; x64) AppleWebKit/537.36 (KHTML, like Gecko) Chrome/86.0.4240.198 Safari/537.36 OPR/72.0.3815.487","v1-up-stims","","","","","","","","-20,-10,0,10,20","media/audio/stims/spherical_300cm_s20_c20_cd-full_matched_a20.wav","spherical","20","20","full","matched","20","0","1774"
"echo-presentation","111","401582","0.0-111.0","5f7725e18a6ec01fb01238d1","5fef55e628823a0076ec12ee","60200e1d76e6d65a69b5a16e","Mozilla/5.0 (Windows NT 10.0; Win64; x64) AppleWebKit/537.36 (KHTML, like Gecko) Chrome/86.0.4240.198 Safari/537.36 OPR/72.0.3815.487","v1-up-stims","","","","","","","","-20,-10,0,10,20","media/audio/stims/spherical_300cm_s20_c20_cd-full_matched_a0.wav","spherical","20","20","full","matched","0","0","813"
"echo-presentation","112","403468","0.0-112.0","5f7725e18a6ec01fb01238d1","5fef55e628823a0076ec12ee","60200e1d76e6d65a69b5a16e","Mozilla/5.0 (Windows NT 10.0; Win64; x64) AppleWebKit/537.36 (KHTML, like Gecko) Chrome/86.0.4240.198 Safari/537.36 OPR/72.0.3815.487","v1-up-stims","","","","","","","","-20,-10,0,10,20","media/audio/stims/spherical_300cm_s20_c20_cd-full_matched_a20.wav","spherical","20","20","full","matched","20","-10","837"
"echo-presentation","113","405150","0.0-113.0","5f7725e18a6ec01fb01238d1","5fef55e628823a0076ec12ee","60200e1d76e6d65a69b5a16e","Mozilla/5.0 (Windows NT 10.0; Win64; x64) AppleWebKit/537.36 (KHTML, like Gecko) Chrome/86.0.4240.198 Safari/537.36 OPR/72.0.3815.487","v1-up-stims","","","","","","","","-20,-10,0,10,20","media/audio/stims/spherical_300cm_s20_c20_cd-full_matched_a0.wav","spherical","20","20","full","matched","0","0","837"
"echo-presentation","114","407435","0.0-114.0","5f7725e18a6ec01fb01238d1","5fef55e628823a0076ec12ee","60200e1d76e6d65a69b5a16e","Mozilla/5.0 (Windows NT 10.0; Win64; x64) AppleWebKit/537.36 (KHTML, like Gecko) Chrome/86.0.4240.198 Safari/537.36 OPR/72.0.3815.487","v1-up-stims","","","","","","","","-20,-10,0,10,20","media/audio/stims/spherical_300cm_s20_c20_cd-full_matched_a20.wav","spherical","20","20","full","matched","20","0","1094"
"echo-presentation","115","410101","0.0-115.0","5f7725e18a6ec01fb01238d1","5fef55e628823a0076ec12ee","60200e1d76e6d65a69b5a16e","Mozilla/5.0 (Windows NT 10.0; Win64; x64) AppleWebKit/537.36 (KHTML, like Gecko) Chrome/86.0.4240.198 Safari/537.36 OPR/72.0.3815.487","v1-up-stims","","","","","","","","-20,-10,0,10,20","media/audio/stims/spherical_300cm_s20_c20_cd-full_matched_a-10.wav","spherical","20","20","full","matched","-10","0","1677"
"block-bookend","116","410899","0.0-116.0","5f7725e18a6ec01fb01238d1","5fef55e628823a0076ec12ee","60200e1d76e6d65a69b5a16e","Mozilla/5.0 (Windows NT 10.0; Win64; x64) AppleWebKit/537.36 (KHTML, like Gecko) Chrome/86.0.4240.198 Safari/537.36 OPR/72.0.3815.487","v1-up-stims","","","","","","","","","","","","","","","","",""
"block-bookend","117","419012","0.0-117.0","5f7725e18a6ec01fb01238d1","5fef55e628823a0076ec12ee","60200e1d76e6d65a69b5a16e","Mozilla/5.0 (Windows NT 10.0; Win64; x64) AppleWebKit/537.36 (KHTML, like Gecko) Chrome/86.0.4240.198 Safari/537.36 OPR/72.0.3815.487","v1-up-stims","","","","","","","","","","","","","","","","",""
"echo-presentation","118","421368","0.0-118.0","5f7725e18a6ec01fb01238d1","5fef55e628823a0076ec12ee","60200e1d76e6d65a69b5a16e","Mozilla/5.0 (Windows NT 10.0; Win64; x64) AppleWebKit/537.36 (KHTML, like Gecko) Chrome/86.0.4240.198 Safari/537.36 OPR/72.0.3815.487","v1-up-stims","","","","","","","","-20,-10,0,10,20","media/audio/stims/spherical_300cm_s20_c20_cd-full_matched_a10.wav","spherical","20","20","full","matched","10","0","1125"
"echo-presentation","119","424584","0.0-119.0","5f7725e18a6ec01fb01238d1","5fef55e628823a0076ec12ee","60200e1d76e6d65a69b5a16e","Mozilla/5.0 (Windows NT 10.0; Win64; x64) AppleWebKit/537.36 (KHTML, like Gecko) Chrome/86.0.4240.198 Safari/537.36 OPR/72.0.3815.487","v1-up-stims","","","","","","","","-20,-10,0,10,20","media/audio/stims/spherical_300cm_s20_c20_cd-full_matched_a0.wav","spherical","20","20","full","matched","0","0","1853"
"echo-presentation","120","426595","0.0-120.0","5f7725e18a6ec01fb01238d1","5fef55e628823a0076ec12ee","60200e1d76e6d65a69b5a16e","Mozilla/5.0 (Windows NT 10.0; Win64; x64) AppleWebKit/537.36 (KHTML, like Gecko) Chrome/86.0.4240.198 Safari/537.36 OPR/72.0.3815.487","v1-up-stims","","","","","","","","-20,-10,0,10,20","media/audio/stims/spherical_300cm_s20_c20_cd-full_matched_a-10.wav","spherical","20","20","full","matched","-10","-10","1150"
"echo-presentation","121","428857","0.0-121.0","5f7725e18a6ec01fb01238d1","5fef55e628823a0076ec12ee","60200e1d76e6d65a69b5a16e","Mozilla/5.0 (Windows NT 10.0; Win64; x64) AppleWebKit/537.36 (KHTML, like Gecko) Chrome/86.0.4240.198 Safari/537.36 OPR/72.0.3815.487","v1-up-stims","","","","","","","","-20,-10,0,10,20","media/audio/stims/spherical_300cm_s20_c20_cd-full_matched_a10.wav","spherical","20","20","full","matched","10","10","1326"
"echo-presentation","122","430731","0.0-122.0","5f7725e18a6ec01fb01238d1","5fef55e628823a0076ec12ee","60200e1d76e6d65a69b5a16e","Mozilla/5.0 (Windows NT 10.0; Win64; x64) AppleWebKit/537.36 (KHTML, like Gecko) Chrome/86.0.4240.198 Safari/537.36 OPR/72.0.3815.487","v1-up-stims","","","","","","","","-20,-10,0,10,20","media/audio/stims/spherical_300cm_s20_c20_cd-full_matched_a20.wav","spherical","20","20","full","matched","20","0","868"
"echo-presentation","123","432543","0.0-123.0","5f7725e18a6ec01fb01238d1","5fef55e628823a0076ec12ee","60200e1d76e6d65a69b5a16e","Mozilla/5.0 (Windows NT 10.0; Win64; x64) AppleWebKit/537.36 (KHTML, like Gecko) Chrome/86.0.4240.198 Safari/537.36 OPR/72.0.3815.487","v1-up-stims","","","","","","","","-20,-10,0,10,20","media/audio/stims/spherical_300cm_s20_c20_cd-full_matched_a-10.wav","spherical","20","20","full","matched","-10","0","805"
"echo-presentation","124","434387","0.0-124.0","5f7725e18a6ec01fb01238d1","5fef55e628823a0076ec12ee","60200e1d76e6d65a69b5a16e","Mozilla/5.0 (Windows NT 10.0; Win64; x64) AppleWebKit/537.36 (KHTML, like Gecko) Chrome/86.0.4240.198 Safari/537.36 OPR/72.0.3815.487","v1-up-stims","","","","","","","","-20,-10,0,10,20","media/audio/stims/spherical_300cm_s20_c20_cd-full_matched_a-10.wav","spherical","20","20","full","matched","-10","0","898"
"echo-presentation","125","436479","0.0-125.0","5f7725e18a6ec01fb01238d1","5fef55e628823a0076ec12ee","60200e1d76e6d65a69b5a16e","Mozilla/5.0 (Windows NT 10.0; Win64; x64) AppleWebKit/537.36 (KHTML, like Gecko) Chrome/86.0.4240.198 Safari/537.36 OPR/72.0.3815.487","v1-up-stims","","","","","","","","-20,-10,0,10,20","media/audio/stims/spherical_300cm_s20_c20_cd-full_matched_a20.wav","spherical","20","20","full","matched","20","0","764"
"echo-presentation","126","439258","0.0-126.0","5f7725e18a6ec01fb01238d1","5fef55e628823a0076ec12ee","60200e1d76e6d65a69b5a16e","Mozilla/5.0 (Windows NT 10.0; Win64; x64) AppleWebKit/537.36 (KHTML, like Gecko) Chrome/86.0.4240.198 Safari/537.36 OPR/72.0.3815.487","v1-up-stims","","","","","","","","-20,-10,0,10,20","media/audio/stims/spherical_300cm_s20_c20_cd-full_matched_a20.wav","spherical","20","20","full","matched","20","0","1892"
"echo-presentation","127","440776","0.0-127.0","5f7725e18a6ec01fb01238d1","5fef55e628823a0076ec12ee","60200e1d76e6d65a69b5a16e","Mozilla/5.0 (Windows NT 10.0; Win64; x64) AppleWebKit/537.36 (KHTML, like Gecko) Chrome/86.0.4240.198 Safari/537.36 OPR/72.0.3815.487","v1-up-stims","","","","","","","","-20,-10,0,10,20","media/audio/stims/spherical_300cm_s20_c20_cd-full_matched_a0.wav","spherical","20","20","full","matched","0","0","820"
"echo-presentation","128","442339","0.0-128.0","5f7725e18a6ec01fb01238d1","5fef55e628823a0076ec12ee","60200e1d76e6d65a69b5a16e","Mozilla/5.0 (Windows NT 10.0; Win64; x64) AppleWebKit/537.36 (KHTML, like Gecko) Chrome/86.0.4240.198 Safari/537.36 OPR/72.0.3815.487","v1-up-stims","","","","","","","","-20,-10,0,10,20","media/audio/stims/spherical_300cm_s20_c20_cd-full_matched_a-20.wav","spherical","20","20","full","matched","-20","0","765"
"echo-presentation","129","443898","0.0-129.0","5f7725e18a6ec01fb01238d1","5fef55e628823a0076ec12ee","60200e1d76e6d65a69b5a16e","Mozilla/5.0 (Windows NT 10.0; Win64; x64) AppleWebKit/537.36 (KHTML, like Gecko) Chrome/86.0.4240.198 Safari/537.36 OPR/72.0.3815.487","v1-up-stims","","","","","","","","-20,-10,0,10,20","media/audio/stims/spherical_300cm_s20_c20_cd-full_matched_a0.wav","spherical","20","20","full","matched","0","0","797"
"echo-presentation","130","445815","0.0-130.0","5f7725e18a6ec01fb01238d1","5fef55e628823a0076ec12ee","60200e1d76e6d65a69b5a16e","Mozilla/5.0 (Windows NT 10.0; Win64; x64) AppleWebKit/537.36 (KHTML, like Gecko) Chrome/86.0.4240.198 Safari/537.36 OPR/72.0.3815.487","v1-up-stims","","","","","","","","-20,-10,0,10,20","media/audio/stims/spherical_300cm_s20_c20_cd-full_matched_a10.wav","spherical","20","20","full","matched","10","10","1142"
"echo-presentation","131","447553","0.0-131.0","5f7725e18a6ec01fb01238d1","5fef55e628823a0076ec12ee","60200e1d76e6d65a69b5a16e","Mozilla/5.0 (Windows NT 10.0; Win64; x64) AppleWebKit/537.36 (KHTML, like Gecko) Chrome/86.0.4240.198 Safari/537.36 OPR/72.0.3815.487","v1-up-stims","","","","","","","","-20,-10,0,10,20","media/audio/stims/spherical_300cm_s20_c20_cd-full_matched_a0.wav","spherical","20","20","full","matched","0","0","997"
"echo-presentation","132","449177","0.0-132.0","5f7725e18a6ec01fb01238d1","5fef55e628823a0076ec12ee","60200e1d76e6d65a69b5a16e","Mozilla/5.0 (Windows NT 10.0; Win64; x64) AppleWebKit/537.36 (KHTML, like Gecko) Chrome/86.0.4240.198 Safari/537.36 OPR/72.0.3815.487","v1-up-stims","","","","","","","","-20,-10,0,10,20","media/audio/stims/spherical_300cm_s20_c20_cd-full_matched_a20.wav","spherical","20","20","full","matched","20","0","798"
"echo-presentation","133","450717","0.0-133.0","5f7725e18a6ec01fb01238d1","5fef55e628823a0076ec12ee","60200e1d76e6d65a69b5a16e","Mozilla/5.0 (Windows NT 10.0; Win64; x64) AppleWebKit/537.36 (KHTML, like Gecko) Chrome/86.0.4240.198 Safari/537.36 OPR/72.0.3815.487","v1-up-stims","","","","","","","","-20,-10,0,10,20","media/audio/stims/spherical_300cm_s20_c20_cd-full_matched_a-20.wav","spherical","20","20","full","matched","-20","0","798"
"echo-presentation","134","452305","0.0-134.0","5f7725e18a6ec01fb01238d1","5fef55e628823a0076ec12ee","60200e1d76e6d65a69b5a16e","Mozilla/5.0 (Windows NT 10.0; Win64; x64) AppleWebKit/537.36 (KHTML, like Gecko) Chrome/86.0.4240.198 Safari/537.36 OPR/72.0.3815.487","v1-up-stims","","","","","","","","-20,-10,0,10,20","media/audio/stims/spherical_300cm_s20_c20_cd-full_matched_a-10.wav","spherical","20","20","full","matched","-10","0","798"
"echo-presentation","135","453979","0.0-135.0","5f7725e18a6ec01fb01238d1","5fef55e628823a0076ec12ee","60200e1d76e6d65a69b5a16e","Mozilla/5.0 (Windows NT 10.0; Win64; x64) AppleWebKit/537.36 (KHTML, like Gecko) Chrome/86.0.4240.198 Safari/537.36 OPR/72.0.3815.487","v1-up-stims","","","","","","","","-20,-10,0,10,20","media/audio/stims/spherical_300cm_s20_c20_cd-full_matched_a-20.wav","spherical","20","20","full","matched","-20","0","892"
"echo-presentation","136","455621","0.0-136.0","5f7725e18a6ec01fb01238d1","5fef55e628823a0076ec12ee","60200e1d76e6d65a69b5a16e","Mozilla/5.0 (Windows NT 10.0; Win64; x64) AppleWebKit/537.36 (KHTML, like Gecko) Chrome/86.0.4240.198 Safari/537.36 OPR/72.0.3815.487","v1-up-stims","","","","","","","","-20,-10,0,10,20","media/audio/stims/spherical_300cm_s20_c20_cd-full_matched_a10.wav","spherical","20","20","full","matched","10","0","724"
"echo-presentation","137","457302","0.0-137.0","5f7725e18a6ec01fb01238d1","5fef55e628823a0076ec12ee","60200e1d76e6d65a69b5a16e","Mozilla/5.0 (Windows NT 10.0; Win64; x64) AppleWebKit/537.36 (KHTML, like Gecko) Chrome/86.0.4240.198 Safari/537.36 OPR/72.0.3815.487","v1-up-stims","","","","","","","","-20,-10,0,10,20","media/audio/stims/spherical_300cm_s20_c20_cd-full_matched_a-20.wav","spherical","20","20","full","matched","-20","0","940"
"block-bookend","138","458211","0.0-138.0","5f7725e18a6ec01fb01238d1","5fef55e628823a0076ec12ee","60200e1d76e6d65a69b5a16e","Mozilla/5.0 (Windows NT 10.0; Win64; x64) AppleWebKit/537.36 (KHTML, like Gecko) Chrome/86.0.4240.198 Safari/537.36 OPR/72.0.3815.487","v1-up-stims","","","","","","","","","","","","","","","","",""
