"trial_type","trial_index","time_elapsed","internal_node_id","rt","stimulus","key_press","chosenKeyset","failureCount","testIndex","globalVolume","choices","filename","slowdown","compensationDenominator","receiverOrientationType","azimuth","responseAzimuth","responseDelay"
"pavlovia","0","3","0.0-0.0","","","","","","","","","","","","","","",""
"html-keyboard-response","1","1690","0.0-1.0","1686","<div><h1>Welcome!</h1><p>Beep bloop bloop. Press any key to continue.</p></div>","32","","","","","","","","","","","",""
"keyset-select","2","3270","0.0-2.0","","","","Left hand (home row)","","","","","","","","","","",""
"headphone-check","3","5994","0.0-3.0","","","","","0","-1","0.3","","","","","","","",""
"training","4","17495","0.0-4.0","","","","","","","","","","","","","","",""
"block-bookend","5","17889","0.0-5.0","","","","","","","","","","","","","","",""
"echo-presentation","6","20431","0.0-6.0","","","","","","","","-40,-35,-30,-25,-20","media/audio/stims/spherical_300cm_s14_c1_matched_a-40.wav","14","1","matched","-40","-35","1426"
"echo-presentation","7","22264","0.0-7.0","","","","","","","","-40,-35,-30,-25,-20","media/audio/stims/spherical_300cm_s14_c1_matched_a-30.wav","14","1","matched","-30","-30","1051"
"echo-presentation","8","24002","0.0-8.0","","","","","","","","-40,-35,-30,-25,-20","media/audio/stims/spherical_300cm_s14_c1_matched_a-35.wav","14","1","matched","-35","-25","947"
"block-bookend","9","24197","0.0-9.0","","","","","","","","","","","","","","",""
"block-bookend","10","24602","0.0-10.0","","","","","","","","","","","","","","",""
"echo-presentation","11","27648","0.0-11.0","","","","","","","","20,25,30,35,40","media/audio/stims/spherical_300cm_s21_c0_matched_a35.wav","21","0","matched","35","35","1895"
"echo-presentation","12","29935","0.0-12.0","","","","","","","","20,25,30,35,40","media/audio/stims/spherical_300cm_s21_c0_matched_a30.wav","21","0","matched","30","35","1686"
"echo-presentation","13","32240","0.0-13.0","","","","","","","","20,25,30,35,40","media/audio/stims/spherical_300cm_s21_c0_matched_a40.wav","21","0","matched","40","40","1520"
"block-bookend","14","32743","0.0-14.0","","","","","","","","","","","","","","",""
"block-bookend","15","33306","0.0-15.0","","","","","","","","","","","","","","",""
"echo-presentation","16","35728","0.0-16.0","","","","","","","","-70,-65,-60,-55,-50","media/audio/stims/spherical_300cm_s21_c0_matched_a-50.wav","21","0","matched","-50","-70","1370"
"echo-presentation","17","38316","0.0-17.0","","","","","","","","-70,-65,-60,-55,-50","media/audio/stims/spherical_300cm_s21_c0_matched_a-65.wav","21","0","matched","-65","-70","1839"
"echo-presentation","18","40269","0.0-18.0","","","","","","","","-70,-65,-60,-55,-50","media/audio/stims/spherical_300cm_s21_c0_matched_a-60.wav","21","0","matched","-60","-65","1228"
"block-bookend","19","40597","0.0-19.0","","","","","","","","","","","","","","",""
"block-bookend","20","41039","0.0-20.0","","","","","","","","","","","","","","",""
"echo-presentation","21","45063","0.0-21.0","","","","","","","","50,55,60,65,70","media/audio/stims/spherical_300cm_s14_c2_matched_a70.wav","14","2","matched","70","65","3045"
"echo-presentation","22","47166","0.0-22.0","","","","","","","","50,55,60,65,70","media/audio/stims/spherical_300cm_s14_c2_matched_a70.wav","14","2","matched","70","65","1401"
"echo-presentation","23","49587","0.0-23.0","","","","","","","","50,55,60,65,70","media/audio/stims/spherical_300cm_s14_c2_matched_a65.wav","14","2","matched","65","65","1524"
"block-bookend","24","50040","0.0-24.0","","","","","","","","","","","","","","",""
"block-bookend","25","50422","0.0-25.0","","","","","","","","","","","","","","",""
"echo-presentation","26","52568","0.0-26.0","","","","","","","","-10,-5,0,5,10","media/audio/stims/spherical_300cm_s7_c1_matched_a5.wav","7","1","matched","5","0","1130"
"echo-presentation","27","54562","0.0-27.0","","","","","","","","-10,-5,0,5,10","media/audio/stims/spherical_300cm_s7_c1_matched_a-5.wav","7","1","matched","-5","0","1147"
"echo-presentation","28","55982","0.0-28.0","","","","","","","","-10,-5,0,5,10","media/audio/stims/spherical_300cm_s7_c1_matched_a0.wav","7","1","matched","0","0","536"
"block-bookend","29","56651","0.0-29.0","","","","","","","","","","","","","","",""
