"trial_type","trial_index","time_elapsed","internal_node_id","prolificPid","studyId","sessionId","userAgent","version","rt","stimulus","key_press","chosenKeyset","failureCount","testIndex","globalVolume","choices","filename","modelName","slowdown","compensation","compensationDescriptor","receiverOrientationType","azimuth","responseAzimuth","responseDelay"
"pavlovia","0","14","0.0-0.0","5e28e8730fd86a0a19e084cd","5fef55e628823a0076ec12ee","601f49bf4687cc497600f38f","Mozilla/5.0 (Windows NT 6.1; Win64; x64) AppleWebKit/537.36 (KHTML, like Gecko) Chrome/88.0.4324.104 Safari/537.36","v1","","","","","","","","","","","","","","","","",""
"html-keyboard-response","1","2202","0.0-1.0","5e28e8730fd86a0a19e084cd","5fef55e628823a0076ec12ee","601f49bf4687cc497600f38f","Mozilla/5.0 (Windows NT 6.1; Win64; x64) AppleWebKit/537.36 (KHTML, like Gecko) Chrome/88.0.4324.104 Safari/537.36","v1","2185.3700000210665","<div><h1>Welcome!</h1><p>Press any key to continue.</p></div>","32","","","","","","","","","","","","","",""
"consent-form","2","62628","0.0-2.0","5e28e8730fd86a0a19e084cd","5fef55e628823a0076ec12ee","601f49bf4687cc497600f38f","Mozilla/5.0 (Windows NT 6.1; Win64; x64) AppleWebKit/537.36 (KHTML, like Gecko) Chrome/88.0.4324.104 Safari/537.36","v1","","","","","","","","","","","","","","","","",""
"keyset-select","3","109100","0.0-3.0","5e28e8730fd86a0a19e084cd","5fef55e628823a0076ec12ee","601f49bf4687cc497600f38f","Mozilla/5.0 (Windows NT 6.1; Win64; x64) AppleWebKit/537.36 (KHTML, like Gecko) Chrome/88.0.4324.104 Safari/537.36","v1","","","","left-hand","","","","","","","","","","","","",""
"headphone-check","4","162815","0.0-4.0","5e28e8730fd86a0a19e084cd","5fef55e628823a0076ec12ee","601f49bf4687cc497600f38f","Mozilla/5.0 (Windows NT 6.1; Win64; x64) AppleWebKit/537.36 (KHTML, like Gecko) Chrome/88.0.4324.104 Safari/537.36","v1","","","","","1","6","0.3","","","","","","","","","",""
"headphone-backwards-check","5","169109","0.0-5.0","5e28e8730fd86a0a19e084cd","5fef55e628823a0076ec12ee","601f49bf4687cc497600f38f","Mozilla/5.0 (Windows NT 6.1; Win64; x64) AppleWebKit/537.36 (KHTML, like Gecko) Chrome/88.0.4324.104 Safari/537.36","v1","","","","","0","","","","","","","","","","","",""
"training","6","284071","0.0-6.0","5e28e8730fd86a0a19e084cd","5fef55e628823a0076ec12ee","601f49bf4687cc497600f38f","Mozilla/5.0 (Windows NT 6.1; Win64; x64) AppleWebKit/537.36 (KHTML, like Gecko) Chrome/88.0.4324.104 Safari/537.36","v1","","","","","","","","","","","","","","","","",""
"block-bookend","7","297839","0.0-7.0","5e28e8730fd86a0a19e084cd","5fef55e628823a0076ec12ee","601f49bf4687cc497600f38f","Mozilla/5.0 (Windows NT 6.1; Win64; x64) AppleWebKit/537.36 (KHTML, like Gecko) Chrome/88.0.4324.104 Safari/537.36","v1","","","","","","","","","","","","","","","","",""
"echo-presentation","8","305445","0.0-8.0","5e28e8730fd86a0a19e084cd","5fef55e628823a0076ec12ee","601f49bf4687cc497600f38f","Mozilla/5.0 (Windows NT 6.1; Win64; x64) AppleWebKit/537.36 (KHTML, like Gecko) Chrome/88.0.4324.104 Safari/537.36","v1","","","","","","","","40,50,60,70,80","media/audio/stims/spherical_300cm_s20_c20_cd-full_matched_a70.wav","spherical","20","20","full","matched","70","80","2926"
"echo-presentation","9","311840","0.0-9.0","5e28e8730fd86a0a19e084cd","5fef55e628823a0076ec12ee","601f49bf4687cc497600f38f","Mozilla/5.0 (Windows NT 6.1; Win64; x64) AppleWebKit/537.36 (KHTML, like Gecko) Chrome/88.0.4324.104 Safari/537.36","v1","","","","","","","","40,50,60,70,80","media/audio/stims/spherical_300cm_s20_c20_cd-full_matched_a50.wav","spherical","20","20","full","matched","50","70","4975"
"echo-presentation","10","316761","0.0-10.0","5e28e8730fd86a0a19e084cd","5fef55e628823a0076ec12ee","601f49bf4687cc497600f38f","Mozilla/5.0 (Windows NT 6.1; Win64; x64) AppleWebKit/537.36 (KHTML, like Gecko) Chrome/88.0.4324.104 Safari/537.36","v1","","","","","","","","40,50,60,70,80","media/audio/stims/spherical_300cm_s20_c20_cd-full_matched_a40.wav","spherical","20","20","full","matched","40","70","3529"
"echo-presentation","11","321206","0.0-11.0","5e28e8730fd86a0a19e084cd","5fef55e628823a0076ec12ee","601f49bf4687cc497600f38f","Mozilla/5.0 (Windows NT 6.1; Win64; x64) AppleWebKit/537.36 (KHTML, like Gecko) Chrome/88.0.4324.104 Safari/537.36","v1","","","","","","","","40,50,60,70,80","media/audio/stims/spherical_300cm_s20_c20_cd-full_matched_a60.wav","spherical","20","20","full","matched","60","80","2135"
"echo-presentation","12","327639","0.0-12.0","5e28e8730fd86a0a19e084cd","5fef55e628823a0076ec12ee","601f49bf4687cc497600f38f","Mozilla/5.0 (Windows NT 6.1; Win64; x64) AppleWebKit/537.36 (KHTML, like Gecko) Chrome/88.0.4324.104 Safari/537.36","v1","","","","","","","","40,50,60,70,80","media/audio/stims/spherical_300cm_s20_c20_cd-full_matched_a80.wav","spherical","20","20","full","matched","80","60","4968"
"echo-presentation","13","334814","0.0-13.0","5e28e8730fd86a0a19e084cd","5fef55e628823a0076ec12ee","601f49bf4687cc497600f38f","Mozilla/5.0 (Windows NT 6.1; Win64; x64) AppleWebKit/537.36 (KHTML, like Gecko) Chrome/88.0.4324.104 Safari/537.36","v1","","","","","","","","40,50,60,70,80","media/audio/stims/spherical_300cm_s20_c20_cd-full_matched_a40.wav","spherical","20","20","full","matched","40","80","4711"
"echo-presentation","14","339549","0.0-14.0","5e28e8730fd86a0a19e084cd","5fef55e628823a0076ec12ee","601f49bf4687cc497600f38f","Mozilla/5.0 (Windows NT 6.1; Win64; x64) AppleWebKit/537.36 (KHTML, like Gecko) Chrome/88.0.4324.104 Safari/537.36","v1","","","","","","","","40,50,60,70,80","media/audio/stims/spherical_300cm_s20_c20_cd-full_matched_a40.wav","spherical","20","20","full","matched","40","80","3383"
"echo-presentation","15","343819","0.0-15.0","5e28e8730fd86a0a19e084cd","5fef55e628823a0076ec12ee","601f49bf4687cc497600f38f","Mozilla/5.0 (Windows NT 6.1; Win64; x64) AppleWebKit/537.36 (KHTML, like Gecko) Chrome/88.0.4324.104 Safari/537.36","v1","","","","","","","","40,50,60,70,80","media/audio/stims/spherical_300cm_s20_c20_cd-full_matched_a70.wav","spherical","20","20","full","matched","70","80","2159"
"echo-presentation","16","346653","0.0-16.0","5e28e8730fd86a0a19e084cd","5fef55e628823a0076ec12ee","601f49bf4687cc497600f38f","Mozilla/5.0 (Windows NT 6.1; Win64; x64) AppleWebKit/537.36 (KHTML, like Gecko) Chrome/88.0.4324.104 Safari/537.36","v1","","","","","","","","40,50,60,70,80","media/audio/stims/spherical_300cm_s20_c20_cd-full_matched_a60.wav","spherical","20","20","full","matched","60","80","1609"
"echo-presentation","17","350213","0.0-17.0","5e28e8730fd86a0a19e084cd","5fef55e628823a0076ec12ee","601f49bf4687cc497600f38f","Mozilla/5.0 (Windows NT 6.1; Win64; x64) AppleWebKit/537.36 (KHTML, like Gecko) Chrome/88.0.4324.104 Safari/537.36","v1","","","","","","","","40,50,60,70,80","media/audio/stims/spherical_300cm_s20_c20_cd-full_matched_a50.wav","spherical","20","20","full","matched","50","80","2144"
"echo-presentation","18","353404","0.0-18.0","5e28e8730fd86a0a19e084cd","5fef55e628823a0076ec12ee","601f49bf4687cc497600f38f","Mozilla/5.0 (Windows NT 6.1; Win64; x64) AppleWebKit/537.36 (KHTML, like Gecko) Chrome/88.0.4324.104 Safari/537.36","v1","","","","","","","","40,50,60,70,80","media/audio/stims/spherical_300cm_s20_c20_cd-full_matched_a80.wav","spherical","20","20","full","matched","80","80","1991"
"echo-presentation","19","356275","0.0-19.0","5e28e8730fd86a0a19e084cd","5fef55e628823a0076ec12ee","601f49bf4687cc497600f38f","Mozilla/5.0 (Windows NT 6.1; Win64; x64) AppleWebKit/537.36 (KHTML, like Gecko) Chrome/88.0.4324.104 Safari/537.36","v1","","","","","","","","40,50,60,70,80","media/audio/stims/spherical_300cm_s20_c20_cd-full_matched_a50.wav","spherical","20","20","full","matched","50","80","1600"
"echo-presentation","20","359579","0.0-20.0","5e28e8730fd86a0a19e084cd","5fef55e628823a0076ec12ee","601f49bf4687cc497600f38f","Mozilla/5.0 (Windows NT 6.1; Win64; x64) AppleWebKit/537.36 (KHTML, like Gecko) Chrome/88.0.4324.104 Safari/537.36","v1","","","","","","","","40,50,60,70,80","media/audio/stims/spherical_300cm_s20_c20_cd-full_matched_a80.wav","spherical","20","20","full","matched","80","70","1860"
"echo-presentation","21","362906","0.0-21.0","5e28e8730fd86a0a19e084cd","5fef55e628823a0076ec12ee","601f49bf4687cc497600f38f","Mozilla/5.0 (Windows NT 6.1; Win64; x64) AppleWebKit/537.36 (KHTML, like Gecko) Chrome/88.0.4324.104 Safari/537.36","v1","","","","","","","","40,50,60,70,80","media/audio/stims/spherical_300cm_s20_c20_cd-full_matched_a40.wav","spherical","20","20","full","matched","40","80","2110"
"echo-presentation","22","365954","0.0-22.0","5e28e8730fd86a0a19e084cd","5fef55e628823a0076ec12ee","601f49bf4687cc497600f38f","Mozilla/5.0 (Windows NT 6.1; Win64; x64) AppleWebKit/537.36 (KHTML, like Gecko) Chrome/88.0.4324.104 Safari/537.36","v1","","","","","","","","40,50,60,70,80","media/audio/stims/spherical_300cm_s20_c20_cd-full_matched_a60.wav","spherical","20","20","full","matched","60","80","1632"
"echo-presentation","23","368859","0.0-23.0","5e28e8730fd86a0a19e084cd","5fef55e628823a0076ec12ee","601f49bf4687cc497600f38f","Mozilla/5.0 (Windows NT 6.1; Win64; x64) AppleWebKit/537.36 (KHTML, like Gecko) Chrome/88.0.4324.104 Safari/537.36","v1","","","","","","","","40,50,60,70,80","media/audio/stims/spherical_300cm_s20_c20_cd-full_matched_a70.wav","spherical","20","20","full","matched","70","70","1583"
"echo-presentation","24","373051","0.0-24.0","5e28e8730fd86a0a19e084cd","5fef55e628823a0076ec12ee","601f49bf4687cc497600f38f","Mozilla/5.0 (Windows NT 6.1; Win64; x64) AppleWebKit/537.36 (KHTML, like Gecko) Chrome/88.0.4324.104 Safari/537.36","v1","","","","","","","","40,50,60,70,80","media/audio/stims/spherical_300cm_s20_c20_cd-full_matched_a60.wav","spherical","20","20","full","matched","60","80","2425"
"echo-presentation","25","375594","0.0-25.0","5e28e8730fd86a0a19e084cd","5fef55e628823a0076ec12ee","601f49bf4687cc497600f38f","Mozilla/5.0 (Windows NT 6.1; Win64; x64) AppleWebKit/537.36 (KHTML, like Gecko) Chrome/88.0.4324.104 Safari/537.36","v1","","","","","","","","40,50,60,70,80","media/audio/stims/spherical_300cm_s20_c20_cd-full_matched_a80.wav","spherical","20","20","full","matched","80","80","1367"
"echo-presentation","26","378362","0.0-26.0","5e28e8730fd86a0a19e084cd","5fef55e628823a0076ec12ee","601f49bf4687cc497600f38f","Mozilla/5.0 (Windows NT 6.1; Win64; x64) AppleWebKit/537.36 (KHTML, like Gecko) Chrome/88.0.4324.104 Safari/537.36","v1","","","","","","","","40,50,60,70,80","media/audio/stims/spherical_300cm_s20_c20_cd-full_matched_a70.wav","spherical","20","20","full","matched","70","80","1432"
"echo-presentation","27","382831","0.0-27.0","5e28e8730fd86a0a19e084cd","5fef55e628823a0076ec12ee","601f49bf4687cc497600f38f","Mozilla/5.0 (Windows NT 6.1; Win64; x64) AppleWebKit/537.36 (KHTML, like Gecko) Chrome/88.0.4324.104 Safari/537.36","v1","","","","","","","","40,50,60,70,80","media/audio/stims/spherical_300cm_s20_c20_cd-full_matched_a50.wav","spherical","20","20","full","matched","50","80","2286"
"block-bookend","28","386491","0.0-28.0","5e28e8730fd86a0a19e084cd","5fef55e628823a0076ec12ee","601f49bf4687cc497600f38f","Mozilla/5.0 (Windows NT 6.1; Win64; x64) AppleWebKit/537.36 (KHTML, like Gecko) Chrome/88.0.4324.104 Safari/537.36","v1","","","","","","","","","","","","","","","","",""
"block-bookend","29","396626","0.0-29.0","5e28e8730fd86a0a19e084cd","5fef55e628823a0076ec12ee","601f49bf4687cc497600f38f","Mozilla/5.0 (Windows NT 6.1; Win64; x64) AppleWebKit/537.36 (KHTML, like Gecko) Chrome/88.0.4324.104 Safari/537.36","v1","","","","","","","","","","","","","","","","",""
"echo-presentation","30","400853","0.0-30.0","5e28e8730fd86a0a19e084cd","5fef55e628823a0076ec12ee","601f49bf4687cc497600f38f","Mozilla/5.0 (Windows NT 6.1; Win64; x64) AppleWebKit/537.36 (KHTML, like Gecko) Chrome/88.0.4324.104 Safari/537.36","v1","","","","","","","","40,50,60,70,80","media/audio/stims/spherical_300cm_s20_c20_cd-full_matched_a50.wav","spherical","20","20","full","matched","50","70","2447"
"echo-presentation","31","404080","0.0-31.0","5e28e8730fd86a0a19e084cd","5fef55e628823a0076ec12ee","601f49bf4687cc497600f38f","Mozilla/5.0 (Windows NT 6.1; Win64; x64) AppleWebKit/537.36 (KHTML, like Gecko) Chrome/88.0.4324.104 Safari/537.36","v1","","","","","","","","40,50,60,70,80","media/audio/stims/spherical_300cm_s20_c20_cd-full_matched_a70.wav","spherical","20","20","full","matched","70","70","1559"
"echo-presentation","32","406833","0.0-32.0","5e28e8730fd86a0a19e084cd","5fef55e628823a0076ec12ee","601f49bf4687cc497600f38f","Mozilla/5.0 (Windows NT 6.1; Win64; x64) AppleWebKit/537.36 (KHTML, like Gecko) Chrome/88.0.4324.104 Safari/537.36","v1","","","","","","","","40,50,60,70,80","media/audio/stims/spherical_300cm_s20_c20_cd-full_matched_a50.wav","spherical","20","20","full","matched","50","70","1575"
"echo-presentation","33","409977","0.0-33.0","5e28e8730fd86a0a19e084cd","5fef55e628823a0076ec12ee","601f49bf4687cc497600f38f","Mozilla/5.0 (Windows NT 6.1; Win64; x64) AppleWebKit/537.36 (KHTML, like Gecko) Chrome/88.0.4324.104 Safari/537.36","v1","","","","","","","","40,50,60,70,80","media/audio/stims/spherical_300cm_s20_c20_cd-full_matched_a70.wav","spherical","20","20","full","matched","70","80","1870"
"echo-presentation","34","412769","0.0-34.0","5e28e8730fd86a0a19e084cd","5fef55e628823a0076ec12ee","601f49bf4687cc497600f38f","Mozilla/5.0 (Windows NT 6.1; Win64; x64) AppleWebKit/537.36 (KHTML, like Gecko) Chrome/88.0.4324.104 Safari/537.36","v1","","","","","","","","40,50,60,70,80","media/audio/stims/spherical_300cm_s20_c20_cd-full_matched_a60.wav","spherical","20","20","full","matched","60","80","1543"
"echo-presentation","35","418105","0.0-35.0","5e28e8730fd86a0a19e084cd","5fef55e628823a0076ec12ee","601f49bf4687cc497600f38f","Mozilla/5.0 (Windows NT 6.1; Win64; x64) AppleWebKit/537.36 (KHTML, like Gecko) Chrome/88.0.4324.104 Safari/537.36","v1","","","","","","","","40,50,60,70,80","media/audio/stims/spherical_300cm_s20_c20_cd-full_matched_a70.wav","spherical","20","20","full","matched","70","80","4152"
"echo-presentation","36","422472","0.0-36.0","5e28e8730fd86a0a19e084cd","5fef55e628823a0076ec12ee","601f49bf4687cc497600f38f","Mozilla/5.0 (Windows NT 6.1; Win64; x64) AppleWebKit/537.36 (KHTML, like Gecko) Chrome/88.0.4324.104 Safari/537.36","v1","","","","","","","","40,50,60,70,80","media/audio/stims/spherical_300cm_s20_c20_cd-full_matched_a40.wav","spherical","20","20","full","matched","40","80","3247"
"echo-presentation","37","425831","0.0-37.0","5e28e8730fd86a0a19e084cd","5fef55e628823a0076ec12ee","601f49bf4687cc497600f38f","Mozilla/5.0 (Windows NT 6.1; Win64; x64) AppleWebKit/537.36 (KHTML, like Gecko) Chrome/88.0.4324.104 Safari/537.36","v1","","","","","","","","40,50,60,70,80","media/audio/stims/spherical_300cm_s20_c20_cd-full_matched_a60.wav","spherical","20","20","full","matched","60","80","2271"
"echo-presentation","38","431329","0.0-38.0","5e28e8730fd86a0a19e084cd","5fef55e628823a0076ec12ee","601f49bf4687cc497600f38f","Mozilla/5.0 (Windows NT 6.1; Win64; x64) AppleWebKit/537.36 (KHTML, like Gecko) Chrome/88.0.4324.104 Safari/537.36","v1","","","","","","","","40,50,60,70,80","media/audio/stims/spherical_300cm_s20_c20_cd-full_matched_a70.wav","spherical","20","20","full","matched","70","70","4097"
"echo-presentation","39","435231","0.0-39.0","5e28e8730fd86a0a19e084cd","5fef55e628823a0076ec12ee","601f49bf4687cc497600f38f","Mozilla/5.0 (Windows NT 6.1; Win64; x64) AppleWebKit/537.36 (KHTML, like Gecko) Chrome/88.0.4324.104 Safari/537.36","v1","","","","","","","","40,50,60,70,80","media/audio/stims/spherical_300cm_s20_c20_cd-full_matched_a40.wav","spherical","20","20","full","matched","40","80","2742"
"echo-presentation","40","440415","0.0-40.0","5e28e8730fd86a0a19e084cd","5fef55e628823a0076ec12ee","601f49bf4687cc497600f38f","Mozilla/5.0 (Windows NT 6.1; Win64; x64) AppleWebKit/537.36 (KHTML, like Gecko) Chrome/88.0.4324.104 Safari/537.36","v1","","","","","","","","40,50,60,70,80","media/audio/stims/spherical_300cm_s20_c20_cd-full_matched_a60.wav","spherical","20","20","full","matched","60","80","3455"
"echo-presentation","41","442854","0.0-41.0","5e28e8730fd86a0a19e084cd","5fef55e628823a0076ec12ee","601f49bf4687cc497600f38f","Mozilla/5.0 (Windows NT 6.1; Win64; x64) AppleWebKit/537.36 (KHTML, like Gecko) Chrome/88.0.4324.104 Safari/537.36","v1","","","","","","","","40,50,60,70,80","media/audio/stims/spherical_300cm_s20_c20_cd-full_matched_a80.wav","spherical","20","20","full","matched","80","80","1318"
"echo-presentation","42","445760","0.0-42.0","5e28e8730fd86a0a19e084cd","5fef55e628823a0076ec12ee","601f49bf4687cc497600f38f","Mozilla/5.0 (Windows NT 6.1; Win64; x64) AppleWebKit/537.36 (KHTML, like Gecko) Chrome/88.0.4324.104 Safari/537.36","v1","","","","","","","","40,50,60,70,80","media/audio/stims/spherical_300cm_s20_c20_cd-full_matched_a40.wav","spherical","20","20","full","matched","40","80","1616"
"echo-presentation","43","448469","0.0-43.0","5e28e8730fd86a0a19e084cd","5fef55e628823a0076ec12ee","601f49bf4687cc497600f38f","Mozilla/5.0 (Windows NT 6.1; Win64; x64) AppleWebKit/537.36 (KHTML, like Gecko) Chrome/88.0.4324.104 Safari/537.36","v1","","","","","","","","40,50,60,70,80","media/audio/stims/spherical_300cm_s20_c20_cd-full_matched_a40.wav","spherical","20","20","full","matched","40","80","1447"
"echo-presentation","44","450901","0.0-44.0","5e28e8730fd86a0a19e084cd","5fef55e628823a0076ec12ee","601f49bf4687cc497600f38f","Mozilla/5.0 (Windows NT 6.1; Win64; x64) AppleWebKit/537.36 (KHTML, like Gecko) Chrome/88.0.4324.104 Safari/537.36","v1","","","","","","","","40,50,60,70,80","media/audio/stims/spherical_300cm_s20_c20_cd-full_matched_a80.wav","spherical","20","20","full","matched","80","80","1351"
"echo-presentation","45","454022","0.0-45.0","5e28e8730fd86a0a19e084cd","5fef55e628823a0076ec12ee","601f49bf4687cc497600f38f","Mozilla/5.0 (Windows NT 6.1; Win64; x64) AppleWebKit/537.36 (KHTML, like Gecko) Chrome/88.0.4324.104 Safari/537.36","v1","","","","","","","","40,50,60,70,80","media/audio/stims/spherical_300cm_s20_c20_cd-full_matched_a80.wav","spherical","20","20","full","matched","80","80","1886"
"echo-presentation","46","456742","0.0-46.0","5e28e8730fd86a0a19e084cd","5fef55e628823a0076ec12ee","601f49bf4687cc497600f38f","Mozilla/5.0 (Windows NT 6.1; Win64; x64) AppleWebKit/537.36 (KHTML, like Gecko) Chrome/88.0.4324.104 Safari/537.36","v1","","","","","","","","40,50,60,70,80","media/audio/stims/spherical_300cm_s20_c20_cd-full_matched_a50.wav","spherical","20","20","full","matched","50","80","1560"
"echo-presentation","47","459715","0.0-47.0","5e28e8730fd86a0a19e084cd","5fef55e628823a0076ec12ee","601f49bf4687cc497600f38f","Mozilla/5.0 (Windows NT 6.1; Win64; x64) AppleWebKit/537.36 (KHTML, like Gecko) Chrome/88.0.4324.104 Safari/537.36","v1","","","","","","","","40,50,60,70,80","media/audio/stims/spherical_300cm_s20_c20_cd-full_matched_a50.wav","spherical","20","20","full","matched","50","80","1576"
"echo-presentation","48","462446","0.0-48.0","5e28e8730fd86a0a19e084cd","5fef55e628823a0076ec12ee","601f49bf4687cc497600f38f","Mozilla/5.0 (Windows NT 6.1; Win64; x64) AppleWebKit/537.36 (KHTML, like Gecko) Chrome/88.0.4324.104 Safari/537.36","v1","","","","","","","","40,50,60,70,80","media/audio/stims/spherical_300cm_s20_c20_cd-full_matched_a60.wav","spherical","20","20","full","matched","60","80","1329"
"echo-presentation","49","466436","0.0-49.0","5e28e8730fd86a0a19e084cd","5fef55e628823a0076ec12ee","601f49bf4687cc497600f38f","Mozilla/5.0 (Windows NT 6.1; Win64; x64) AppleWebKit/537.36 (KHTML, like Gecko) Chrome/88.0.4324.104 Safari/537.36","v1","","","","","","","","40,50,60,70,80","media/audio/stims/spherical_300cm_s20_c20_cd-full_matched_a80.wav","spherical","20","20","full","matched","80","80","2849"
"block-bookend","50","469280","0.0-50.0","5e28e8730fd86a0a19e084cd","5fef55e628823a0076ec12ee","601f49bf4687cc497600f38f","Mozilla/5.0 (Windows NT 6.1; Win64; x64) AppleWebKit/537.36 (KHTML, like Gecko) Chrome/88.0.4324.104 Safari/537.36","v1","","","","","","","","","","","","","","","","",""
"block-bookend","51","475766","0.0-51.0","5e28e8730fd86a0a19e084cd","5fef55e628823a0076ec12ee","601f49bf4687cc497600f38f","Mozilla/5.0 (Windows NT 6.1; Win64; x64) AppleWebKit/537.36 (KHTML, like Gecko) Chrome/88.0.4324.104 Safari/537.36","v1","","","","","","","","","","","","","","","","",""
"echo-presentation","52","486660","0.0-52.0","5e28e8730fd86a0a19e084cd","5fef55e628823a0076ec12ee","601f49bf4687cc497600f38f","Mozilla/5.0 (Windows NT 6.1; Win64; x64) AppleWebKit/537.36 (KHTML, like Gecko) Chrome/88.0.4324.104 Safari/537.36","v1","","","","","","","","-20,-10,0,10,20","media/audio/stims/spherical_300cm_s20_c20_cd-full_matched_a-10.wav","spherical","20","20","full","matched","-10","10","8360"
"echo-presentation","53","493275","0.0-53.0","5e28e8730fd86a0a19e084cd","5fef55e628823a0076ec12ee","601f49bf4687cc497600f38f","Mozilla/5.0 (Windows NT 6.1; Win64; x64) AppleWebKit/537.36 (KHTML, like Gecko) Chrome/88.0.4324.104 Safari/537.36","v1","","","","","","","","-20,-10,0,10,20","media/audio/stims/spherical_300cm_s20_c20_cd-full_matched_a0.wav","spherical","20","20","full","matched","0","10","5264"
"echo-presentation","54","496378","0.0-54.0","5e28e8730fd86a0a19e084cd","5fef55e628823a0076ec12ee","601f49bf4687cc497600f38f","Mozilla/5.0 (Windows NT 6.1; Win64; x64) AppleWebKit/537.36 (KHTML, like Gecko) Chrome/88.0.4324.104 Safari/537.36","v1","","","","","","","","-20,-10,0,10,20","media/audio/stims/spherical_300cm_s20_c20_cd-full_matched_a-10.wav","spherical","20","20","full","matched","-10","0","1280"
"echo-presentation","55","499683","0.0-55.0","5e28e8730fd86a0a19e084cd","5fef55e628823a0076ec12ee","601f49bf4687cc497600f38f","Mozilla/5.0 (Windows NT 6.1; Win64; x64) AppleWebKit/537.36 (KHTML, like Gecko) Chrome/88.0.4324.104 Safari/537.36","v1","","","","","","","","-20,-10,0,10,20","media/audio/stims/spherical_300cm_s20_c20_cd-full_matched_a20.wav","spherical","20","20","full","matched","20","10","2182"
"echo-presentation","56","502403","0.0-56.0","5e28e8730fd86a0a19e084cd","5fef55e628823a0076ec12ee","601f49bf4687cc497600f38f","Mozilla/5.0 (Windows NT 6.1; Win64; x64) AppleWebKit/537.36 (KHTML, like Gecko) Chrome/88.0.4324.104 Safari/537.36","v1","","","","","","","","-20,-10,0,10,20","media/audio/stims/spherical_300cm_s20_c20_cd-full_matched_a10.wav","spherical","20","20","full","matched","10","0","1628"
"echo-presentation","57","504786","0.0-57.0","5e28e8730fd86a0a19e084cd","5fef55e628823a0076ec12ee","601f49bf4687cc497600f38f","Mozilla/5.0 (Windows NT 6.1; Win64; x64) AppleWebKit/537.36 (KHTML, like Gecko) Chrome/88.0.4324.104 Safari/537.36","v1","","","","","","","","-20,-10,0,10,20","media/audio/stims/spherical_300cm_s20_c20_cd-full_matched_a-10.wav","spherical","20","20","full","matched","-10","0","1188"
"echo-presentation","58","507320","0.0-58.0","5e28e8730fd86a0a19e084cd","5fef55e628823a0076ec12ee","601f49bf4687cc497600f38f","Mozilla/5.0 (Windows NT 6.1; Win64; x64) AppleWebKit/537.36 (KHTML, like Gecko) Chrome/88.0.4324.104 Safari/537.36","v1","","","","","","","","-20,-10,0,10,20","media/audio/stims/spherical_300cm_s20_c20_cd-full_matched_a0.wav","spherical","20","20","full","matched","0","0","1320"
"echo-presentation","59","510573","0.0-59.0","5e28e8730fd86a0a19e084cd","5fef55e628823a0076ec12ee","601f49bf4687cc497600f38f","Mozilla/5.0 (Windows NT 6.1; Win64; x64) AppleWebKit/537.36 (KHTML, like Gecko) Chrome/88.0.4324.104 Safari/537.36","v1","","","","","","","","-20,-10,0,10,20","media/audio/stims/spherical_300cm_s20_c20_cd-full_matched_a10.wav","spherical","20","20","full","matched","10","0","1727"
"echo-presentation","60","514233","0.0-60.0","5e28e8730fd86a0a19e084cd","5fef55e628823a0076ec12ee","601f49bf4687cc497600f38f","Mozilla/5.0 (Windows NT 6.1; Win64; x64) AppleWebKit/537.36 (KHTML, like Gecko) Chrome/88.0.4324.104 Safari/537.36","v1","","","","","","","","-20,-10,0,10,20","media/audio/stims/spherical_300cm_s20_c20_cd-full_matched_a10.wav","spherical","20","20","full","matched","10","10","1559"
"echo-presentation","61","517993","0.0-61.0","5e28e8730fd86a0a19e084cd","5fef55e628823a0076ec12ee","601f49bf4687cc497600f38f","Mozilla/5.0 (Windows NT 6.1; Win64; x64) AppleWebKit/537.36 (KHTML, like Gecko) Chrome/88.0.4324.104 Safari/537.36","v1","","","","","","","","-20,-10,0,10,20","media/audio/stims/spherical_300cm_s20_c20_cd-full_matched_a-20.wav","spherical","20","20","full","matched","-20","-10","2692"
"echo-presentation","62","520344","0.0-62.0","5e28e8730fd86a0a19e084cd","5fef55e628823a0076ec12ee","601f49bf4687cc497600f38f","Mozilla/5.0 (Windows NT 6.1; Win64; x64) AppleWebKit/537.36 (KHTML, like Gecko) Chrome/88.0.4324.104 Safari/537.36","v1","","","","","","","","-20,-10,0,10,20","media/audio/stims/spherical_300cm_s20_c20_cd-full_matched_a-20.wav","spherical","20","20","full","matched","-20","-10","1438"
"echo-presentation","63","522889","0.0-63.0","5e28e8730fd86a0a19e084cd","5fef55e628823a0076ec12ee","601f49bf4687cc497600f38f","Mozilla/5.0 (Windows NT 6.1; Win64; x64) AppleWebKit/537.36 (KHTML, like Gecko) Chrome/88.0.4324.104 Safari/537.36","v1","","","","","","","","-20,-10,0,10,20","media/audio/stims/spherical_300cm_s20_c20_cd-full_matched_a-20.wav","spherical","20","20","full","matched","-20","-10","1439"
"echo-presentation","64","525305","0.0-64.0","5e28e8730fd86a0a19e084cd","5fef55e628823a0076ec12ee","601f49bf4687cc497600f38f","Mozilla/5.0 (Windows NT 6.1; Win64; x64) AppleWebKit/537.36 (KHTML, like Gecko) Chrome/88.0.4324.104 Safari/537.36","v1","","","","","","","","-20,-10,0,10,20","media/audio/stims/spherical_300cm_s20_c20_cd-full_matched_a20.wav","spherical","20","20","full","matched","20","-10","1335"
"echo-presentation","65","528546","0.0-65.0","5e28e8730fd86a0a19e084cd","5fef55e628823a0076ec12ee","601f49bf4687cc497600f38f","Mozilla/5.0 (Windows NT 6.1; Win64; x64) AppleWebKit/537.36 (KHTML, like Gecko) Chrome/88.0.4324.104 Safari/537.36","v1","","","","","","","","-20,-10,0,10,20","media/audio/stims/spherical_300cm_s20_c20_cd-full_matched_a20.wav","spherical","20","20","full","matched","20","0","2162"
"echo-presentation","66","532760","0.0-66.0","5e28e8730fd86a0a19e084cd","5fef55e628823a0076ec12ee","601f49bf4687cc497600f38f","Mozilla/5.0 (Windows NT 6.1; Win64; x64) AppleWebKit/537.36 (KHTML, like Gecko) Chrome/88.0.4324.104 Safari/537.36","v1","","","","","","","","-20,-10,0,10,20","media/audio/stims/spherical_300cm_s20_c20_cd-full_matched_a10.wav","spherical","20","20","full","matched","10","0","3126"
"echo-presentation","67","535390","0.0-67.0","5e28e8730fd86a0a19e084cd","5fef55e628823a0076ec12ee","601f49bf4687cc497600f38f","Mozilla/5.0 (Windows NT 6.1; Win64; x64) AppleWebKit/537.36 (KHTML, like Gecko) Chrome/88.0.4324.104 Safari/537.36","v1","","","","","","","","-20,-10,0,10,20","media/audio/stims/spherical_300cm_s20_c20_cd-full_matched_a-10.wav","spherical","20","20","full","matched","-10","0","1605"
"echo-presentation","68","537930","0.0-68.0","5e28e8730fd86a0a19e084cd","5fef55e628823a0076ec12ee","601f49bf4687cc497600f38f","Mozilla/5.0 (Windows NT 6.1; Win64; x64) AppleWebKit/537.36 (KHTML, like Gecko) Chrome/88.0.4324.104 Safari/537.36","v1","","","","","","","","-20,-10,0,10,20","media/audio/stims/spherical_300cm_s20_c20_cd-full_matched_a20.wav","spherical","20","20","full","matched","20","-10","1472"
"echo-presentation","69","540923","0.0-69.0","5e28e8730fd86a0a19e084cd","5fef55e628823a0076ec12ee","601f49bf4687cc497600f38f","Mozilla/5.0 (Windows NT 6.1; Win64; x64) AppleWebKit/537.36 (KHTML, like Gecko) Chrome/88.0.4324.104 Safari/537.36","v1","","","","","","","","-20,-10,0,10,20","media/audio/stims/spherical_300cm_s20_c20_cd-full_matched_a0.wav","spherical","20","20","full","matched","0","-10","1745"
"echo-presentation","70","544409","0.0-70.0","5e28e8730fd86a0a19e084cd","5fef55e628823a0076ec12ee","601f49bf4687cc497600f38f","Mozilla/5.0 (Windows NT 6.1; Win64; x64) AppleWebKit/537.36 (KHTML, like Gecko) Chrome/88.0.4324.104 Safari/537.36","v1","","","","","","","","-20,-10,0,10,20","media/audio/stims/spherical_300cm_s20_c20_cd-full_matched_a-20.wav","spherical","20","20","full","matched","-20","10","1912"
"echo-presentation","71","547352","0.0-71.0","5e28e8730fd86a0a19e084cd","5fef55e628823a0076ec12ee","601f49bf4687cc497600f38f","Mozilla/5.0 (Windows NT 6.1; Win64; x64) AppleWebKit/537.36 (KHTML, like Gecko) Chrome/88.0.4324.104 Safari/537.36","v1","","","","","","","","-20,-10,0,10,20","media/audio/stims/spherical_300cm_s20_c20_cd-full_matched_a0.wav","spherical","20","20","full","matched","0","-10","1847"
"block-bookend","72","549209","0.0-72.0","5e28e8730fd86a0a19e084cd","5fef55e628823a0076ec12ee","601f49bf4687cc497600f38f","Mozilla/5.0 (Windows NT 6.1; Win64; x64) AppleWebKit/537.36 (KHTML, like Gecko) Chrome/88.0.4324.104 Safari/537.36","v1","","","","","","","","","","","","","","","","",""
"block-bookend","73","554312","0.0-73.0","5e28e8730fd86a0a19e084cd","5fef55e628823a0076ec12ee","601f49bf4687cc497600f38f","Mozilla/5.0 (Windows NT 6.1; Win64; x64) AppleWebKit/537.36 (KHTML, like Gecko) Chrome/88.0.4324.104 Safari/537.36","v1","","","","","","","","","","","","","","","","",""
"echo-presentation","74","558368","0.0-74.0","5e28e8730fd86a0a19e084cd","5fef55e628823a0076ec12ee","601f49bf4687cc497600f38f","Mozilla/5.0 (Windows NT 6.1; Win64; x64) AppleWebKit/537.36 (KHTML, like Gecko) Chrome/88.0.4324.104 Safari/537.36","v1","","","","","","","","-20,-10,0,10,20","media/audio/stims/spherical_300cm_s20_c20_cd-full_matched_a0.wav","spherical","20","20","full","matched","0","0","2256"
"echo-presentation","75","561321","0.0-75.0","5e28e8730fd86a0a19e084cd","5fef55e628823a0076ec12ee","601f49bf4687cc497600f38f","Mozilla/5.0 (Windows NT 6.1; Win64; x64) AppleWebKit/537.36 (KHTML, like Gecko) Chrome/88.0.4324.104 Safari/537.36","v1","","","","","","","","-20,-10,0,10,20","media/audio/stims/spherical_300cm_s20_c20_cd-full_matched_a10.wav","spherical","20","20","full","matched","10","10","1841"
"echo-presentation","76","564967","0.0-76.0","5e28e8730fd86a0a19e084cd","5fef55e628823a0076ec12ee","601f49bf4687cc497600f38f","Mozilla/5.0 (Windows NT 6.1; Win64; x64) AppleWebKit/537.36 (KHTML, like Gecko) Chrome/88.0.4324.104 Safari/537.36","v1","","","","","","","","-20,-10,0,10,20","media/audio/stims/spherical_300cm_s20_c20_cd-full_matched_a-20.wav","spherical","20","20","full","matched","-20","-10","2527"
"echo-presentation","77","568303","0.0-77.0","5e28e8730fd86a0a19e084cd","5fef55e628823a0076ec12ee","601f49bf4687cc497600f38f","Mozilla/5.0 (Windows NT 6.1; Win64; x64) AppleWebKit/537.36 (KHTML, like Gecko) Chrome/88.0.4324.104 Safari/537.36","v1","","","","","","","","-20,-10,0,10,20","media/audio/stims/spherical_300cm_s20_c20_cd-full_matched_a20.wav","spherical","20","20","full","matched","20","10","2135"
"echo-presentation","78","571311","0.0-78.0","5e28e8730fd86a0a19e084cd","5fef55e628823a0076ec12ee","601f49bf4687cc497600f38f","Mozilla/5.0 (Windows NT 6.1; Win64; x64) AppleWebKit/537.36 (KHTML, like Gecko) Chrome/88.0.4324.104 Safari/537.36","v1","","","","","","","","-20,-10,0,10,20","media/audio/stims/spherical_300cm_s20_c20_cd-full_matched_a-20.wav","spherical","20","20","full","matched","-20","-10","1952"
"echo-presentation","79","576006","0.0-79.0","5e28e8730fd86a0a19e084cd","5fef55e628823a0076ec12ee","601f49bf4687cc497600f38f","Mozilla/5.0 (Windows NT 6.1; Win64; x64) AppleWebKit/537.36 (KHTML, like Gecko) Chrome/88.0.4324.104 Safari/537.36","v1","","","","","","","","-20,-10,0,10,20","media/audio/stims/spherical_300cm_s20_c20_cd-full_matched_a-10.wav","spherical","20","20","full","matched","-10","10","3486"
"echo-presentation","80","579254","0.0-80.0","5e28e8730fd86a0a19e084cd","5fef55e628823a0076ec12ee","601f49bf4687cc497600f38f","Mozilla/5.0 (Windows NT 6.1; Win64; x64) AppleWebKit/537.36 (KHTML, like Gecko) Chrome/88.0.4324.104 Safari/537.36","v1","","","","","","","","-20,-10,0,10,20","media/audio/stims/spherical_300cm_s20_c20_cd-full_matched_a0.wav","spherical","20","20","full","matched","0","0","2240"
"echo-presentation","81","582992","0.0-81.0","5e28e8730fd86a0a19e084cd","5fef55e628823a0076ec12ee","601f49bf4687cc497600f38f","Mozilla/5.0 (Windows NT 6.1; Win64; x64) AppleWebKit/537.36 (KHTML, like Gecko) Chrome/88.0.4324.104 Safari/537.36","v1","","","","","","","","-20,-10,0,10,20","media/audio/stims/spherical_300cm_s20_c20_cd-full_matched_a-20.wav","spherical","20","20","full","matched","-20","-20","2624"
"echo-presentation","82","588007","0.0-82.0","5e28e8730fd86a0a19e084cd","5fef55e628823a0076ec12ee","601f49bf4687cc497600f38f","Mozilla/5.0 (Windows NT 6.1; Win64; x64) AppleWebKit/537.36 (KHTML, like Gecko) Chrome/88.0.4324.104 Safari/537.36","v1","","","","","","","","-20,-10,0,10,20","media/audio/stims/spherical_300cm_s20_c20_cd-full_matched_a0.wav","spherical","20","20","full","matched","0","20","3984"
"echo-presentation","83","590430","0.0-83.0","5e28e8730fd86a0a19e084cd","5fef55e628823a0076ec12ee","601f49bf4687cc497600f38f","Mozilla/5.0 (Windows NT 6.1; Win64; x64) AppleWebKit/537.36 (KHTML, like Gecko) Chrome/88.0.4324.104 Safari/537.36","v1","","","","","","","","-20,-10,0,10,20","media/audio/stims/spherical_300cm_s20_c20_cd-full_matched_a0.wav","spherical","20","20","full","matched","0","20","1304"
"echo-presentation","84","593664","0.0-84.0","5e28e8730fd86a0a19e084cd","5fef55e628823a0076ec12ee","601f49bf4687cc497600f38f","Mozilla/5.0 (Windows NT 6.1; Win64; x64) AppleWebKit/537.36 (KHTML, like Gecko) Chrome/88.0.4324.104 Safari/537.36","v1","","","","","","","","-20,-10,0,10,20","media/audio/stims/spherical_300cm_s20_c20_cd-full_matched_a10.wav","spherical","20","20","full","matched","10","10","2122"
"echo-presentation","85","597374","0.0-85.0","5e28e8730fd86a0a19e084cd","5fef55e628823a0076ec12ee","601f49bf4687cc497600f38f","Mozilla/5.0 (Windows NT 6.1; Win64; x64) AppleWebKit/537.36 (KHTML, like Gecko) Chrome/88.0.4324.104 Safari/537.36","v1","","","","","","","","-20,-10,0,10,20","media/audio/stims/spherical_300cm_s20_c20_cd-full_matched_a-10.wav","spherical","20","20","full","matched","-10","20","2759"
"echo-presentation","86","600147","0.0-86.0","5e28e8730fd86a0a19e084cd","5fef55e628823a0076ec12ee","601f49bf4687cc497600f38f","Mozilla/5.0 (Windows NT 6.1; Win64; x64) AppleWebKit/537.36 (KHTML, like Gecko) Chrome/88.0.4324.104 Safari/537.36","v1","","","","","","","","-20,-10,0,10,20","media/audio/stims/spherical_300cm_s20_c20_cd-full_matched_a20.wav","spherical","20","20","full","matched","20","10","1768"
"echo-presentation","87","603061","0.0-87.0","5e28e8730fd86a0a19e084cd","5fef55e628823a0076ec12ee","601f49bf4687cc497600f38f","Mozilla/5.0 (Windows NT 6.1; Win64; x64) AppleWebKit/537.36 (KHTML, like Gecko) Chrome/88.0.4324.104 Safari/537.36","v1","","","","","","","","-20,-10,0,10,20","media/audio/stims/spherical_300cm_s20_c20_cd-full_matched_a-20.wav","spherical","20","20","full","matched","-20","-10","1727"
"echo-presentation","88","605741","0.0-88.0","5e28e8730fd86a0a19e084cd","5fef55e628823a0076ec12ee","601f49bf4687cc497600f38f","Mozilla/5.0 (Windows NT 6.1; Win64; x64) AppleWebKit/537.36 (KHTML, like Gecko) Chrome/88.0.4324.104 Safari/537.36","v1","","","","","","","","-20,-10,0,10,20","media/audio/stims/spherical_300cm_s20_c20_cd-full_matched_a-10.wav","spherical","20","20","full","matched","-10","0","1558"
"echo-presentation","89","608750","0.0-89.0","5e28e8730fd86a0a19e084cd","5fef55e628823a0076ec12ee","601f49bf4687cc497600f38f","Mozilla/5.0 (Windows NT 6.1; Win64; x64) AppleWebKit/537.36 (KHTML, like Gecko) Chrome/88.0.4324.104 Safari/537.36","v1","","","","","","","","-20,-10,0,10,20","media/audio/stims/spherical_300cm_s20_c20_cd-full_matched_a20.wav","spherical","20","20","full","matched","20","10","1792"
"echo-presentation","90","612037","0.0-90.0","5e28e8730fd86a0a19e084cd","5fef55e628823a0076ec12ee","601f49bf4687cc497600f38f","Mozilla/5.0 (Windows NT 6.1; Win64; x64) AppleWebKit/537.36 (KHTML, like Gecko) Chrome/88.0.4324.104 Safari/537.36","v1","","","","","","","","-20,-10,0,10,20","media/audio/stims/spherical_300cm_s20_c20_cd-full_matched_a10.wav","spherical","20","20","full","matched","10","0","2168"
"echo-presentation","91","616504","0.0-91.0","5e28e8730fd86a0a19e084cd","5fef55e628823a0076ec12ee","601f49bf4687cc497600f38f","Mozilla/5.0 (Windows NT 6.1; Win64; x64) AppleWebKit/537.36 (KHTML, like Gecko) Chrome/88.0.4324.104 Safari/537.36","v1","","","","","","","","-20,-10,0,10,20","media/audio/stims/spherical_300cm_s20_c20_cd-full_matched_a-10.wav","spherical","20","20","full","matched","-10","0","3491"
"echo-presentation","92","619221","0.0-92.0","5e28e8730fd86a0a19e084cd","5fef55e628823a0076ec12ee","601f49bf4687cc497600f38f","Mozilla/5.0 (Windows NT 6.1; Win64; x64) AppleWebKit/537.36 (KHTML, like Gecko) Chrome/88.0.4324.104 Safari/537.36","v1","","","","","","","","-20,-10,0,10,20","media/audio/stims/spherical_300cm_s20_c20_cd-full_matched_a10.wav","spherical","20","20","full","matched","10","0","1611"
"echo-presentation","93","622812","0.0-93.0","5e28e8730fd86a0a19e084cd","5fef55e628823a0076ec12ee","601f49bf4687cc497600f38f","Mozilla/5.0 (Windows NT 6.1; Win64; x64) AppleWebKit/537.36 (KHTML, like Gecko) Chrome/88.0.4324.104 Safari/537.36","v1","","","","","","","","-20,-10,0,10,20","media/audio/stims/spherical_300cm_s20_c20_cd-full_matched_a20.wav","spherical","20","20","full","matched","20","0","2226"
"block-bookend","94","626686","0.0-94.0","5e28e8730fd86a0a19e084cd","5fef55e628823a0076ec12ee","601f49bf4687cc497600f38f","Mozilla/5.0 (Windows NT 6.1; Win64; x64) AppleWebKit/537.36 (KHTML, like Gecko) Chrome/88.0.4324.104 Safari/537.36","v1","","","","","","","","","","","","","","","","",""
"block-bookend","95","635836","0.0-95.0","5e28e8730fd86a0a19e084cd","5fef55e628823a0076ec12ee","601f49bf4687cc497600f38f","Mozilla/5.0 (Windows NT 6.1; Win64; x64) AppleWebKit/537.36 (KHTML, like Gecko) Chrome/88.0.4324.104 Safari/537.36","v1","","","","","","","","","","","","","","","","",""
"echo-presentation","96","644419","0.0-96.0","5e28e8730fd86a0a19e084cd","5fef55e628823a0076ec12ee","601f49bf4687cc497600f38f","Mozilla/5.0 (Windows NT 6.1; Win64; x64) AppleWebKit/537.36 (KHTML, like Gecko) Chrome/88.0.4324.104 Safari/537.36","v1","","","","","","","","-80,-70,-60,-50,-40","media/audio/stims/spherical_300cm_s20_c20_cd-full_matched_a-50.wav","spherical","20","20","full","matched","-50","-50","6670"
"echo-presentation","97","650420","0.0-97.0","5e28e8730fd86a0a19e084cd","5fef55e628823a0076ec12ee","601f49bf4687cc497600f38f","Mozilla/5.0 (Windows NT 6.1; Win64; x64) AppleWebKit/537.36 (KHTML, like Gecko) Chrome/88.0.4324.104 Safari/537.36","v1","","","","","","","","-80,-70,-60,-50,-40","media/audio/stims/spherical_300cm_s20_c20_cd-full_matched_a-70.wav","spherical","20","20","full","matched","-70","-60","3513"
"echo-presentation","98","654187","0.0-98.0","5e28e8730fd86a0a19e084cd","5fef55e628823a0076ec12ee","601f49bf4687cc497600f38f","Mozilla/5.0 (Windows NT 6.1; Win64; x64) AppleWebKit/537.36 (KHTML, like Gecko) Chrome/88.0.4324.104 Safari/537.36","v1","","","","","","","","-80,-70,-60,-50,-40","media/audio/stims/spherical_300cm_s20_c20_cd-full_matched_a-70.wav","spherical","20","20","full","matched","-70","-70","1644"
"echo-presentation","99","656570","0.0-99.0","5e28e8730fd86a0a19e084cd","5fef55e628823a0076ec12ee","601f49bf4687cc497600f38f","Mozilla/5.0 (Windows NT 6.1; Win64; x64) AppleWebKit/537.36 (KHTML, like Gecko) Chrome/88.0.4324.104 Safari/537.36","v1","","","","","","","","-80,-70,-60,-50,-40","media/audio/stims/spherical_300cm_s20_c20_cd-full_matched_a-40.wav","spherical","20","20","full","matched","-40","-70","1320"
"echo-presentation","100","659339","0.0-100.0","5e28e8730fd86a0a19e084cd","5fef55e628823a0076ec12ee","601f49bf4687cc497600f38f","Mozilla/5.0 (Windows NT 6.1; Win64; x64) AppleWebKit/537.36 (KHTML, like Gecko) Chrome/88.0.4324.104 Safari/537.36","v1","","","","","","","","-80,-70,-60,-50,-40","media/audio/stims/spherical_300cm_s20_c20_cd-full_matched_a-60.wav","spherical","20","20","full","matched","-60","-70","1431"
"echo-presentation","101","661787","0.0-101.0","5e28e8730fd86a0a19e084cd","5fef55e628823a0076ec12ee","601f49bf4687cc497600f38f","Mozilla/5.0 (Windows NT 6.1; Win64; x64) AppleWebKit/537.36 (KHTML, like Gecko) Chrome/88.0.4324.104 Safari/537.36","v1","","","","","","","","-80,-70,-60,-50,-40","media/audio/stims/spherical_300cm_s20_c20_cd-full_matched_a-60.wav","spherical","20","20","full","matched","-60","-70","1246"
"echo-presentation","102","664762","0.0-102.0","5e28e8730fd86a0a19e084cd","5fef55e628823a0076ec12ee","601f49bf4687cc497600f38f","Mozilla/5.0 (Windows NT 6.1; Win64; x64) AppleWebKit/537.36 (KHTML, like Gecko) Chrome/88.0.4324.104 Safari/537.36","v1","","","","","","","","-80,-70,-60,-50,-40","media/audio/stims/spherical_300cm_s20_c20_cd-full_matched_a-40.wav","spherical","20","20","full","matched","-40","-80","1432"
"echo-presentation","103","667171","0.0-103.0","5e28e8730fd86a0a19e084cd","5fef55e628823a0076ec12ee","601f49bf4687cc497600f38f","Mozilla/5.0 (Windows NT 6.1; Win64; x64) AppleWebKit/537.36 (KHTML, like Gecko) Chrome/88.0.4324.104 Safari/537.36","v1","","","","","","","","-80,-70,-60,-50,-40","media/audio/stims/spherical_300cm_s20_c20_cd-full_matched_a-80.wav","spherical","20","20","full","matched","-80","-80","1320"
"echo-presentation","104","669626","0.0-104.0","5e28e8730fd86a0a19e084cd","5fef55e628823a0076ec12ee","601f49bf4687cc497600f38f","Mozilla/5.0 (Windows NT 6.1; Win64; x64) AppleWebKit/537.36 (KHTML, like Gecko) Chrome/88.0.4324.104 Safari/537.36","v1","","","","","","","","-80,-70,-60,-50,-40","media/audio/stims/spherical_300cm_s20_c20_cd-full_matched_a-70.wav","spherical","20","20","full","matched","-70","-80","1272"
"echo-presentation","105","672297","0.0-105.0","5e28e8730fd86a0a19e084cd","5fef55e628823a0076ec12ee","601f49bf4687cc497600f38f","Mozilla/5.0 (Windows NT 6.1; Win64; x64) AppleWebKit/537.36 (KHTML, like Gecko) Chrome/88.0.4324.104 Safari/537.36","v1","","","","","","","","-80,-70,-60,-50,-40","media/audio/stims/spherical_300cm_s20_c20_cd-full_matched_a-80.wav","spherical","20","20","full","matched","-80","-80","1542"
"echo-presentation","106","674537","0.0-106.0","5e28e8730fd86a0a19e084cd","5fef55e628823a0076ec12ee","601f49bf4687cc497600f38f","Mozilla/5.0 (Windows NT 6.1; Win64; x64) AppleWebKit/537.36 (KHTML, like Gecko) Chrome/88.0.4324.104 Safari/537.36","v1","","","","","","","","-80,-70,-60,-50,-40","media/audio/stims/spherical_300cm_s20_c20_cd-full_matched_a-50.wav","spherical","20","20","full","matched","-50","-70","1127"
"echo-presentation","107","677617","0.0-107.0","5e28e8730fd86a0a19e084cd","5fef55e628823a0076ec12ee","601f49bf4687cc497600f38f","Mozilla/5.0 (Windows NT 6.1; Win64; x64) AppleWebKit/537.36 (KHTML, like Gecko) Chrome/88.0.4324.104 Safari/537.36","v1","","","","","","","","-80,-70,-60,-50,-40","media/audio/stims/spherical_300cm_s20_c20_cd-full_matched_a-70.wav","spherical","20","20","full","matched","-70","-60","2020"
"echo-presentation","108","679985","0.0-108.0","5e28e8730fd86a0a19e084cd","5fef55e628823a0076ec12ee","601f49bf4687cc497600f38f","Mozilla/5.0 (Windows NT 6.1; Win64; x64) AppleWebKit/537.36 (KHTML, like Gecko) Chrome/88.0.4324.104 Safari/537.36","v1","","","","","","","","-80,-70,-60,-50,-40","media/audio/stims/spherical_300cm_s20_c20_cd-full_matched_a-80.wav","spherical","20","20","full","matched","-80","-70","1375"
"echo-presentation","109","682177","0.0-109.0","5e28e8730fd86a0a19e084cd","5fef55e628823a0076ec12ee","601f49bf4687cc497600f38f","Mozilla/5.0 (Windows NT 6.1; Win64; x64) AppleWebKit/537.36 (KHTML, like Gecko) Chrome/88.0.4324.104 Safari/537.36","v1","","","","","","","","-80,-70,-60,-50,-40","media/audio/stims/spherical_300cm_s20_c20_cd-full_matched_a-40.wav","spherical","20","20","full","matched","-40","-80","1215"
"echo-presentation","110","684297","0.0-110.0","5e28e8730fd86a0a19e084cd","5fef55e628823a0076ec12ee","601f49bf4687cc497600f38f","Mozilla/5.0 (Windows NT 6.1; Win64; x64) AppleWebKit/537.36 (KHTML, like Gecko) Chrome/88.0.4324.104 Safari/537.36","v1","","","","","","","","-80,-70,-60,-50,-40","media/audio/stims/spherical_300cm_s20_c20_cd-full_matched_a-60.wav","spherical","20","20","full","matched","-60","-80","1145"
"echo-presentation","111","686945","0.0-111.0","5e28e8730fd86a0a19e084cd","5fef55e628823a0076ec12ee","601f49bf4687cc497600f38f","Mozilla/5.0 (Windows NT 6.1; Win64; x64) AppleWebKit/537.36 (KHTML, like Gecko) Chrome/88.0.4324.104 Safari/537.36","v1","","","","","","","","-80,-70,-60,-50,-40","media/audio/stims/spherical_300cm_s20_c20_cd-full_matched_a-50.wav","spherical","20","20","full","matched","-50","-80","1535"
"echo-presentation","112","689336","0.0-112.0","5e28e8730fd86a0a19e084cd","5fef55e628823a0076ec12ee","601f49bf4687cc497600f38f","Mozilla/5.0 (Windows NT 6.1; Win64; x64) AppleWebKit/537.36 (KHTML, like Gecko) Chrome/88.0.4324.104 Safari/537.36","v1","","","","","","","","-80,-70,-60,-50,-40","media/audio/stims/spherical_300cm_s20_c20_cd-full_matched_a-80.wav","spherical","20","20","full","matched","-80","-80","1488"
"echo-presentation","113","691648","0.0-113.0","5e28e8730fd86a0a19e084cd","5fef55e628823a0076ec12ee","601f49bf4687cc497600f38f","Mozilla/5.0 (Windows NT 6.1; Win64; x64) AppleWebKit/537.36 (KHTML, like Gecko) Chrome/88.0.4324.104 Safari/537.36","v1","","","","","","","","-80,-70,-60,-50,-40","media/audio/stims/spherical_300cm_s20_c20_cd-full_matched_a-40.wav","spherical","20","20","full","matched","-40","-80","1369"
"echo-presentation","114","695710","0.0-114.0","5e28e8730fd86a0a19e084cd","5fef55e628823a0076ec12ee","601f49bf4687cc497600f38f","Mozilla/5.0 (Windows NT 6.1; Win64; x64) AppleWebKit/537.36 (KHTML, like Gecko) Chrome/88.0.4324.104 Safari/537.36","v1","","","","","","","","-80,-70,-60,-50,-40","media/audio/stims/spherical_300cm_s20_c20_cd-full_matched_a-60.wav","spherical","20","20","full","matched","-60","-70","2318"
"echo-presentation","115","698414","0.0-115.0","5e28e8730fd86a0a19e084cd","5fef55e628823a0076ec12ee","601f49bf4687cc497600f38f","Mozilla/5.0 (Windows NT 6.1; Win64; x64) AppleWebKit/537.36 (KHTML, like Gecko) Chrome/88.0.4324.104 Safari/537.36","v1","","","","","","","","-80,-70,-60,-50,-40","media/audio/stims/spherical_300cm_s20_c20_cd-full_matched_a-50.wav","spherical","20","20","full","matched","-50","-70","1608"
"block-bookend","116","701945","0.0-116.0","5e28e8730fd86a0a19e084cd","5fef55e628823a0076ec12ee","601f49bf4687cc497600f38f","Mozilla/5.0 (Windows NT 6.1; Win64; x64) AppleWebKit/537.36 (KHTML, like Gecko) Chrome/88.0.4324.104 Safari/537.36","v1","","","","","","","","","","","","","","","","",""
"block-bookend","117","708377","0.0-117.0","5e28e8730fd86a0a19e084cd","5fef55e628823a0076ec12ee","601f49bf4687cc497600f38f","Mozilla/5.0 (Windows NT 6.1; Win64; x64) AppleWebKit/537.36 (KHTML, like Gecko) Chrome/88.0.4324.104 Safari/537.36","v1","","","","","","","","","","","","","","","","",""
"echo-presentation","118","713009","0.0-118.0","5e28e8730fd86a0a19e084cd","5fef55e628823a0076ec12ee","601f49bf4687cc497600f38f","Mozilla/5.0 (Windows NT 6.1; Win64; x64) AppleWebKit/537.36 (KHTML, like Gecko) Chrome/88.0.4324.104 Safari/537.36","v1","","","","","","","","-80,-70,-60,-50,-40","media/audio/stims/spherical_300cm_s20_c20_cd-full_matched_a-50.wav","spherical","20","20","full","matched","-50","-50","3317"
"echo-presentation","119","716000","0.0-119.0","5e28e8730fd86a0a19e084cd","5fef55e628823a0076ec12ee","601f49bf4687cc497600f38f","Mozilla/5.0 (Windows NT 6.1; Win64; x64) AppleWebKit/537.36 (KHTML, like Gecko) Chrome/88.0.4324.104 Safari/537.36","v1","","","","","","","","-80,-70,-60,-50,-40","media/audio/stims/spherical_300cm_s20_c20_cd-full_matched_a-70.wav","spherical","20","20","full","matched","-70","-40","1880"
"echo-presentation","120","718687","0.0-120.0","5e28e8730fd86a0a19e084cd","5fef55e628823a0076ec12ee","601f49bf4687cc497600f38f","Mozilla/5.0 (Windows NT 6.1; Win64; x64) AppleWebKit/537.36 (KHTML, like Gecko) Chrome/88.0.4324.104 Safari/537.36","v1","","","","","","","","-80,-70,-60,-50,-40","media/audio/stims/spherical_300cm_s20_c20_cd-full_matched_a-60.wav","spherical","20","20","full","matched","-60","-70","1431"
"echo-presentation","121","720910","0.0-121.0","5e28e8730fd86a0a19e084cd","5fef55e628823a0076ec12ee","601f49bf4687cc497600f38f","Mozilla/5.0 (Windows NT 6.1; Win64; x64) AppleWebKit/537.36 (KHTML, like Gecko) Chrome/88.0.4324.104 Safari/537.36","v1","","","","","","","","-80,-70,-60,-50,-40","media/audio/stims/spherical_300cm_s20_c20_cd-full_matched_a-40.wav","spherical","20","20","full","matched","-40","-80","1156"
"echo-presentation","122","723496","0.0-122.0","5e28e8730fd86a0a19e084cd","5fef55e628823a0076ec12ee","601f49bf4687cc497600f38f","Mozilla/5.0 (Windows NT 6.1; Win64; x64) AppleWebKit/537.36 (KHTML, like Gecko) Chrome/88.0.4324.104 Safari/537.36","v1","","","","","","","","-80,-70,-60,-50,-40","media/audio/stims/spherical_300cm_s20_c20_cd-full_matched_a-60.wav","spherical","20","20","full","matched","-60","-70","1577"
"echo-presentation","123","725662","0.0-123.0","5e28e8730fd86a0a19e084cd","5fef55e628823a0076ec12ee","601f49bf4687cc497600f38f","Mozilla/5.0 (Windows NT 6.1; Win64; x64) AppleWebKit/537.36 (KHTML, like Gecko) Chrome/88.0.4324.104 Safari/537.36","v1","","","","","","","","-80,-70,-60,-50,-40","media/audio/stims/spherical_300cm_s20_c20_cd-full_matched_a-80.wav","spherical","20","20","full","matched","-80","-80","1235"
"echo-presentation","124","728854","0.0-124.0","5e28e8730fd86a0a19e084cd","5fef55e628823a0076ec12ee","601f49bf4687cc497600f38f","Mozilla/5.0 (Windows NT 6.1; Win64; x64) AppleWebKit/537.36 (KHTML, like Gecko) Chrome/88.0.4324.104 Safari/537.36","v1","","","","","","","","-80,-70,-60,-50,-40","media/audio/stims/spherical_300cm_s20_c20_cd-full_matched_a-40.wav","spherical","20","20","full","matched","-40","-80","1991"
"echo-presentation","125","731796","0.0-125.0","5e28e8730fd86a0a19e084cd","5fef55e628823a0076ec12ee","601f49bf4687cc497600f38f","Mozilla/5.0 (Windows NT 6.1; Win64; x64) AppleWebKit/537.36 (KHTML, like Gecko) Chrome/88.0.4324.104 Safari/537.36","v1","","","","","","","","-80,-70,-60,-50,-40","media/audio/stims/spherical_300cm_s20_c20_cd-full_matched_a-40.wav","spherical","20","20","full","matched","-40","-70","1623"
"echo-presentation","126","735824","0.0-126.0","5e28e8730fd86a0a19e084cd","5fef55e628823a0076ec12ee","601f49bf4687cc497600f38f","Mozilla/5.0 (Windows NT 6.1; Win64; x64) AppleWebKit/537.36 (KHTML, like Gecko) Chrome/88.0.4324.104 Safari/537.36","v1","","","","","","","","-80,-70,-60,-50,-40","media/audio/stims/spherical_300cm_s20_c20_cd-full_matched_a-60.wav","spherical","20","20","full","matched","-60","-50","2994"
"echo-presentation","127","738862","0.0-127.0","5e28e8730fd86a0a19e084cd","5fef55e628823a0076ec12ee","601f49bf4687cc497600f38f","Mozilla/5.0 (Windows NT 6.1; Win64; x64) AppleWebKit/537.36 (KHTML, like Gecko) Chrome/88.0.4324.104 Safari/537.36","v1","","","","","","","","-80,-70,-60,-50,-40","media/audio/stims/spherical_300cm_s20_c20_cd-full_matched_a-50.wav","spherical","20","20","full","matched","-50","-60","1760"
"echo-presentation","128","742094","0.0-128.0","5e28e8730fd86a0a19e084cd","5fef55e628823a0076ec12ee","601f49bf4687cc497600f38f","Mozilla/5.0 (Windows NT 6.1; Win64; x64) AppleWebKit/537.36 (KHTML, like Gecko) Chrome/88.0.4324.104 Safari/537.36","v1","","","","","","","","-80,-70,-60,-50,-40","media/audio/stims/spherical_300cm_s20_c20_cd-full_matched_a-50.wav","spherical","20","20","full","matched","-50","-70","1680"
"echo-presentation","129","744645","0.0-129.0","5e28e8730fd86a0a19e084cd","5fef55e628823a0076ec12ee","601f49bf4687cc497600f38f","Mozilla/5.0 (Windows NT 6.1; Win64; x64) AppleWebKit/537.36 (KHTML, like Gecko) Chrome/88.0.4324.104 Safari/537.36","v1","","","","","","","","-80,-70,-60,-50,-40","media/audio/stims/spherical_300cm_s20_c20_cd-full_matched_a-70.wav","spherical","20","20","full","matched","-70","-60","1584"
"echo-presentation","130","747944","0.0-130.0","5e28e8730fd86a0a19e084cd","5fef55e628823a0076ec12ee","601f49bf4687cc497600f38f","Mozilla/5.0 (Windows NT 6.1; Win64; x64) AppleWebKit/537.36 (KHTML, like Gecko) Chrome/88.0.4324.104 Safari/537.36","v1","","","","","","","","-80,-70,-60,-50,-40","media/audio/stims/spherical_300cm_s20_c20_cd-full_matched_a-70.wav","spherical","20","20","full","matched","-70","-60","2022"
"echo-presentation","131","752021","0.0-131.0","5e28e8730fd86a0a19e084cd","5fef55e628823a0076ec12ee","601f49bf4687cc497600f38f","Mozilla/5.0 (Windows NT 6.1; Win64; x64) AppleWebKit/537.36 (KHTML, like Gecko) Chrome/88.0.4324.104 Safari/537.36","v1","","","","","","","","-80,-70,-60,-50,-40","media/audio/stims/spherical_300cm_s20_c20_cd-full_matched_a-40.wav","spherical","20","20","full","matched","-40","-70","1312"
"echo-presentation","132","754725","0.0-132.0","5e28e8730fd86a0a19e084cd","5fef55e628823a0076ec12ee","601f49bf4687cc497600f38f","Mozilla/5.0 (Windows NT 6.1; Win64; x64) AppleWebKit/537.36 (KHTML, like Gecko) Chrome/88.0.4324.104 Safari/537.36","v1","","","","","","","","-80,-70,-60,-50,-40","media/audio/stims/spherical_300cm_s20_c20_cd-full_matched_a-80.wav","spherical","20","20","full","matched","-80","-70","1704"
"echo-presentation","133","757567","0.0-133.0","5e28e8730fd86a0a19e084cd","5fef55e628823a0076ec12ee","601f49bf4687cc497600f38f","Mozilla/5.0 (Windows NT 6.1; Win64; x64) AppleWebKit/537.36 (KHTML, like Gecko) Chrome/88.0.4324.104 Safari/537.36","v1","","","","","","","","-80,-70,-60,-50,-40","media/audio/stims/spherical_300cm_s20_c20_cd-full_matched_a-60.wav","spherical","20","20","full","matched","-60","-70","1729"
"echo-presentation","134","760036","0.0-134.0","5e28e8730fd86a0a19e084cd","5fef55e628823a0076ec12ee","601f49bf4687cc497600f38f","Mozilla/5.0 (Windows NT 6.1; Win64; x64) AppleWebKit/537.36 (KHTML, like Gecko) Chrome/88.0.4324.104 Safari/537.36","v1","","","","","","","","-80,-70,-60,-50,-40","media/audio/stims/spherical_300cm_s20_c20_cd-full_matched_a-70.wav","spherical","20","20","full","matched","-70","-80","1266"
"echo-presentation","135","762652","0.0-135.0","5e28e8730fd86a0a19e084cd","5fef55e628823a0076ec12ee","601f49bf4687cc497600f38f","Mozilla/5.0 (Windows NT 6.1; Win64; x64) AppleWebKit/537.36 (KHTML, like Gecko) Chrome/88.0.4324.104 Safari/537.36","v1","","","","","","","","-80,-70,-60,-50,-40","media/audio/stims/spherical_300cm_s20_c20_cd-full_matched_a-80.wav","spherical","20","20","full","matched","-80","-80","1288"
"echo-presentation","136","765772","0.0-136.0","5e28e8730fd86a0a19e084cd","5fef55e628823a0076ec12ee","601f49bf4687cc497600f38f","Mozilla/5.0 (Windows NT 6.1; Win64; x64) AppleWebKit/537.36 (KHTML, like Gecko) Chrome/88.0.4324.104 Safari/537.36","v1","","","","","","","","-80,-70,-60,-50,-40","media/audio/stims/spherical_300cm_s20_c20_cd-full_matched_a-50.wav","spherical","20","20","full","matched","-50","-70","1864"
"echo-presentation","137","768430","0.0-137.0","5e28e8730fd86a0a19e084cd","5fef55e628823a0076ec12ee","601f49bf4687cc497600f38f","Mozilla/5.0 (Windows NT 6.1; Win64; x64) AppleWebKit/537.36 (KHTML, like Gecko) Chrome/88.0.4324.104 Safari/537.36","v1","","","","","","","","-80,-70,-60,-50,-40","media/audio/stims/spherical_300cm_s20_c20_cd-full_matched_a-80.wav","spherical","20","20","full","matched","-80","-60","1563"
"block-bookend","138","769574","0.0-138.0","5e28e8730fd86a0a19e084cd","5fef55e628823a0076ec12ee","601f49bf4687cc497600f38f","Mozilla/5.0 (Windows NT 6.1; Win64; x64) AppleWebKit/537.36 (KHTML, like Gecko) Chrome/88.0.4324.104 Safari/537.36","v1","","","","","","","","","","","","","","","","",""
