"trial_type","trial_index","time_elapsed","internal_node_id","prolificPid","studyId","sessionId","userAgent","version","rt","stimulus","key_press","chosenKeyset","failureCount","testIndex","globalVolume","choices","filename","modelName","slowdown","compensation","compensationDescriptor","receiverOrientationType","azimuth","responseAzimuth","responseDelay"
"pavlovia","0","7","0.0-0.0","5fd4c0631786c12622a436b0","60242478c74f84097a222710","602425fba4f7f30974b590bb","Mozilla/5.0 (Windows NT 10.0; Win64; x64) AppleWebKit/537.36 (KHTML, like Gecko) Chrome/88.0.4324.152 Safari/537.36","v1-up-stims","","","","","","","","","","","","","","","","",""
"html-keyboard-response","1","3692","0.0-1.0","5fd4c0631786c12622a436b0","60242478c74f84097a222710","602425fba4f7f30974b590bb","Mozilla/5.0 (Windows NT 10.0; Win64; x64) AppleWebKit/537.36 (KHTML, like Gecko) Chrome/88.0.4324.152 Safari/537.36","v1-up-stims","3683.294999995269","<div><h1>Welcome!</h1><p>Press any key to continue.</p></div>","70","","","","","","","","","","","","","",""
"consent-form","2","14253","0.0-2.0","5fd4c0631786c12622a436b0","60242478c74f84097a222710","602425fba4f7f30974b590bb","Mozilla/5.0 (Windows NT 10.0; Win64; x64) AppleWebKit/537.36 (KHTML, like Gecko) Chrome/88.0.4324.152 Safari/537.36","v1-up-stims","","","","","","","","","","","","","","","","",""
"keyset-select","3","57602","0.0-3.0","5fd4c0631786c12622a436b0","60242478c74f84097a222710","602425fba4f7f30974b590bb","Mozilla/5.0 (Windows NT 10.0; Win64; x64) AppleWebKit/537.36 (KHTML, like Gecko) Chrome/88.0.4324.152 Safari/537.36","v1-up-stims","","","","left-hand","","","","","","","","","","","","",""
"headphone-check","4","109196","0.0-4.0","5fd4c0631786c12622a436b0","60242478c74f84097a222710","602425fba4f7f30974b590bb","Mozilla/5.0 (Windows NT 10.0; Win64; x64) AppleWebKit/537.36 (KHTML, like Gecko) Chrome/88.0.4324.152 Safari/537.36","v1-up-stims","","","","","0","6","0.3","","","","","","","","","",""
"headphone-backwards-check","5","115562","0.0-5.0","5fd4c0631786c12622a436b0","60242478c74f84097a222710","602425fba4f7f30974b590bb","Mozilla/5.0 (Windows NT 10.0; Win64; x64) AppleWebKit/537.36 (KHTML, like Gecko) Chrome/88.0.4324.152 Safari/537.36","v1-up-stims","","","","","0","","","","","","","","","","","",""
"training","6","182882","0.0-6.0","5fd4c0631786c12622a436b0","60242478c74f84097a222710","602425fba4f7f30974b590bb","Mozilla/5.0 (Windows NT 10.0; Win64; x64) AppleWebKit/537.36 (KHTML, like Gecko) Chrome/88.0.4324.152 Safari/537.36","v1-up-stims","","","","","","","","","","","","","","","","",""
"block-bookend","7","194482","0.0-7.0","5fd4c0631786c12622a436b0","60242478c74f84097a222710","602425fba4f7f30974b590bb","Mozilla/5.0 (Windows NT 10.0; Win64; x64) AppleWebKit/537.36 (KHTML, like Gecko) Chrome/88.0.4324.152 Safari/537.36","v1-up-stims","","","","","","","","","","","","","","","","",""
"echo-presentation","8","201154","0.0-8.0","5fd4c0631786c12622a436b0","60242478c74f84097a222710","602425fba4f7f30974b590bb","Mozilla/5.0 (Windows NT 10.0; Win64; x64) AppleWebKit/537.36 (KHTML, like Gecko) Chrome/88.0.4324.152 Safari/537.36","v1-up-stims","","","","","","","","40,50,60,70,80","media/audio/stims/spherical_300cm_s20_c10_cd-half_matched_a50.wav","spherical","20","10","half","matched","50","80","4212"
"echo-presentation","9","204464","0.0-9.0","5fd4c0631786c12622a436b0","60242478c74f84097a222710","602425fba4f7f30974b590bb","Mozilla/5.0 (Windows NT 10.0; Win64; x64) AppleWebKit/537.36 (KHTML, like Gecko) Chrome/88.0.4324.152 Safari/537.36","v1-up-stims","","","","","","","","40,50,60,70,80","media/audio/stims/spherical_300cm_s20_c10_cd-half_matched_a40.wav","spherical","20","10","half","matched","40","80","1499"
"echo-presentation","10","208402","0.0-10.0","5fd4c0631786c12622a436b0","60242478c74f84097a222710","602425fba4f7f30974b590bb","Mozilla/5.0 (Windows NT 10.0; Win64; x64) AppleWebKit/537.36 (KHTML, like Gecko) Chrome/88.0.4324.152 Safari/537.36","v1-up-stims","","","","","","","","40,50,60,70,80","media/audio/stims/spherical_300cm_s20_c10_cd-half_matched_a40.wav","spherical","20","10","half","matched","40","80","2799"
"echo-presentation","11","210785","0.0-11.0","5fd4c0631786c12622a436b0","60242478c74f84097a222710","602425fba4f7f30974b590bb","Mozilla/5.0 (Windows NT 10.0; Win64; x64) AppleWebKit/537.36 (KHTML, like Gecko) Chrome/88.0.4324.152 Safari/537.36","v1-up-stims","","","","","","","","40,50,60,70,80","media/audio/stims/spherical_300cm_s20_c10_cd-half_matched_a40.wav","spherical","20","10","half","matched","40","80","1307"
"echo-presentation","12","214594","0.0-12.0","5fd4c0631786c12622a436b0","60242478c74f84097a222710","602425fba4f7f30974b590bb","Mozilla/5.0 (Windows NT 10.0; Win64; x64) AppleWebKit/537.36 (KHTML, like Gecko) Chrome/88.0.4324.152 Safari/537.36","v1-up-stims","","","","","","","","40,50,60,70,80","media/audio/stims/spherical_300cm_s20_c10_cd-half_matched_a50.wav","spherical","20","10","half","matched","50","70","2724"
"echo-presentation","13","220565","0.0-13.0","5fd4c0631786c12622a436b0","60242478c74f84097a222710","602425fba4f7f30974b590bb","Mozilla/5.0 (Windows NT 10.0; Win64; x64) AppleWebKit/537.36 (KHTML, like Gecko) Chrome/88.0.4324.152 Safari/537.36","v1-up-stims","","","","","","","","40,50,60,70,80","media/audio/stims/spherical_300cm_s20_c10_cd-half_matched_a80.wav","spherical","20","10","half","matched","80","80","4443"
"echo-presentation","14","223572","0.0-14.0","5fd4c0631786c12622a436b0","60242478c74f84097a222710","602425fba4f7f30974b590bb","Mozilla/5.0 (Windows NT 10.0; Win64; x64) AppleWebKit/537.36 (KHTML, like Gecko) Chrome/88.0.4324.152 Safari/537.36","v1-up-stims","","","","","","","","40,50,60,70,80","media/audio/stims/spherical_300cm_s20_c10_cd-half_matched_a60.wav","spherical","20","10","half","matched","60","70","1860"
"echo-presentation","15","225866","0.0-15.0","5fd4c0631786c12622a436b0","60242478c74f84097a222710","602425fba4f7f30974b590bb","Mozilla/5.0 (Windows NT 10.0; Win64; x64) AppleWebKit/537.36 (KHTML, like Gecko) Chrome/88.0.4324.152 Safari/537.36","v1-up-stims","","","","","","","","40,50,60,70,80","media/audio/stims/spherical_300cm_s20_c10_cd-half_matched_a80.wav","spherical","20","10","half","matched","80","70","1266"
"echo-presentation","16","228406","0.0-16.0","5fd4c0631786c12622a436b0","60242478c74f84097a222710","602425fba4f7f30974b590bb","Mozilla/5.0 (Windows NT 10.0; Win64; x64) AppleWebKit/537.36 (KHTML, like Gecko) Chrome/88.0.4324.152 Safari/537.36","v1-up-stims","","","","","","","","40,50,60,70,80","media/audio/stims/spherical_300cm_s20_c10_cd-half_matched_a50.wav","spherical","20","10","half","matched","50","80","1617"
"echo-presentation","17","231097","0.0-17.0","5fd4c0631786c12622a436b0","60242478c74f84097a222710","602425fba4f7f30974b590bb","Mozilla/5.0 (Windows NT 10.0; Win64; x64) AppleWebKit/537.36 (KHTML, like Gecko) Chrome/88.0.4324.152 Safari/537.36","v1-up-stims","","","","","","","","40,50,60,70,80","media/audio/stims/spherical_300cm_s20_c10_cd-half_matched_a70.wav","spherical","20","10","half","matched","70","70","1796"
"echo-presentation","18","233583","0.0-18.0","5fd4c0631786c12622a436b0","60242478c74f84097a222710","602425fba4f7f30974b590bb","Mozilla/5.0 (Windows NT 10.0; Win64; x64) AppleWebKit/537.36 (KHTML, like Gecko) Chrome/88.0.4324.152 Safari/537.36","v1-up-stims","","","","","","","","40,50,60,70,80","media/audio/stims/spherical_300cm_s20_c10_cd-half_matched_a60.wav","spherical","20","10","half","matched","60","70","1268"
"echo-presentation","19","237025","0.0-19.0","5fd4c0631786c12622a436b0","60242478c74f84097a222710","602425fba4f7f30974b590bb","Mozilla/5.0 (Windows NT 10.0; Win64; x64) AppleWebKit/537.36 (KHTML, like Gecko) Chrome/88.0.4324.152 Safari/537.36","v1-up-stims","","","","","","","","40,50,60,70,80","media/audio/stims/spherical_300cm_s20_c10_cd-half_matched_a50.wav","spherical","20","10","half","matched","50","70","2575"
"echo-presentation","20","239025","0.0-20.0","5fd4c0631786c12622a436b0","60242478c74f84097a222710","602425fba4f7f30974b590bb","Mozilla/5.0 (Windows NT 10.0; Win64; x64) AppleWebKit/537.36 (KHTML, like Gecko) Chrome/88.0.4324.152 Safari/537.36","v1-up-stims","","","","","","","","40,50,60,70,80","media/audio/stims/spherical_300cm_s20_c10_cd-half_matched_a60.wav","spherical","20","10","half","matched","60","70","883"
"echo-presentation","21","241483","0.0-21.0","5fd4c0631786c12622a436b0","60242478c74f84097a222710","602425fba4f7f30974b590bb","Mozilla/5.0 (Windows NT 10.0; Win64; x64) AppleWebKit/537.36 (KHTML, like Gecko) Chrome/88.0.4324.152 Safari/537.36","v1-up-stims","","","","","","","","40,50,60,70,80","media/audio/stims/spherical_300cm_s20_c10_cd-half_matched_a70.wav","spherical","20","10","half","matched","70","80","1637"
"echo-presentation","22","244288","0.0-22.0","5fd4c0631786c12622a436b0","60242478c74f84097a222710","602425fba4f7f30974b590bb","Mozilla/5.0 (Windows NT 10.0; Win64; x64) AppleWebKit/537.36 (KHTML, like Gecko) Chrome/88.0.4324.152 Safari/537.36","v1-up-stims","","","","","","","","40,50,60,70,80","media/audio/stims/spherical_300cm_s20_c10_cd-half_matched_a70.wav","spherical","20","10","half","matched","70","70","1978"
"echo-presentation","23","246456","0.0-23.0","5fd4c0631786c12622a436b0","60242478c74f84097a222710","602425fba4f7f30974b590bb","Mozilla/5.0 (Windows NT 10.0; Win64; x64) AppleWebKit/537.36 (KHTML, like Gecko) Chrome/88.0.4324.152 Safari/537.36","v1-up-stims","","","","","","","","40,50,60,70,80","media/audio/stims/spherical_300cm_s20_c10_cd-half_matched_a70.wav","spherical","20","10","half","matched","70","70","1186"
"echo-presentation","24","248952","0.0-24.0","5fd4c0631786c12622a436b0","60242478c74f84097a222710","602425fba4f7f30974b590bb","Mozilla/5.0 (Windows NT 10.0; Win64; x64) AppleWebKit/537.36 (KHTML, like Gecko) Chrome/88.0.4324.152 Safari/537.36","v1-up-stims","","","","","","","","40,50,60,70,80","media/audio/stims/spherical_300cm_s20_c10_cd-half_matched_a40.wav","spherical","20","10","half","matched","40","70","1459"
"echo-presentation","25","251121","0.0-25.0","5fd4c0631786c12622a436b0","60242478c74f84097a222710","602425fba4f7f30974b590bb","Mozilla/5.0 (Windows NT 10.0; Win64; x64) AppleWebKit/537.36 (KHTML, like Gecko) Chrome/88.0.4324.152 Safari/537.36","v1-up-stims","","","","","","","","40,50,60,70,80","media/audio/stims/spherical_300cm_s20_c10_cd-half_matched_a60.wav","spherical","20","10","half","matched","60","70","1141"
"echo-presentation","26","253118","0.0-26.0","5fd4c0631786c12622a436b0","60242478c74f84097a222710","602425fba4f7f30974b590bb","Mozilla/5.0 (Windows NT 10.0; Win64; x64) AppleWebKit/537.36 (KHTML, like Gecko) Chrome/88.0.4324.152 Safari/537.36","v1-up-stims","","","","","","","","40,50,60,70,80","media/audio/stims/spherical_300cm_s20_c10_cd-half_matched_a80.wav","spherical","20","10","half","matched","80","80","1126"
"echo-presentation","27","255578","0.0-27.0","5fd4c0631786c12622a436b0","60242478c74f84097a222710","602425fba4f7f30974b590bb","Mozilla/5.0 (Windows NT 10.0; Win64; x64) AppleWebKit/537.36 (KHTML, like Gecko) Chrome/88.0.4324.152 Safari/537.36","v1-up-stims","","","","","","","","40,50,60,70,80","media/audio/stims/spherical_300cm_s20_c10_cd-half_matched_a80.wav","spherical","20","10","half","matched","80","80","1193"
"block-bookend","28","258730","0.0-28.0","5fd4c0631786c12622a436b0","60242478c74f84097a222710","602425fba4f7f30974b590bb","Mozilla/5.0 (Windows NT 10.0; Win64; x64) AppleWebKit/537.36 (KHTML, like Gecko) Chrome/88.0.4324.152 Safari/537.36","v1-up-stims","","","","","","","","","","","","","","","","",""
"block-bookend","29","273842","0.0-29.0","5fd4c0631786c12622a436b0","60242478c74f84097a222710","602425fba4f7f30974b590bb","Mozilla/5.0 (Windows NT 10.0; Win64; x64) AppleWebKit/537.36 (KHTML, like Gecko) Chrome/88.0.4324.152 Safari/537.36","v1-up-stims","","","","","","","","","","","","","","","","",""
"echo-presentation","30","278922","0.0-30.0","5fd4c0631786c12622a436b0","60242478c74f84097a222710","602425fba4f7f30974b590bb","Mozilla/5.0 (Windows NT 10.0; Win64; x64) AppleWebKit/537.36 (KHTML, like Gecko) Chrome/88.0.4324.152 Safari/537.36","v1-up-stims","","","","","","","","40,50,60,70,80","media/audio/stims/spherical_300cm_s20_c10_cd-half_matched_a80.wav","spherical","20","10","half","matched","80","70","3269"
"echo-presentation","31","282864","0.0-31.0","5fd4c0631786c12622a436b0","60242478c74f84097a222710","602425fba4f7f30974b590bb","Mozilla/5.0 (Windows NT 10.0; Win64; x64) AppleWebKit/537.36 (KHTML, like Gecko) Chrome/88.0.4324.152 Safari/537.36","v1-up-stims","","","","","","","","40,50,60,70,80","media/audio/stims/spherical_300cm_s20_c10_cd-half_matched_a60.wav","spherical","20","10","half","matched","60","70","1467"
"echo-presentation","32","284450","0.0-32.0","5fd4c0631786c12622a436b0","60242478c74f84097a222710","602425fba4f7f30974b590bb","Mozilla/5.0 (Windows NT 10.0; Win64; x64) AppleWebKit/537.36 (KHTML, like Gecko) Chrome/88.0.4324.152 Safari/537.36","v1-up-stims","","","","","","","","40,50,60,70,80","media/audio/stims/spherical_300cm_s20_c10_cd-half_matched_a50.wav","spherical","20","10","half","matched","50","70","932"
"echo-presentation","33","286217","0.0-33.0","5fd4c0631786c12622a436b0","60242478c74f84097a222710","602425fba4f7f30974b590bb","Mozilla/5.0 (Windows NT 10.0; Win64; x64) AppleWebKit/537.36 (KHTML, like Gecko) Chrome/88.0.4324.152 Safari/537.36","v1-up-stims","","","","","","","","40,50,60,70,80","media/audio/stims/spherical_300cm_s20_c10_cd-half_matched_a60.wav","spherical","20","10","half","matched","60","70","965"
"echo-presentation","34","288166","0.0-34.0","5fd4c0631786c12622a436b0","60242478c74f84097a222710","602425fba4f7f30974b590bb","Mozilla/5.0 (Windows NT 10.0; Win64; x64) AppleWebKit/537.36 (KHTML, like Gecko) Chrome/88.0.4324.152 Safari/537.36","v1-up-stims","","","","","","","","40,50,60,70,80","media/audio/stims/spherical_300cm_s20_c10_cd-half_matched_a40.wav","spherical","20","10","half","matched","40","70","1015"
"echo-presentation","35","290726","0.0-35.0","5fd4c0631786c12622a436b0","60242478c74f84097a222710","602425fba4f7f30974b590bb","Mozilla/5.0 (Windows NT 10.0; Win64; x64) AppleWebKit/537.36 (KHTML, like Gecko) Chrome/88.0.4324.152 Safari/537.36","v1-up-stims","","","","","","","","40,50,60,70,80","media/audio/stims/spherical_300cm_s20_c10_cd-half_matched_a80.wav","spherical","20","10","half","matched","80","60","1899"
"echo-presentation","36","292523","0.0-36.0","5fd4c0631786c12622a436b0","60242478c74f84097a222710","602425fba4f7f30974b590bb","Mozilla/5.0 (Windows NT 10.0; Win64; x64) AppleWebKit/537.36 (KHTML, like Gecko) Chrome/88.0.4324.152 Safari/537.36","v1-up-stims","","","","","","","","40,50,60,70,80","media/audio/stims/spherical_300cm_s20_c10_cd-half_matched_a40.wav","spherical","20","10","half","matched","40","70","836"
"echo-presentation","37","294182","0.0-37.0","5fd4c0631786c12622a436b0","60242478c74f84097a222710","602425fba4f7f30974b590bb","Mozilla/5.0 (Windows NT 10.0; Win64; x64) AppleWebKit/537.36 (KHTML, like Gecko) Chrome/88.0.4324.152 Safari/537.36","v1-up-stims","","","","","","","","40,50,60,70,80","media/audio/stims/spherical_300cm_s20_c10_cd-half_matched_a70.wav","spherical","20","10","half","matched","70","70","786"
"echo-presentation","38","295792","0.0-38.0","5fd4c0631786c12622a436b0","60242478c74f84097a222710","602425fba4f7f30974b590bb","Mozilla/5.0 (Windows NT 10.0; Win64; x64) AppleWebKit/537.36 (KHTML, like Gecko) Chrome/88.0.4324.152 Safari/537.36","v1-up-stims","","","","","","","","40,50,60,70,80","media/audio/stims/spherical_300cm_s20_c10_cd-half_matched_a80.wav","spherical","20","10","half","matched","80","70","818"
"echo-presentation","39","297412","0.0-39.0","5fd4c0631786c12622a436b0","60242478c74f84097a222710","602425fba4f7f30974b590bb","Mozilla/5.0 (Windows NT 10.0; Win64; x64) AppleWebKit/537.36 (KHTML, like Gecko) Chrome/88.0.4324.152 Safari/537.36","v1-up-stims","","","","","","","","40,50,60,70,80","media/audio/stims/spherical_300cm_s20_c10_cd-half_matched_a70.wav","spherical","20","10","half","matched","70","70","784"
"echo-presentation","40","299031","0.0-40.0","5fd4c0631786c12622a436b0","60242478c74f84097a222710","602425fba4f7f30974b590bb","Mozilla/5.0 (Windows NT 10.0; Win64; x64) AppleWebKit/537.36 (KHTML, like Gecko) Chrome/88.0.4324.152 Safari/537.36","v1-up-stims","","","","","","","","40,50,60,70,80","media/audio/stims/spherical_300cm_s20_c10_cd-half_matched_a70.wav","spherical","20","10","half","matched","70","70","765"
"echo-presentation","41","300681","0.0-41.0","5fd4c0631786c12622a436b0","60242478c74f84097a222710","602425fba4f7f30974b590bb","Mozilla/5.0 (Windows NT 10.0; Win64; x64) AppleWebKit/537.36 (KHTML, like Gecko) Chrome/88.0.4324.152 Safari/537.36","v1-up-stims","","","","","","","","40,50,60,70,80","media/audio/stims/spherical_300cm_s20_c10_cd-half_matched_a40.wav","spherical","20","10","half","matched","40","70","787"
"echo-presentation","42","302284","0.0-42.0","5fd4c0631786c12622a436b0","60242478c74f84097a222710","602425fba4f7f30974b590bb","Mozilla/5.0 (Windows NT 10.0; Win64; x64) AppleWebKit/537.36 (KHTML, like Gecko) Chrome/88.0.4324.152 Safari/537.36","v1-up-stims","","","","","","","","40,50,60,70,80","media/audio/stims/spherical_300cm_s20_c10_cd-half_matched_a40.wav","spherical","20","10","half","matched","40","70","673"
"echo-presentation","43","303905","0.0-43.0","5fd4c0631786c12622a436b0","60242478c74f84097a222710","602425fba4f7f30974b590bb","Mozilla/5.0 (Windows NT 10.0; Win64; x64) AppleWebKit/537.36 (KHTML, like Gecko) Chrome/88.0.4324.152 Safari/537.36","v1-up-stims","","","","","","","","40,50,60,70,80","media/audio/stims/spherical_300cm_s20_c10_cd-half_matched_a60.wav","spherical","20","10","half","matched","60","70","732"
"echo-presentation","44","305624","0.0-44.0","5fd4c0631786c12622a436b0","60242478c74f84097a222710","602425fba4f7f30974b590bb","Mozilla/5.0 (Windows NT 10.0; Win64; x64) AppleWebKit/537.36 (KHTML, like Gecko) Chrome/88.0.4324.152 Safari/537.36","v1-up-stims","","","","","","","","40,50,60,70,80","media/audio/stims/spherical_300cm_s20_c10_cd-half_matched_a50.wav","spherical","20","10","half","matched","50","70","757"
"echo-presentation","45","307258","0.0-45.0","5fd4c0631786c12622a436b0","60242478c74f84097a222710","602425fba4f7f30974b590bb","Mozilla/5.0 (Windows NT 10.0; Win64; x64) AppleWebKit/537.36 (KHTML, like Gecko) Chrome/88.0.4324.152 Safari/537.36","v1-up-stims","","","","","","","","40,50,60,70,80","media/audio/stims/spherical_300cm_s20_c10_cd-half_matched_a50.wav","spherical","20","10","half","matched","50","70","766"
"echo-presentation","46","309024","0.0-46.0","5fd4c0631786c12622a436b0","60242478c74f84097a222710","602425fba4f7f30974b590bb","Mozilla/5.0 (Windows NT 10.0; Win64; x64) AppleWebKit/537.36 (KHTML, like Gecko) Chrome/88.0.4324.152 Safari/537.36","v1-up-stims","","","","","","","","40,50,60,70,80","media/audio/stims/spherical_300cm_s20_c10_cd-half_matched_a50.wav","spherical","20","10","half","matched","50","70","748"
"echo-presentation","47","310724","0.0-47.0","5fd4c0631786c12622a436b0","60242478c74f84097a222710","602425fba4f7f30974b590bb","Mozilla/5.0 (Windows NT 10.0; Win64; x64) AppleWebKit/537.36 (KHTML, like Gecko) Chrome/88.0.4324.152 Safari/537.36","v1-up-stims","","","","","","","","40,50,60,70,80","media/audio/stims/spherical_300cm_s20_c10_cd-half_matched_a60.wav","spherical","20","10","half","matched","60","70","754"
"echo-presentation","48","312263","0.0-48.0","5fd4c0631786c12622a436b0","60242478c74f84097a222710","602425fba4f7f30974b590bb","Mozilla/5.0 (Windows NT 10.0; Win64; x64) AppleWebKit/537.36 (KHTML, like Gecko) Chrome/88.0.4324.152 Safari/537.36","v1-up-stims","","","","","","","","40,50,60,70,80","media/audio/stims/spherical_300cm_s20_c10_cd-half_matched_a80.wav","spherical","20","10","half","matched","80","70","755"
"echo-presentation","49","314104","0.0-49.0","5fd4c0631786c12622a436b0","60242478c74f84097a222710","602425fba4f7f30974b590bb","Mozilla/5.0 (Windows NT 10.0; Win64; x64) AppleWebKit/537.36 (KHTML, like Gecko) Chrome/88.0.4324.152 Safari/537.36","v1-up-stims","","","","","","","","40,50,60,70,80","media/audio/stims/spherical_300cm_s20_c10_cd-half_matched_a70.wav","spherical","20","10","half","matched","70","70","748"
"block-bookend","50","316397","0.0-50.0","5fd4c0631786c12622a436b0","60242478c74f84097a222710","602425fba4f7f30974b590bb","Mozilla/5.0 (Windows NT 10.0; Win64; x64) AppleWebKit/537.36 (KHTML, like Gecko) Chrome/88.0.4324.152 Safari/537.36","v1-up-stims","","","","","","","","","","","","","","","","",""
"block-bookend","51","322553","0.0-51.0","5fd4c0631786c12622a436b0","60242478c74f84097a222710","602425fba4f7f30974b590bb","Mozilla/5.0 (Windows NT 10.0; Win64; x64) AppleWebKit/537.36 (KHTML, like Gecko) Chrome/88.0.4324.152 Safari/537.36","v1-up-stims","","","","","","","","","","","","","","","","",""
"echo-presentation","52","327327","0.0-52.0","5fd4c0631786c12622a436b0","60242478c74f84097a222710","602425fba4f7f30974b590bb","Mozilla/5.0 (Windows NT 10.0; Win64; x64) AppleWebKit/537.36 (KHTML, like Gecko) Chrome/88.0.4324.152 Safari/537.36","v1-up-stims","","","","","","","","-20,-10,0,10,20","media/audio/stims/spherical_300cm_s20_c10_cd-half_matched_a20.wav","spherical","20","10","half","matched","20","10","2701"
"echo-presentation","53","330983","0.0-53.0","5fd4c0631786c12622a436b0","60242478c74f84097a222710","602425fba4f7f30974b590bb","Mozilla/5.0 (Windows NT 10.0; Win64; x64) AppleWebKit/537.36 (KHTML, like Gecko) Chrome/88.0.4324.152 Safari/537.36","v1-up-stims","","","","","","","","-20,-10,0,10,20","media/audio/stims/spherical_300cm_s20_c10_cd-half_matched_a-10.wav","spherical","20","10","half","matched","-10","-10","2851"
"echo-presentation","54","332642","0.0-54.0","5fd4c0631786c12622a436b0","60242478c74f84097a222710","602425fba4f7f30974b590bb","Mozilla/5.0 (Windows NT 10.0; Win64; x64) AppleWebKit/537.36 (KHTML, like Gecko) Chrome/88.0.4324.152 Safari/537.36","v1-up-stims","","","","","","","","-20,-10,0,10,20","media/audio/stims/spherical_300cm_s20_c10_cd-half_matched_a10.wav","spherical","20","10","half","matched","10","10","854"
"echo-presentation","55","334212","0.0-55.0","5fd4c0631786c12622a436b0","60242478c74f84097a222710","602425fba4f7f30974b590bb","Mozilla/5.0 (Windows NT 10.0; Win64; x64) AppleWebKit/537.36 (KHTML, like Gecko) Chrome/88.0.4324.152 Safari/537.36","v1-up-stims","","","","","","","","-20,-10,0,10,20","media/audio/stims/spherical_300cm_s20_c10_cd-half_matched_a-20.wav","spherical","20","10","half","matched","-20","-10","800"
"echo-presentation","56","336015","0.0-56.0","5fd4c0631786c12622a436b0","60242478c74f84097a222710","602425fba4f7f30974b590bb","Mozilla/5.0 (Windows NT 10.0; Win64; x64) AppleWebKit/537.36 (KHTML, like Gecko) Chrome/88.0.4324.152 Safari/537.36","v1-up-stims","","","","","","","","-20,-10,0,10,20","media/audio/stims/spherical_300cm_s20_c10_cd-half_matched_a0.wav","spherical","20","10","half","matched","0","-10","999"
"echo-presentation","57","338245","0.0-57.0","5fd4c0631786c12622a436b0","60242478c74f84097a222710","602425fba4f7f30974b590bb","Mozilla/5.0 (Windows NT 10.0; Win64; x64) AppleWebKit/537.36 (KHTML, like Gecko) Chrome/88.0.4324.152 Safari/537.36","v1-up-stims","","","","","","","","-20,-10,0,10,20","media/audio/stims/spherical_300cm_s20_c10_cd-half_matched_a0.wav","spherical","20","10","half","matched","0","0","1512"
"echo-presentation","58","340176","0.0-58.0","5fd4c0631786c12622a436b0","60242478c74f84097a222710","602425fba4f7f30974b590bb","Mozilla/5.0 (Windows NT 10.0; Win64; x64) AppleWebKit/537.36 (KHTML, like Gecko) Chrome/88.0.4324.152 Safari/537.36","v1-up-stims","","","","","","","","-20,-10,0,10,20","media/audio/stims/spherical_300cm_s20_c10_cd-half_matched_a-10.wav","spherical","20","10","half","matched","-10","-10","1128"
"echo-presentation","59","341942","0.0-59.0","5fd4c0631786c12622a436b0","60242478c74f84097a222710","602425fba4f7f30974b590bb","Mozilla/5.0 (Windows NT 10.0; Win64; x64) AppleWebKit/537.36 (KHTML, like Gecko) Chrome/88.0.4324.152 Safari/537.36","v1-up-stims","","","","","","","","-20,-10,0,10,20","media/audio/stims/spherical_300cm_s20_c10_cd-half_matched_a-20.wav","spherical","20","10","half","matched","-20","-10","1039"
"echo-presentation","60","344304","0.0-60.0","5fd4c0631786c12622a436b0","60242478c74f84097a222710","602425fba4f7f30974b590bb","Mozilla/5.0 (Windows NT 10.0; Win64; x64) AppleWebKit/537.36 (KHTML, like Gecko) Chrome/88.0.4324.152 Safari/537.36","v1-up-stims","","","","","","","","-20,-10,0,10,20","media/audio/stims/spherical_300cm_s20_c10_cd-half_matched_a20.wav","spherical","20","10","half","matched","20","10","1304"
"echo-presentation","61","346984","0.0-61.0","5fd4c0631786c12622a436b0","60242478c74f84097a222710","602425fba4f7f30974b590bb","Mozilla/5.0 (Windows NT 10.0; Win64; x64) AppleWebKit/537.36 (KHTML, like Gecko) Chrome/88.0.4324.152 Safari/537.36","v1-up-stims","","","","","","","","-20,-10,0,10,20","media/audio/stims/spherical_300cm_s20_c10_cd-half_matched_a10.wav","spherical","20","10","half","matched","10","0","1957"
"echo-presentation","62","349120","0.0-62.0","5fd4c0631786c12622a436b0","60242478c74f84097a222710","602425fba4f7f30974b590bb","Mozilla/5.0 (Windows NT 10.0; Win64; x64) AppleWebKit/537.36 (KHTML, like Gecko) Chrome/88.0.4324.152 Safari/537.36","v1-up-stims","","","","","","","","-20,-10,0,10,20","media/audio/stims/spherical_300cm_s20_c10_cd-half_matched_a10.wav","spherical","20","10","half","matched","10","10","1329"
"echo-presentation","63","351087","0.0-63.0","5fd4c0631786c12622a436b0","60242478c74f84097a222710","602425fba4f7f30974b590bb","Mozilla/5.0 (Windows NT 10.0; Win64; x64) AppleWebKit/537.36 (KHTML, like Gecko) Chrome/88.0.4324.152 Safari/537.36","v1-up-stims","","","","","","","","-20,-10,0,10,20","media/audio/stims/spherical_300cm_s20_c10_cd-half_matched_a-20.wav","spherical","20","10","half","matched","-20","-10","1220"
"echo-presentation","64","352976","0.0-64.0","5fd4c0631786c12622a436b0","60242478c74f84097a222710","602425fba4f7f30974b590bb","Mozilla/5.0 (Windows NT 10.0; Win64; x64) AppleWebKit/537.36 (KHTML, like Gecko) Chrome/88.0.4324.152 Safari/537.36","v1-up-stims","","","","","","","","-20,-10,0,10,20","media/audio/stims/spherical_300cm_s20_c10_cd-half_matched_a-10.wav","spherical","20","10","half","matched","-10","-10","1127"
"echo-presentation","65","354919","0.0-65.0","5fd4c0631786c12622a436b0","60242478c74f84097a222710","602425fba4f7f30974b590bb","Mozilla/5.0 (Windows NT 10.0; Win64; x64) AppleWebKit/537.36 (KHTML, like Gecko) Chrome/88.0.4324.152 Safari/537.36","v1-up-stims","","","","","","","","-20,-10,0,10,20","media/audio/stims/spherical_300cm_s20_c10_cd-half_matched_a10.wav","spherical","20","10","half","matched","10","0","1284"
"echo-presentation","66","357183","0.0-66.0","5fd4c0631786c12622a436b0","60242478c74f84097a222710","602425fba4f7f30974b590bb","Mozilla/5.0 (Windows NT 10.0; Win64; x64) AppleWebKit/537.36 (KHTML, like Gecko) Chrome/88.0.4324.152 Safari/537.36","v1-up-stims","","","","","","","","-20,-10,0,10,20","media/audio/stims/spherical_300cm_s20_c10_cd-half_matched_a0.wav","spherical","20","10","half","matched","0","0","1378"
"echo-presentation","67","359031","0.0-67.0","5fd4c0631786c12622a436b0","60242478c74f84097a222710","602425fba4f7f30974b590bb","Mozilla/5.0 (Windows NT 10.0; Win64; x64) AppleWebKit/537.36 (KHTML, like Gecko) Chrome/88.0.4324.152 Safari/537.36","v1-up-stims","","","","","","","","-20,-10,0,10,20","media/audio/stims/spherical_300cm_s20_c10_cd-half_matched_a0.wav","spherical","20","10","half","matched","0","0","1141"
"echo-presentation","68","360792","0.0-68.0","5fd4c0631786c12622a436b0","60242478c74f84097a222710","602425fba4f7f30974b590bb","Mozilla/5.0 (Windows NT 10.0; Win64; x64) AppleWebKit/537.36 (KHTML, like Gecko) Chrome/88.0.4324.152 Safari/537.36","v1-up-stims","","","","","","","","-20,-10,0,10,20","media/audio/stims/spherical_300cm_s20_c10_cd-half_matched_a20.wav","spherical","20","10","half","matched","20","10","1046"
"echo-presentation","69","362536","0.0-69.0","5fd4c0631786c12622a436b0","60242478c74f84097a222710","602425fba4f7f30974b590bb","Mozilla/5.0 (Windows NT 10.0; Win64; x64) AppleWebKit/537.36 (KHTML, like Gecko) Chrome/88.0.4324.152 Safari/537.36","v1-up-stims","","","","","","","","-20,-10,0,10,20","media/audio/stims/spherical_300cm_s20_c10_cd-half_matched_a-10.wav","spherical","20","10","half","matched","-10","-10","1078"
"echo-presentation","70","364155","0.0-70.0","5fd4c0631786c12622a436b0","60242478c74f84097a222710","602425fba4f7f30974b590bb","Mozilla/5.0 (Windows NT 10.0; Win64; x64) AppleWebKit/537.36 (KHTML, like Gecko) Chrome/88.0.4324.152 Safari/537.36","v1-up-stims","","","","","","","","-20,-10,0,10,20","media/audio/stims/spherical_300cm_s20_c10_cd-half_matched_a-20.wav","spherical","20","10","half","matched","-20","-10","966"
"echo-presentation","71","365711","0.0-71.0","5fd4c0631786c12622a436b0","60242478c74f84097a222710","602425fba4f7f30974b590bb","Mozilla/5.0 (Windows NT 10.0; Win64; x64) AppleWebKit/537.36 (KHTML, like Gecko) Chrome/88.0.4324.152 Safari/537.36","v1-up-stims","","","","","","","","-20,-10,0,10,20","media/audio/stims/spherical_300cm_s20_c10_cd-half_matched_a20.wav","spherical","20","10","half","matched","20","10","869"
"block-bookend","72","366706","0.0-72.0","5fd4c0631786c12622a436b0","60242478c74f84097a222710","602425fba4f7f30974b590bb","Mozilla/5.0 (Windows NT 10.0; Win64; x64) AppleWebKit/537.36 (KHTML, like Gecko) Chrome/88.0.4324.152 Safari/537.36","v1-up-stims","","","","","","","","","","","","","","","","",""
"block-bookend","73","373842","0.0-73.0","5fd4c0631786c12622a436b0","60242478c74f84097a222710","602425fba4f7f30974b590bb","Mozilla/5.0 (Windows NT 10.0; Win64; x64) AppleWebKit/537.36 (KHTML, like Gecko) Chrome/88.0.4324.152 Safari/537.36","v1-up-stims","","","","","","","","","","","","","","","","",""
"echo-presentation","74","376735","0.0-74.0","5fd4c0631786c12622a436b0","60242478c74f84097a222710","602425fba4f7f30974b590bb","Mozilla/5.0 (Windows NT 10.0; Win64; x64) AppleWebKit/537.36 (KHTML, like Gecko) Chrome/88.0.4324.152 Safari/537.36","v1-up-stims","","","","","","","","-20,-10,0,10,20","media/audio/stims/spherical_300cm_s20_c10_cd-half_matched_a-10.wav","spherical","20","10","half","matched","-10","-10","981"
"echo-presentation","75","378734","0.0-75.0","5fd4c0631786c12622a436b0","60242478c74f84097a222710","602425fba4f7f30974b590bb","Mozilla/5.0 (Windows NT 10.0; Win64; x64) AppleWebKit/537.36 (KHTML, like Gecko) Chrome/88.0.4324.152 Safari/537.36","v1-up-stims","","","","","","","","-20,-10,0,10,20","media/audio/stims/spherical_300cm_s20_c10_cd-half_matched_a-10.wav","spherical","20","10","half","matched","-10","0","1219"
"echo-presentation","76","380374","0.0-76.0","5fd4c0631786c12622a436b0","60242478c74f84097a222710","602425fba4f7f30974b590bb","Mozilla/5.0 (Windows NT 10.0; Win64; x64) AppleWebKit/537.36 (KHTML, like Gecko) Chrome/88.0.4324.152 Safari/537.36","v1-up-stims","","","","","","","","-20,-10,0,10,20","media/audio/stims/spherical_300cm_s20_c10_cd-half_matched_a20.wav","spherical","20","10","half","matched","20","10","1061"
"echo-presentation","77","382635","0.0-77.0","5fd4c0631786c12622a436b0","60242478c74f84097a222710","602425fba4f7f30974b590bb","Mozilla/5.0 (Windows NT 10.0; Win64; x64) AppleWebKit/537.36 (KHTML, like Gecko) Chrome/88.0.4324.152 Safari/537.36","v1-up-stims","","","","","","","","-20,-10,0,10,20","media/audio/stims/spherical_300cm_s20_c10_cd-half_matched_a0.wav","spherical","20","10","half","matched","0","0","1510"
"echo-presentation","78","384602","0.0-78.0","5fd4c0631786c12622a436b0","60242478c74f84097a222710","602425fba4f7f30974b590bb","Mozilla/5.0 (Windows NT 10.0; Win64; x64) AppleWebKit/537.36 (KHTML, like Gecko) Chrome/88.0.4324.152 Safari/537.36","v1-up-stims","","","","","","","","-20,-10,0,10,20","media/audio/stims/spherical_300cm_s20_c10_cd-half_matched_a-10.wav","spherical","20","10","half","matched","-10","-10","1092"
"echo-presentation","79","386000","0.0-79.0","5fd4c0631786c12622a436b0","60242478c74f84097a222710","602425fba4f7f30974b590bb","Mozilla/5.0 (Windows NT 10.0; Win64; x64) AppleWebKit/537.36 (KHTML, like Gecko) Chrome/88.0.4324.152 Safari/537.36","v1-up-stims","","","","","","","","-20,-10,0,10,20","media/audio/stims/spherical_300cm_s20_c10_cd-half_matched_a20.wav","spherical","20","10","half","matched","20","10","824"
"echo-presentation","80","388073","0.0-80.0","5fd4c0631786c12622a436b0","60242478c74f84097a222710","602425fba4f7f30974b590bb","Mozilla/5.0 (Windows NT 10.0; Win64; x64) AppleWebKit/537.36 (KHTML, like Gecko) Chrome/88.0.4324.152 Safari/537.36","v1-up-stims","","","","","","","","-20,-10,0,10,20","media/audio/stims/spherical_300cm_s20_c10_cd-half_matched_a-20.wav","spherical","20","10","half","matched","-20","-10","1475"
"echo-presentation","81","389666","0.0-81.0","5fd4c0631786c12622a436b0","60242478c74f84097a222710","602425fba4f7f30974b590bb","Mozilla/5.0 (Windows NT 10.0; Win64; x64) AppleWebKit/537.36 (KHTML, like Gecko) Chrome/88.0.4324.152 Safari/537.36","v1-up-stims","","","","","","","","-20,-10,0,10,20","media/audio/stims/spherical_300cm_s20_c10_cd-half_matched_a0.wav","spherical","20","10","half","matched","0","10","1001"
"echo-presentation","82","391248","0.0-82.0","5fd4c0631786c12622a436b0","60242478c74f84097a222710","602425fba4f7f30974b590bb","Mozilla/5.0 (Windows NT 10.0; Win64; x64) AppleWebKit/537.36 (KHTML, like Gecko) Chrome/88.0.4324.152 Safari/537.36","v1-up-stims","","","","","","","","-20,-10,0,10,20","media/audio/stims/spherical_300cm_s20_c10_cd-half_matched_a20.wav","spherical","20","10","half","matched","20","10","977"
"echo-presentation","83","392847","0.0-83.0","5fd4c0631786c12622a436b0","60242478c74f84097a222710","602425fba4f7f30974b590bb","Mozilla/5.0 (Windows NT 10.0; Win64; x64) AppleWebKit/537.36 (KHTML, like Gecko) Chrome/88.0.4324.152 Safari/537.36","v1-up-stims","","","","","","","","-20,-10,0,10,20","media/audio/stims/spherical_300cm_s20_c10_cd-half_matched_a-20.wav","spherical","20","10","half","matched","-20","-10","963"
"echo-presentation","84","394456","0.0-84.0","5fd4c0631786c12622a436b0","60242478c74f84097a222710","602425fba4f7f30974b590bb","Mozilla/5.0 (Windows NT 10.0; Win64; x64) AppleWebKit/537.36 (KHTML, like Gecko) Chrome/88.0.4324.152 Safari/537.36","v1-up-stims","","","","","","","","-20,-10,0,10,20","media/audio/stims/spherical_300cm_s20_c10_cd-half_matched_a10.wav","spherical","20","10","half","matched","10","0","914"
"echo-presentation","85","396235","0.0-85.0","5fd4c0631786c12622a436b0","60242478c74f84097a222710","602425fba4f7f30974b590bb","Mozilla/5.0 (Windows NT 10.0; Win64; x64) AppleWebKit/537.36 (KHTML, like Gecko) Chrome/88.0.4324.152 Safari/537.36","v1-up-stims","","","","","","","","-20,-10,0,10,20","media/audio/stims/spherical_300cm_s20_c10_cd-half_matched_a0.wav","spherical","20","10","half","matched","0","0","1097"
"echo-presentation","86","398112","0.0-86.0","5fd4c0631786c12622a436b0","60242478c74f84097a222710","602425fba4f7f30974b590bb","Mozilla/5.0 (Windows NT 10.0; Win64; x64) AppleWebKit/537.36 (KHTML, like Gecko) Chrome/88.0.4324.152 Safari/537.36","v1-up-stims","","","","","","","","-20,-10,0,10,20","media/audio/stims/spherical_300cm_s20_c10_cd-half_matched_a0.wav","spherical","20","10","half","matched","0","0","1270"
"echo-presentation","87","400194","0.0-87.0","5fd4c0631786c12622a436b0","60242478c74f84097a222710","602425fba4f7f30974b590bb","Mozilla/5.0 (Windows NT 10.0; Win64; x64) AppleWebKit/537.36 (KHTML, like Gecko) Chrome/88.0.4324.152 Safari/537.36","v1-up-stims","","","","","","","","-20,-10,0,10,20","media/audio/stims/spherical_300cm_s20_c10_cd-half_matched_a-10.wav","spherical","20","10","half","matched","-10","-10","1335"
"echo-presentation","88","401763","0.0-88.0","5fd4c0631786c12622a436b0","60242478c74f84097a222710","602425fba4f7f30974b590bb","Mozilla/5.0 (Windows NT 10.0; Win64; x64) AppleWebKit/537.36 (KHTML, like Gecko) Chrome/88.0.4324.152 Safari/537.36","v1-up-stims","","","","","","","","-20,-10,0,10,20","media/audio/stims/spherical_300cm_s20_c10_cd-half_matched_a-20.wav","spherical","20","10","half","matched","-20","-10","1022"
"echo-presentation","89","403503","0.0-89.0","5fd4c0631786c12622a436b0","60242478c74f84097a222710","602425fba4f7f30974b590bb","Mozilla/5.0 (Windows NT 10.0; Win64; x64) AppleWebKit/537.36 (KHTML, like Gecko) Chrome/88.0.4324.152 Safari/537.36","v1-up-stims","","","","","","","","-20,-10,0,10,20","media/audio/stims/spherical_300cm_s20_c10_cd-half_matched_a10.wav","spherical","20","10","half","matched","10","10","767"
"echo-presentation","90","405075","0.0-90.0","5fd4c0631786c12622a436b0","60242478c74f84097a222710","602425fba4f7f30974b590bb","Mozilla/5.0 (Windows NT 10.0; Win64; x64) AppleWebKit/537.36 (KHTML, like Gecko) Chrome/88.0.4324.152 Safari/537.36","v1-up-stims","","","","","","","","-20,-10,0,10,20","media/audio/stims/spherical_300cm_s20_c10_cd-half_matched_a10.wav","spherical","20","10","half","matched","10","10","825"
"echo-presentation","91","406863","0.0-91.0","5fd4c0631786c12622a436b0","60242478c74f84097a222710","602425fba4f7f30974b590bb","Mozilla/5.0 (Windows NT 10.0; Win64; x64) AppleWebKit/537.36 (KHTML, like Gecko) Chrome/88.0.4324.152 Safari/537.36","v1-up-stims","","","","","","","","-20,-10,0,10,20","media/audio/stims/spherical_300cm_s20_c10_cd-half_matched_a20.wav","spherical","20","10","half","matched","20","10","1068"
"echo-presentation","92","408494","0.0-92.0","5fd4c0631786c12622a436b0","60242478c74f84097a222710","602425fba4f7f30974b590bb","Mozilla/5.0 (Windows NT 10.0; Win64; x64) AppleWebKit/537.36 (KHTML, like Gecko) Chrome/88.0.4324.152 Safari/537.36","v1-up-stims","","","","","","","","-20,-10,0,10,20","media/audio/stims/spherical_300cm_s20_c10_cd-half_matched_a-20.wav","spherical","20","10","half","matched","-20","-10","911"
"echo-presentation","93","410111","0.0-93.0","5fd4c0631786c12622a436b0","60242478c74f84097a222710","602425fba4f7f30974b590bb","Mozilla/5.0 (Windows NT 10.0; Win64; x64) AppleWebKit/537.36 (KHTML, like Gecko) Chrome/88.0.4324.152 Safari/537.36","v1-up-stims","","","","","","","","-20,-10,0,10,20","media/audio/stims/spherical_300cm_s20_c10_cd-half_matched_a10.wav","spherical","20","10","half","matched","10","10","844"
"block-bookend","94","411042","0.0-94.0","5fd4c0631786c12622a436b0","60242478c74f84097a222710","602425fba4f7f30974b590bb","Mozilla/5.0 (Windows NT 10.0; Win64; x64) AppleWebKit/537.36 (KHTML, like Gecko) Chrome/88.0.4324.152 Safari/537.36","v1-up-stims","","","","","","","","","","","","","","","","",""
"block-bookend","95","415434","0.0-95.0","5fd4c0631786c12622a436b0","60242478c74f84097a222710","602425fba4f7f30974b590bb","Mozilla/5.0 (Windows NT 10.0; Win64; x64) AppleWebKit/537.36 (KHTML, like Gecko) Chrome/88.0.4324.152 Safari/537.36","v1-up-stims","","","","","","","","","","","","","","","","",""
"echo-presentation","96","419246","0.0-96.0","5fd4c0631786c12622a436b0","60242478c74f84097a222710","602425fba4f7f30974b590bb","Mozilla/5.0 (Windows NT 10.0; Win64; x64) AppleWebKit/537.36 (KHTML, like Gecko) Chrome/88.0.4324.152 Safari/537.36","v1-up-stims","","","","","","","","-80,-70,-60,-50,-40","media/audio/stims/spherical_300cm_s20_c10_cd-half_matched_a-50.wav","spherical","20","10","half","matched","-50","-70","1669"
"echo-presentation","97","420843","0.0-97.0","5fd4c0631786c12622a436b0","60242478c74f84097a222710","602425fba4f7f30974b590bb","Mozilla/5.0 (Windows NT 10.0; Win64; x64) AppleWebKit/537.36 (KHTML, like Gecko) Chrome/88.0.4324.152 Safari/537.36","v1-up-stims","","","","","","","","-80,-70,-60,-50,-40","media/audio/stims/spherical_300cm_s20_c10_cd-half_matched_a-60.wav","spherical","20","10","half","matched","-60","-70","922"
"echo-presentation","98","423193","0.0-98.0","5fd4c0631786c12622a436b0","60242478c74f84097a222710","602425fba4f7f30974b590bb","Mozilla/5.0 (Windows NT 10.0; Win64; x64) AppleWebKit/537.36 (KHTML, like Gecko) Chrome/88.0.4324.152 Safari/537.36","v1-up-stims","","","","","","","","-80,-70,-60,-50,-40","media/audio/stims/spherical_300cm_s20_c10_cd-half_matched_a-60.wav","spherical","20","10","half","matched","-60","-80","1634"
"echo-presentation","99","424768","0.0-99.0","5fd4c0631786c12622a436b0","60242478c74f84097a222710","602425fba4f7f30974b590bb","Mozilla/5.0 (Windows NT 10.0; Win64; x64) AppleWebKit/537.36 (KHTML, like Gecko) Chrome/88.0.4324.152 Safari/537.36","v1-up-stims","","","","","","","","-80,-70,-60,-50,-40","media/audio/stims/spherical_300cm_s20_c10_cd-half_matched_a-40.wav","spherical","20","10","half","matched","-40","-80","956"
"echo-presentation","100","426287","0.0-100.0","5fd4c0631786c12622a436b0","60242478c74f84097a222710","602425fba4f7f30974b590bb","Mozilla/5.0 (Windows NT 10.0; Win64; x64) AppleWebKit/537.36 (KHTML, like Gecko) Chrome/88.0.4324.152 Safari/537.36","v1-up-stims","","","","","","","","-80,-70,-60,-50,-40","media/audio/stims/spherical_300cm_s20_c10_cd-half_matched_a-50.wav","spherical","20","10","half","matched","-50","-80","859"
"echo-presentation","101","427810","0.0-101.0","5fd4c0631786c12622a436b0","60242478c74f84097a222710","602425fba4f7f30974b590bb","Mozilla/5.0 (Windows NT 10.0; Win64; x64) AppleWebKit/537.36 (KHTML, like Gecko) Chrome/88.0.4324.152 Safari/537.36","v1-up-stims","","","","","","","","-80,-70,-60,-50,-40","media/audio/stims/spherical_300cm_s20_c10_cd-half_matched_a-70.wav","spherical","20","10","half","matched","-70","-80","814"
"echo-presentation","102","429280","0.0-102.0","5fd4c0631786c12622a436b0","60242478c74f84097a222710","602425fba4f7f30974b590bb","Mozilla/5.0 (Windows NT 10.0; Win64; x64) AppleWebKit/537.36 (KHTML, like Gecko) Chrome/88.0.4324.152 Safari/537.36","v1-up-stims","","","","","","","","-80,-70,-60,-50,-40","media/audio/stims/spherical_300cm_s20_c10_cd-half_matched_a-40.wav","spherical","20","10","half","matched","-40","-80","833"
"echo-presentation","103","430743","0.0-103.0","5fd4c0631786c12622a436b0","60242478c74f84097a222710","602425fba4f7f30974b590bb","Mozilla/5.0 (Windows NT 10.0; Win64; x64) AppleWebKit/537.36 (KHTML, like Gecko) Chrome/88.0.4324.152 Safari/537.36","v1-up-stims","","","","","","","","-80,-70,-60,-50,-40","media/audio/stims/spherical_300cm_s20_c10_cd-half_matched_a-70.wav","spherical","20","10","half","matched","-70","-80","732"
"echo-presentation","104","432167","0.0-104.0","5fd4c0631786c12622a436b0","60242478c74f84097a222710","602425fba4f7f30974b590bb","Mozilla/5.0 (Windows NT 10.0; Win64; x64) AppleWebKit/537.36 (KHTML, like Gecko) Chrome/88.0.4324.152 Safari/537.36","v1-up-stims","","","","","","","","-80,-70,-60,-50,-40","media/audio/stims/spherical_300cm_s20_c10_cd-half_matched_a-50.wav","spherical","20","10","half","matched","-50","-80","678"
"echo-presentation","105","433623","0.0-105.0","5fd4c0631786c12622a436b0","60242478c74f84097a222710","602425fba4f7f30974b590bb","Mozilla/5.0 (Windows NT 10.0; Win64; x64) AppleWebKit/537.36 (KHTML, like Gecko) Chrome/88.0.4324.152 Safari/537.36","v1-up-stims","","","","","","","","-80,-70,-60,-50,-40","media/audio/stims/spherical_300cm_s20_c10_cd-half_matched_a-60.wav","spherical","20","10","half","matched","-60","-80","659"
"echo-presentation","106","435097","0.0-106.0","5fd4c0631786c12622a436b0","60242478c74f84097a222710","602425fba4f7f30974b590bb","Mozilla/5.0 (Windows NT 10.0; Win64; x64) AppleWebKit/537.36 (KHTML, like Gecko) Chrome/88.0.4324.152 Safari/537.36","v1-up-stims","","","","","","","","-80,-70,-60,-50,-40","media/audio/stims/spherical_300cm_s20_c10_cd-half_matched_a-40.wav","spherical","20","10","half","matched","-40","-80","742"
"echo-presentation","107","436565","0.0-107.0","5fd4c0631786c12622a436b0","60242478c74f84097a222710","602425fba4f7f30974b590bb","Mozilla/5.0 (Windows NT 10.0; Win64; x64) AppleWebKit/537.36 (KHTML, like Gecko) Chrome/88.0.4324.152 Safari/537.36","v1-up-stims","","","","","","","","-80,-70,-60,-50,-40","media/audio/stims/spherical_300cm_s20_c10_cd-half_matched_a-80.wav","spherical","20","10","half","matched","-80","-80","812"
"echo-presentation","108","438006","0.0-108.0","5fd4c0631786c12622a436b0","60242478c74f84097a222710","602425fba4f7f30974b590bb","Mozilla/5.0 (Windows NT 10.0; Win64; x64) AppleWebKit/537.36 (KHTML, like Gecko) Chrome/88.0.4324.152 Safari/537.36","v1-up-stims","","","","","","","","-80,-70,-60,-50,-40","media/audio/stims/spherical_300cm_s20_c10_cd-half_matched_a-80.wav","spherical","20","10","half","matched","-80","-80","681"
"echo-presentation","109","439431","0.0-109.0","5fd4c0631786c12622a436b0","60242478c74f84097a222710","602425fba4f7f30974b590bb","Mozilla/5.0 (Windows NT 10.0; Win64; x64) AppleWebKit/537.36 (KHTML, like Gecko) Chrome/88.0.4324.152 Safari/537.36","v1-up-stims","","","","","","","","-80,-70,-60,-50,-40","media/audio/stims/spherical_300cm_s20_c10_cd-half_matched_a-70.wav","spherical","20","10","half","matched","-70","-70","701"
"echo-presentation","110","440743","0.0-110.0","5fd4c0631786c12622a436b0","60242478c74f84097a222710","602425fba4f7f30974b590bb","Mozilla/5.0 (Windows NT 10.0; Win64; x64) AppleWebKit/537.36 (KHTML, like Gecko) Chrome/88.0.4324.152 Safari/537.36","v1-up-stims","","","","","","","","-80,-70,-60,-50,-40","media/audio/stims/spherical_300cm_s20_c10_cd-half_matched_a-80.wav","spherical","20","10","half","matched","-80","-70","645"
"echo-presentation","111","442078","0.0-111.0","5fd4c0631786c12622a436b0","60242478c74f84097a222710","602425fba4f7f30974b590bb","Mozilla/5.0 (Windows NT 10.0; Win64; x64) AppleWebKit/537.36 (KHTML, like Gecko) Chrome/88.0.4324.152 Safari/537.36","v1-up-stims","","","","","","","","-80,-70,-60,-50,-40","media/audio/stims/spherical_300cm_s20_c10_cd-half_matched_a-70.wav","spherical","20","10","half","matched","-70","-70","684"
"echo-presentation","112","443361","0.0-112.0","5fd4c0631786c12622a436b0","60242478c74f84097a222710","602425fba4f7f30974b590bb","Mozilla/5.0 (Windows NT 10.0; Win64; x64) AppleWebKit/537.36 (KHTML, like Gecko) Chrome/88.0.4324.152 Safari/537.36","v1-up-stims","","","","","","","","-80,-70,-60,-50,-40","media/audio/stims/spherical_300cm_s20_c10_cd-half_matched_a-40.wav","spherical","20","10","half","matched","-40","-70","693"
"echo-presentation","113","445135","0.0-113.0","5fd4c0631786c12622a436b0","60242478c74f84097a222710","602425fba4f7f30974b590bb","Mozilla/5.0 (Windows NT 10.0; Win64; x64) AppleWebKit/537.36 (KHTML, like Gecko) Chrome/88.0.4324.152 Safari/537.36","v1-up-stims","","","","","","","","-80,-70,-60,-50,-40","media/audio/stims/spherical_300cm_s20_c10_cd-half_matched_a-80.wav","spherical","20","10","half","matched","-80","-70","674"
"echo-presentation","114","447032","0.0-114.0","5fd4c0631786c12622a436b0","60242478c74f84097a222710","602425fba4f7f30974b590bb","Mozilla/5.0 (Windows NT 10.0; Win64; x64) AppleWebKit/537.36 (KHTML, like Gecko) Chrome/88.0.4324.152 Safari/537.36","v1-up-stims","","","","","","","","-80,-70,-60,-50,-40","media/audio/stims/spherical_300cm_s20_c10_cd-half_matched_a-50.wav","spherical","20","10","half","matched","-50","-70","1194"
"echo-presentation","115","448448","0.0-115.0","5fd4c0631786c12622a436b0","60242478c74f84097a222710","602425fba4f7f30974b590bb","Mozilla/5.0 (Windows NT 10.0; Win64; x64) AppleWebKit/537.36 (KHTML, like Gecko) Chrome/88.0.4324.152 Safari/537.36","v1-up-stims","","","","","","","","-80,-70,-60,-50,-40","media/audio/stims/spherical_300cm_s20_c10_cd-half_matched_a-60.wav","spherical","20","10","half","matched","-60","-70","856"
"block-bookend","116","449010","0.0-116.0","5fd4c0631786c12622a436b0","60242478c74f84097a222710","602425fba4f7f30974b590bb","Mozilla/5.0 (Windows NT 10.0; Win64; x64) AppleWebKit/537.36 (KHTML, like Gecko) Chrome/88.0.4324.152 Safari/537.36","v1-up-stims","","","","","","","","","","","","","","","","",""
"block-bookend","117","452905","0.0-117.0","5fd4c0631786c12622a436b0","60242478c74f84097a222710","602425fba4f7f30974b590bb","Mozilla/5.0 (Windows NT 10.0; Win64; x64) AppleWebKit/537.36 (KHTML, like Gecko) Chrome/88.0.4324.152 Safari/537.36","v1-up-stims","","","","","","","","","","","","","","","","",""
"echo-presentation","118","455599","0.0-118.0","5fd4c0631786c12622a436b0","60242478c74f84097a222710","602425fba4f7f30974b590bb","Mozilla/5.0 (Windows NT 10.0; Win64; x64) AppleWebKit/537.36 (KHTML, like Gecko) Chrome/88.0.4324.152 Safari/537.36","v1-up-stims","","","","","","","","-80,-70,-60,-50,-40","media/audio/stims/spherical_300cm_s20_c10_cd-half_matched_a-40.wav","spherical","20","10","half","matched","-40","-80","728"
"echo-presentation","119","457039","0.0-119.0","5fd4c0631786c12622a436b0","60242478c74f84097a222710","602425fba4f7f30974b590bb","Mozilla/5.0 (Windows NT 10.0; Win64; x64) AppleWebKit/537.36 (KHTML, like Gecko) Chrome/88.0.4324.152 Safari/537.36","v1-up-stims","","","","","","","","-80,-70,-60,-50,-40","media/audio/stims/spherical_300cm_s20_c10_cd-half_matched_a-60.wav","spherical","20","10","half","matched","-60","-80","748"
"echo-presentation","120","459294","0.0-120.0","5fd4c0631786c12622a436b0","60242478c74f84097a222710","602425fba4f7f30974b590bb","Mozilla/5.0 (Windows NT 10.0; Win64; x64) AppleWebKit/537.36 (KHTML, like Gecko) Chrome/88.0.4324.152 Safari/537.36","v1-up-stims","","","","","","","","-80,-70,-60,-50,-40","media/audio/stims/spherical_300cm_s20_c10_cd-half_matched_a-40.wav","spherical","20","10","half","matched","-40","-80","1526"
"echo-presentation","121","460767","0.0-121.0","5fd4c0631786c12622a436b0","60242478c74f84097a222710","602425fba4f7f30974b590bb","Mozilla/5.0 (Windows NT 10.0; Win64; x64) AppleWebKit/537.36 (KHTML, like Gecko) Chrome/88.0.4324.152 Safari/537.36","v1-up-stims","","","","","","","","-80,-70,-60,-50,-40","media/audio/stims/spherical_300cm_s20_c10_cd-half_matched_a-60.wav","spherical","20","10","half","matched","-60","-80","739"
"echo-presentation","122","462254","0.0-122.0","5fd4c0631786c12622a436b0","60242478c74f84097a222710","602425fba4f7f30974b590bb","Mozilla/5.0 (Windows NT 10.0; Win64; x64) AppleWebKit/537.36 (KHTML, like Gecko) Chrome/88.0.4324.152 Safari/537.36","v1-up-stims","","","","","","","","-80,-70,-60,-50,-40","media/audio/stims/spherical_300cm_s20_c10_cd-half_matched_a-40.wav","spherical","20","10","half","matched","-40","-80","772"
"echo-presentation","123","463706","0.0-123.0","5fd4c0631786c12622a436b0","60242478c74f84097a222710","602425fba4f7f30974b590bb","Mozilla/5.0 (Windows NT 10.0; Win64; x64) AppleWebKit/537.36 (KHTML, like Gecko) Chrome/88.0.4324.152 Safari/537.36","v1-up-stims","","","","","","","","-80,-70,-60,-50,-40","media/audio/stims/spherical_300cm_s20_c10_cd-half_matched_a-80.wav","spherical","20","10","half","matched","-80","-80","767"
"echo-presentation","124","465248","0.0-124.0","5fd4c0631786c12622a436b0","60242478c74f84097a222710","602425fba4f7f30974b590bb","Mozilla/5.0 (Windows NT 10.0; Win64; x64) AppleWebKit/537.36 (KHTML, like Gecko) Chrome/88.0.4324.152 Safari/537.36","v1-up-stims","","","","","","","","-80,-70,-60,-50,-40","media/audio/stims/spherical_300cm_s20_c10_cd-half_matched_a-80.wav","spherical","20","10","half","matched","-80","-80","775"
"echo-presentation","125","466806","0.0-125.0","5fd4c0631786c12622a436b0","60242478c74f84097a222710","602425fba4f7f30974b590bb","Mozilla/5.0 (Windows NT 10.0; Win64; x64) AppleWebKit/537.36 (KHTML, like Gecko) Chrome/88.0.4324.152 Safari/537.36","v1-up-stims","","","","","","","","-80,-70,-60,-50,-40","media/audio/stims/spherical_300cm_s20_c10_cd-half_matched_a-70.wav","spherical","20","10","half","matched","-70","-80","768"
"echo-presentation","126","468342","0.0-126.0","5fd4c0631786c12622a436b0","60242478c74f84097a222710","602425fba4f7f30974b590bb","Mozilla/5.0 (Windows NT 10.0; Win64; x64) AppleWebKit/537.36 (KHTML, like Gecko) Chrome/88.0.4324.152 Safari/537.36","v1-up-stims","","","","","","","","-80,-70,-60,-50,-40","media/audio/stims/spherical_300cm_s20_c10_cd-half_matched_a-50.wav","spherical","20","10","half","matched","-50","-80","754"
"echo-presentation","127","469911","0.0-127.0","5fd4c0631786c12622a436b0","60242478c74f84097a222710","602425fba4f7f30974b590bb","Mozilla/5.0 (Windows NT 10.0; Win64; x64) AppleWebKit/537.36 (KHTML, like Gecko) Chrome/88.0.4324.152 Safari/537.36","v1-up-stims","","","","","","","","-80,-70,-60,-50,-40","media/audio/stims/spherical_300cm_s20_c10_cd-half_matched_a-70.wav","spherical","20","10","half","matched","-70","-80","739"
"echo-presentation","128","471335","0.0-128.0","5fd4c0631786c12622a436b0","60242478c74f84097a222710","602425fba4f7f30974b590bb","Mozilla/5.0 (Windows NT 10.0; Win64; x64) AppleWebKit/537.36 (KHTML, like Gecko) Chrome/88.0.4324.152 Safari/537.36","v1-up-stims","","","","","","","","-80,-70,-60,-50,-40","media/audio/stims/spherical_300cm_s20_c10_cd-half_matched_a-50.wav","spherical","20","10","half","matched","-50","-80","687"
"echo-presentation","129","472808","0.0-129.0","5fd4c0631786c12622a436b0","60242478c74f84097a222710","602425fba4f7f30974b590bb","Mozilla/5.0 (Windows NT 10.0; Win64; x64) AppleWebKit/537.36 (KHTML, like Gecko) Chrome/88.0.4324.152 Safari/537.36","v1-up-stims","","","","","","","","-80,-70,-60,-50,-40","media/audio/stims/spherical_300cm_s20_c10_cd-half_matched_a-50.wav","spherical","20","10","half","matched","-50","-80","700"
"echo-presentation","130","474206","0.0-130.0","5fd4c0631786c12622a436b0","60242478c74f84097a222710","602425fba4f7f30974b590bb","Mozilla/5.0 (Windows NT 10.0; Win64; x64) AppleWebKit/537.36 (KHTML, like Gecko) Chrome/88.0.4324.152 Safari/537.36","v1-up-stims","","","","","","","","-80,-70,-60,-50,-40","media/audio/stims/spherical_300cm_s20_c10_cd-half_matched_a-60.wav","spherical","20","10","half","matched","-60","-80","715"
"echo-presentation","131","475762","0.0-131.0","5fd4c0631786c12622a436b0","60242478c74f84097a222710","602425fba4f7f30974b590bb","Mozilla/5.0 (Windows NT 10.0; Win64; x64) AppleWebKit/537.36 (KHTML, like Gecko) Chrome/88.0.4324.152 Safari/537.36","v1-up-stims","","","","","","","","-80,-70,-60,-50,-40","media/audio/stims/spherical_300cm_s20_c10_cd-half_matched_a-40.wav","spherical","20","10","half","matched","-40","-70","788"
"echo-presentation","132","477152","0.0-132.0","5fd4c0631786c12622a436b0","60242478c74f84097a222710","602425fba4f7f30974b590bb","Mozilla/5.0 (Windows NT 10.0; Win64; x64) AppleWebKit/537.36 (KHTML, like Gecko) Chrome/88.0.4324.152 Safari/537.36","v1-up-stims","","","","","","","","-80,-70,-60,-50,-40","media/audio/stims/spherical_300cm_s20_c10_cd-half_matched_a-80.wav","spherical","20","10","half","matched","-80","-80","709"
"echo-presentation","133","478647","0.0-133.0","5fd4c0631786c12622a436b0","60242478c74f84097a222710","602425fba4f7f30974b590bb","Mozilla/5.0 (Windows NT 10.0; Win64; x64) AppleWebKit/537.36 (KHTML, like Gecko) Chrome/88.0.4324.152 Safari/537.36","v1-up-stims","","","","","","","","-80,-70,-60,-50,-40","media/audio/stims/spherical_300cm_s20_c10_cd-half_matched_a-70.wav","spherical","20","10","half","matched","-70","-70","752"
"echo-presentation","134","480212","0.0-134.0","5fd4c0631786c12622a436b0","60242478c74f84097a222710","602425fba4f7f30974b590bb","Mozilla/5.0 (Windows NT 10.0; Win64; x64) AppleWebKit/537.36 (KHTML, like Gecko) Chrome/88.0.4324.152 Safari/537.36","v1-up-stims","","","","","","","","-80,-70,-60,-50,-40","media/audio/stims/spherical_300cm_s20_c10_cd-half_matched_a-50.wav","spherical","20","10","half","matched","-50","-70","757"
"echo-presentation","135","481624","0.0-135.0","5fd4c0631786c12622a436b0","60242478c74f84097a222710","602425fba4f7f30974b590bb","Mozilla/5.0 (Windows NT 10.0; Win64; x64) AppleWebKit/537.36 (KHTML, like Gecko) Chrome/88.0.4324.152 Safari/537.36","v1-up-stims","","","","","","","","-80,-70,-60,-50,-40","media/audio/stims/spherical_300cm_s20_c10_cd-half_matched_a-80.wav","spherical","20","10","half","matched","-80","-80","681"
"echo-presentation","136","483046","0.0-136.0","5fd4c0631786c12622a436b0","60242478c74f84097a222710","602425fba4f7f30974b590bb","Mozilla/5.0 (Windows NT 10.0; Win64; x64) AppleWebKit/537.36 (KHTML, like Gecko) Chrome/88.0.4324.152 Safari/537.36","v1-up-stims","","","","","","","","-80,-70,-60,-50,-40","media/audio/stims/spherical_300cm_s20_c10_cd-half_matched_a-70.wav","spherical","20","10","half","matched","-70","-80","689"
"echo-presentation","137","484406","0.0-137.0","5fd4c0631786c12622a436b0","60242478c74f84097a222710","602425fba4f7f30974b590bb","Mozilla/5.0 (Windows NT 10.0; Win64; x64) AppleWebKit/537.36 (KHTML, like Gecko) Chrome/88.0.4324.152 Safari/537.36","v1-up-stims","","","","","","","","-80,-70,-60,-50,-40","media/audio/stims/spherical_300cm_s20_c10_cd-half_matched_a-60.wav","spherical","20","10","half","matched","-60","-80","644"
"block-bookend","138","485337","0.0-138.0","5fd4c0631786c12622a436b0","60242478c74f84097a222710","602425fba4f7f30974b590bb","Mozilla/5.0 (Windows NT 10.0; Win64; x64) AppleWebKit/537.36 (KHTML, like Gecko) Chrome/88.0.4324.152 Safari/537.36","v1-up-stims","","","","","","","","","","","","","","","","",""
