"trial_type","trial_index","time_elapsed","internal_node_id","prolificPid","studyId","sessionId","userAgent","version","rt","stimulus","key_press","chosenKeyset","failureCount","testIndex","globalVolume","choices","filename","modelName","slowdown","compensation","compensationDescriptor","receiverOrientationType","azimuth","responseAzimuth","responseDelay"
"pavlovia","0","3","0.0-0.0","5f524d871e17bf4c4fe7f146","60201dea606b8d5e5aa9e528","60202266e37c955ac51f7e14","Mozilla/5.0 (Windows NT 10.0; Win64; x64; rv:85.0) Gecko/20100101 Firefox/85.0","v1-up-stims","","","","","","","","","","","","","","","","",""
"html-keyboard-response","1","5244","0.0-1.0","5f524d871e17bf4c4fe7f146","60201dea606b8d5e5aa9e528","60202266e37c955ac51f7e14","Mozilla/5.0 (Windows NT 10.0; Win64; x64; rv:85.0) Gecko/20100101 Firefox/85.0","v1-up-stims","5239","<div><h1>Welcome!</h1><p>Press any key to continue.</p></div>","13","","","","","","","","","","","","","",""
"consent-form","2","28213","0.0-2.0","5f524d871e17bf4c4fe7f146","60201dea606b8d5e5aa9e528","60202266e37c955ac51f7e14","Mozilla/5.0 (Windows NT 10.0; Win64; x64; rv:85.0) Gecko/20100101 Firefox/85.0","v1-up-stims","","","","","","","","","","","","","","","","",""
"keyset-select","3","44886","0.0-3.0","5f524d871e17bf4c4fe7f146","60201dea606b8d5e5aa9e528","60202266e37c955ac51f7e14","Mozilla/5.0 (Windows NT 10.0; Win64; x64; rv:85.0) Gecko/20100101 Firefox/85.0","v1-up-stims","","","","left-hand","","","","","","","","","","","","",""
"headphone-check","4","112482","0.0-4.0","5f524d871e17bf4c4fe7f146","60201dea606b8d5e5aa9e528","60202266e37c955ac51f7e14","Mozilla/5.0 (Windows NT 10.0; Win64; x64; rv:85.0) Gecko/20100101 Firefox/85.0","v1-up-stims","","","","","0","6","0.3","","","","","","","","","",""
"headphone-backwards-check","5","128604","0.0-5.0","5f524d871e17bf4c4fe7f146","60201dea606b8d5e5aa9e528","60202266e37c955ac51f7e14","Mozilla/5.0 (Windows NT 10.0; Win64; x64; rv:85.0) Gecko/20100101 Firefox/85.0","v1-up-stims","","","","","0","","","","","","","","","","","",""
"training","6","191354","0.0-6.0","5f524d871e17bf4c4fe7f146","60201dea606b8d5e5aa9e528","60202266e37c955ac51f7e14","Mozilla/5.0 (Windows NT 10.0; Win64; x64; rv:85.0) Gecko/20100101 Firefox/85.0","v1-up-stims","","","","","","","","","","","","","","","","",""
"block-bookend","7","208779","0.0-7.0","5f524d871e17bf4c4fe7f146","60201dea606b8d5e5aa9e528","60202266e37c955ac51f7e14","Mozilla/5.0 (Windows NT 10.0; Win64; x64; rv:85.0) Gecko/20100101 Firefox/85.0","v1-up-stims","","","","","","","","","","","","","","","","",""
"echo-presentation","8","214839","0.0-8.0","5f524d871e17bf4c4fe7f146","60201dea606b8d5e5aa9e528","60202266e37c955ac51f7e14","Mozilla/5.0 (Windows NT 10.0; Win64; x64; rv:85.0) Gecko/20100101 Firefox/85.0","v1-up-stims","","","","","","","","-80,-70,-60,-50,-40","media/audio/stims/spherical_300cm_s20_c1_cd-1_matched_a-60.wav","spherical","20","1","1","matched","-60","-70","2861"
"echo-presentation","9","217757","0.0-9.0","5f524d871e17bf4c4fe7f146","60201dea606b8d5e5aa9e528","60202266e37c955ac51f7e14","Mozilla/5.0 (Windows NT 10.0; Win64; x64; rv:85.0) Gecko/20100101 Firefox/85.0","v1-up-stims","","","","","","","","-80,-70,-60,-50,-40","media/audio/stims/spherical_300cm_s20_c1_cd-1_matched_a-60.wav","spherical","20","1","1","matched","-60","-70","1495"
"echo-presentation","10","220269","0.0-10.0","5f524d871e17bf4c4fe7f146","60201dea606b8d5e5aa9e528","60202266e37c955ac51f7e14","Mozilla/5.0 (Windows NT 10.0; Win64; x64; rv:85.0) Gecko/20100101 Firefox/85.0","v1-up-stims","","","","","","","","-80,-70,-60,-50,-40","media/audio/stims/spherical_300cm_s20_c1_cd-1_matched_a-40.wav","spherical","20","1","1","matched","-40","-80","1315"
"echo-presentation","11","222895","0.0-11.0","5f524d871e17bf4c4fe7f146","60201dea606b8d5e5aa9e528","60202266e37c955ac51f7e14","Mozilla/5.0 (Windows NT 10.0; Win64; x64; rv:85.0) Gecko/20100101 Firefox/85.0","v1-up-stims","","","","","","","","-80,-70,-60,-50,-40","media/audio/stims/spherical_300cm_s20_c1_cd-1_matched_a-80.wav","spherical","20","1","1","matched","-80","-60","1466"
"echo-presentation","12","228820","0.0-12.0","5f524d871e17bf4c4fe7f146","60201dea606b8d5e5aa9e528","60202266e37c955ac51f7e14","Mozilla/5.0 (Windows NT 10.0; Win64; x64; rv:85.0) Gecko/20100101 Firefox/85.0","v1-up-stims","","","","","","","","-80,-70,-60,-50,-40","media/audio/stims/spherical_300cm_s20_c1_cd-1_matched_a-50.wav","spherical","20","1","1","matched","-50","-70","4461"
"echo-presentation","13","230874","0.0-13.0","5f524d871e17bf4c4fe7f146","60201dea606b8d5e5aa9e528","60202266e37c955ac51f7e14","Mozilla/5.0 (Windows NT 10.0; Win64; x64; rv:85.0) Gecko/20100101 Firefox/85.0","v1-up-stims","","","","","","","","-80,-70,-60,-50,-40","media/audio/stims/spherical_300cm_s20_c1_cd-1_matched_a-40.wav","spherical","20","1","1","matched","-40","-60","925"
"echo-presentation","14","232229","0.0-14.0","5f524d871e17bf4c4fe7f146","60201dea606b8d5e5aa9e528","60202266e37c955ac51f7e14","Mozilla/5.0 (Windows NT 10.0; Win64; x64; rv:85.0) Gecko/20100101 Firefox/85.0","v1-up-stims","","","","","","","","-80,-70,-60,-50,-40","media/audio/stims/spherical_300cm_s20_c1_cd-1_matched_a-70.wav","spherical","20","1","1","matched","-70","-80","659"
"echo-presentation","15","234581","0.0-15.0","5f524d871e17bf4c4fe7f146","60201dea606b8d5e5aa9e528","60202266e37c955ac51f7e14","Mozilla/5.0 (Windows NT 10.0; Win64; x64; rv:85.0) Gecko/20100101 Firefox/85.0","v1-up-stims","","","","","","","","-80,-70,-60,-50,-40","media/audio/stims/spherical_300cm_s20_c1_cd-1_matched_a-70.wav","spherical","20","1","1","matched","-70","-70","808"
"echo-presentation","16","236229","0.0-16.0","5f524d871e17bf4c4fe7f146","60201dea606b8d5e5aa9e528","60202266e37c955ac51f7e14","Mozilla/5.0 (Windows NT 10.0; Win64; x64; rv:85.0) Gecko/20100101 Firefox/85.0","v1-up-stims","","","","","","","","-80,-70,-60,-50,-40","media/audio/stims/spherical_300cm_s20_c1_cd-1_matched_a-80.wav","spherical","20","1","1","matched","-80","-60","791"
"echo-presentation","17","237979","0.0-17.0","5f524d871e17bf4c4fe7f146","60201dea606b8d5e5aa9e528","60202266e37c955ac51f7e14","Mozilla/5.0 (Windows NT 10.0; Win64; x64; rv:85.0) Gecko/20100101 Firefox/85.0","v1-up-stims","","","","","","","","-80,-70,-60,-50,-40","media/audio/stims/spherical_300cm_s20_c1_cd-1_matched_a-50.wav","spherical","20","1","1","matched","-50","-50","902"
"echo-presentation","18","239673","0.0-18.0","5f524d871e17bf4c4fe7f146","60201dea606b8d5e5aa9e528","60202266e37c955ac51f7e14","Mozilla/5.0 (Windows NT 10.0; Win64; x64; rv:85.0) Gecko/20100101 Firefox/85.0","v1-up-stims","","","","","","","","-80,-70,-60,-50,-40","media/audio/stims/spherical_300cm_s20_c1_cd-1_matched_a-50.wav","spherical","20","1","1","matched","-50","-80","911"
"echo-presentation","19","241438","0.0-19.0","5f524d871e17bf4c4fe7f146","60201dea606b8d5e5aa9e528","60202266e37c955ac51f7e14","Mozilla/5.0 (Windows NT 10.0; Win64; x64; rv:85.0) Gecko/20100101 Firefox/85.0","v1-up-stims","","","","","","","","-80,-70,-60,-50,-40","media/audio/stims/spherical_300cm_s20_c1_cd-1_matched_a-40.wav","spherical","20","1","1","matched","-40","-70","1030"
"echo-presentation","20","243833","0.0-20.0","5f524d871e17bf4c4fe7f146","60201dea606b8d5e5aa9e528","60202266e37c955ac51f7e14","Mozilla/5.0 (Windows NT 10.0; Win64; x64; rv:85.0) Gecko/20100101 Firefox/85.0","v1-up-stims","","","","","","","","-80,-70,-60,-50,-40","media/audio/stims/spherical_300cm_s20_c1_cd-1_matched_a-60.wav","spherical","20","1","1","matched","-60","-60","860"
"echo-presentation","21","246317","0.0-21.0","5f524d871e17bf4c4fe7f146","60201dea606b8d5e5aa9e528","60202266e37c955ac51f7e14","Mozilla/5.0 (Windows NT 10.0; Win64; x64; rv:85.0) Gecko/20100101 Firefox/85.0","v1-up-stims","","","","","","","","-80,-70,-60,-50,-40","media/audio/stims/spherical_300cm_s20_c1_cd-1_matched_a-70.wav","spherical","20","1","1","matched","-70","-80","969"
"echo-presentation","22","248436","0.0-22.0","5f524d871e17bf4c4fe7f146","60201dea606b8d5e5aa9e528","60202266e37c955ac51f7e14","Mozilla/5.0 (Windows NT 10.0; Win64; x64; rv:85.0) Gecko/20100101 Firefox/85.0","v1-up-stims","","","","","","","","-80,-70,-60,-50,-40","media/audio/stims/spherical_300cm_s20_c1_cd-1_matched_a-50.wav","spherical","20","1","1","matched","-50","-80","1204"
"echo-presentation","23","250052","0.0-23.0","5f524d871e17bf4c4fe7f146","60201dea606b8d5e5aa9e528","60202266e37c955ac51f7e14","Mozilla/5.0 (Windows NT 10.0; Win64; x64; rv:85.0) Gecko/20100101 Firefox/85.0","v1-up-stims","","","","","","","","-80,-70,-60,-50,-40","media/audio/stims/spherical_300cm_s20_c1_cd-1_matched_a-60.wav","spherical","20","1","1","matched","-60","-70","875"
"echo-presentation","24","251505","0.0-24.0","5f524d871e17bf4c4fe7f146","60201dea606b8d5e5aa9e528","60202266e37c955ac51f7e14","Mozilla/5.0 (Windows NT 10.0; Win64; x64; rv:85.0) Gecko/20100101 Firefox/85.0","v1-up-stims","","","","","","","","-80,-70,-60,-50,-40","media/audio/stims/spherical_300cm_s20_c1_cd-1_matched_a-40.wav","spherical","20","1","1","matched","-40","-80","884"
"echo-presentation","25","253216","0.0-25.0","5f524d871e17bf4c4fe7f146","60201dea606b8d5e5aa9e528","60202266e37c955ac51f7e14","Mozilla/5.0 (Windows NT 10.0; Win64; x64; rv:85.0) Gecko/20100101 Firefox/85.0","v1-up-stims","","","","","","","","-80,-70,-60,-50,-40","media/audio/stims/spherical_300cm_s20_c1_cd-1_matched_a-70.wav","spherical","20","1","1","matched","-70","-80","688"
"echo-presentation","26","254982","0.0-26.0","5f524d871e17bf4c4fe7f146","60201dea606b8d5e5aa9e528","60202266e37c955ac51f7e14","Mozilla/5.0 (Windows NT 10.0; Win64; x64; rv:85.0) Gecko/20100101 Firefox/85.0","v1-up-stims","","","","","","","","-80,-70,-60,-50,-40","media/audio/stims/spherical_300cm_s20_c1_cd-1_matched_a-80.wav","spherical","20","1","1","matched","-80","-70","832"
"echo-presentation","27","257664","0.0-27.0","5f524d871e17bf4c4fe7f146","60201dea606b8d5e5aa9e528","60202266e37c955ac51f7e14","Mozilla/5.0 (Windows NT 10.0; Win64; x64; rv:85.0) Gecko/20100101 Firefox/85.0","v1-up-stims","","","","","","","","-80,-70,-60,-50,-40","media/audio/stims/spherical_300cm_s20_c1_cd-1_matched_a-80.wav","spherical","20","1","1","matched","-80","-60","1268"
"block-bookend","28","259602","0.0-28.0","5f524d871e17bf4c4fe7f146","60201dea606b8d5e5aa9e528","60202266e37c955ac51f7e14","Mozilla/5.0 (Windows NT 10.0; Win64; x64; rv:85.0) Gecko/20100101 Firefox/85.0","v1-up-stims","","","","","","","","","","","","","","","","",""
"block-bookend","29","268359","0.0-29.0","5f524d871e17bf4c4fe7f146","60201dea606b8d5e5aa9e528","60202266e37c955ac51f7e14","Mozilla/5.0 (Windows NT 10.0; Win64; x64; rv:85.0) Gecko/20100101 Firefox/85.0","v1-up-stims","","","","","","","","","","","","","","","","",""
"echo-presentation","30","273771","0.0-30.0","5f524d871e17bf4c4fe7f146","60201dea606b8d5e5aa9e528","60202266e37c955ac51f7e14","Mozilla/5.0 (Windows NT 10.0; Win64; x64; rv:85.0) Gecko/20100101 Firefox/85.0","v1-up-stims","","","","","","","","-80,-70,-60,-50,-40","media/audio/stims/spherical_300cm_s20_c1_cd-1_matched_a-50.wav","spherical","20","1","1","matched","-50","-80","2820"
"echo-presentation","31","276786","0.0-31.0","5f524d871e17bf4c4fe7f146","60201dea606b8d5e5aa9e528","60202266e37c955ac51f7e14","Mozilla/5.0 (Windows NT 10.0; Win64; x64; rv:85.0) Gecko/20100101 Firefox/85.0","v1-up-stims","","","","","","","","-80,-70,-60,-50,-40","media/audio/stims/spherical_300cm_s20_c1_cd-1_matched_a-60.wav","spherical","20","1","1","matched","-60","-70","1993"
"echo-presentation","32","278771","0.0-32.0","5f524d871e17bf4c4fe7f146","60201dea606b8d5e5aa9e528","60202266e37c955ac51f7e14","Mozilla/5.0 (Windows NT 10.0; Win64; x64; rv:85.0) Gecko/20100101 Firefox/85.0","v1-up-stims","","","","","","","","-80,-70,-60,-50,-40","media/audio/stims/spherical_300cm_s20_c1_cd-1_matched_a-80.wav","spherical","20","1","1","matched","-80","-60","843"
"echo-presentation","33","280198","0.0-33.0","5f524d871e17bf4c4fe7f146","60201dea606b8d5e5aa9e528","60202266e37c955ac51f7e14","Mozilla/5.0 (Windows NT 10.0; Win64; x64; rv:85.0) Gecko/20100101 Firefox/85.0","v1-up-stims","","","","","","","","-80,-70,-60,-50,-40","media/audio/stims/spherical_300cm_s20_c1_cd-1_matched_a-70.wav","spherical","20","1","1","matched","-70","-60","896"
"echo-presentation","34","281590","0.0-34.0","5f524d871e17bf4c4fe7f146","60201dea606b8d5e5aa9e528","60202266e37c955ac51f7e14","Mozilla/5.0 (Windows NT 10.0; Win64; x64; rv:85.0) Gecko/20100101 Firefox/85.0","v1-up-stims","","","","","","","","-80,-70,-60,-50,-40","media/audio/stims/spherical_300cm_s20_c1_cd-1_matched_a-60.wav","spherical","20","1","1","matched","-60","-80","640"
"echo-presentation","35","283304","0.0-35.0","5f524d871e17bf4c4fe7f146","60201dea606b8d5e5aa9e528","60202266e37c955ac51f7e14","Mozilla/5.0 (Windows NT 10.0; Win64; x64; rv:85.0) Gecko/20100101 Firefox/85.0","v1-up-stims","","","","","","","","-80,-70,-60,-50,-40","media/audio/stims/spherical_300cm_s20_c1_cd-1_matched_a-50.wav","spherical","20","1","1","matched","-50","-80","961"
"echo-presentation","36","284898","0.0-36.0","5f524d871e17bf4c4fe7f146","60201dea606b8d5e5aa9e528","60202266e37c955ac51f7e14","Mozilla/5.0 (Windows NT 10.0; Win64; x64; rv:85.0) Gecko/20100101 Firefox/85.0","v1-up-stims","","","","","","","","-80,-70,-60,-50,-40","media/audio/stims/spherical_300cm_s20_c1_cd-1_matched_a-60.wav","spherical","20","1","1","matched","-60","-70","861"
"echo-presentation","37","286443","0.0-37.0","5f524d871e17bf4c4fe7f146","60201dea606b8d5e5aa9e528","60202266e37c955ac51f7e14","Mozilla/5.0 (Windows NT 10.0; Win64; x64; rv:85.0) Gecko/20100101 Firefox/85.0","v1-up-stims","","","","","","","","-80,-70,-60,-50,-40","media/audio/stims/spherical_300cm_s20_c1_cd-1_matched_a-70.wav","spherical","20","1","1","matched","-70","-80","970"
"echo-presentation","38","287881","0.0-38.0","5f524d871e17bf4c4fe7f146","60201dea606b8d5e5aa9e528","60202266e37c955ac51f7e14","Mozilla/5.0 (Windows NT 10.0; Win64; x64; rv:85.0) Gecko/20100101 Firefox/85.0","v1-up-stims","","","","","","","","-80,-70,-60,-50,-40","media/audio/stims/spherical_300cm_s20_c1_cd-1_matched_a-40.wav","spherical","20","1","1","matched","-40","-60","873"
"echo-presentation","39","289104","0.0-39.0","5f524d871e17bf4c4fe7f146","60201dea606b8d5e5aa9e528","60202266e37c955ac51f7e14","Mozilla/5.0 (Windows NT 10.0; Win64; x64; rv:85.0) Gecko/20100101 Firefox/85.0","v1-up-stims","","","","","","","","-80,-70,-60,-50,-40","media/audio/stims/spherical_300cm_s20_c1_cd-1_matched_a-80.wav","spherical","20","1","1","matched","-80","-80","655"
"echo-presentation","40","290379","0.0-40.0","5f524d871e17bf4c4fe7f146","60201dea606b8d5e5aa9e528","60202266e37c955ac51f7e14","Mozilla/5.0 (Windows NT 10.0; Win64; x64; rv:85.0) Gecko/20100101 Firefox/85.0","v1-up-stims","","","","","","","","-80,-70,-60,-50,-40","media/audio/stims/spherical_300cm_s20_c1_cd-1_matched_a-70.wav","spherical","20","1","1","matched","-70","-80","701"
"echo-presentation","41","292714","0.0-41.0","5f524d871e17bf4c4fe7f146","60201dea606b8d5e5aa9e528","60202266e37c955ac51f7e14","Mozilla/5.0 (Windows NT 10.0; Win64; x64; rv:85.0) Gecko/20100101 Firefox/85.0","v1-up-stims","","","","","","","","-80,-70,-60,-50,-40","media/audio/stims/spherical_300cm_s20_c1_cd-1_matched_a-50.wav","spherical","20","1","1","matched","-50","-80","649"
"echo-presentation","42","294247","0.0-42.0","5f524d871e17bf4c4fe7f146","60201dea606b8d5e5aa9e528","60202266e37c955ac51f7e14","Mozilla/5.0 (Windows NT 10.0; Win64; x64; rv:85.0) Gecko/20100101 Firefox/85.0","v1-up-stims","","","","","","","","-80,-70,-60,-50,-40","media/audio/stims/spherical_300cm_s20_c1_cd-1_matched_a-80.wav","spherical","20","1","1","matched","-80","-70","647"
"echo-presentation","43","295492","0.0-43.0","5f524d871e17bf4c4fe7f146","60201dea606b8d5e5aa9e528","60202266e37c955ac51f7e14","Mozilla/5.0 (Windows NT 10.0; Win64; x64; rv:85.0) Gecko/20100101 Firefox/85.0","v1-up-stims","","","","","","","","-80,-70,-60,-50,-40","media/audio/stims/spherical_300cm_s20_c1_cd-1_matched_a-50.wav","spherical","20","1","1","matched","-50","-80","733"
"echo-presentation","44","296773","0.0-44.0","5f524d871e17bf4c4fe7f146","60201dea606b8d5e5aa9e528","60202266e37c955ac51f7e14","Mozilla/5.0 (Windows NT 10.0; Win64; x64; rv:85.0) Gecko/20100101 Firefox/85.0","v1-up-stims","","","","","","","","-80,-70,-60,-50,-40","media/audio/stims/spherical_300cm_s20_c1_cd-1_matched_a-40.wav","spherical","20","1","1","matched","-40","-70","753"
"echo-presentation","45","298130","0.0-45.0","5f524d871e17bf4c4fe7f146","60201dea606b8d5e5aa9e528","60202266e37c955ac51f7e14","Mozilla/5.0 (Windows NT 10.0; Win64; x64; rv:85.0) Gecko/20100101 Firefox/85.0","v1-up-stims","","","","","","","","-80,-70,-60,-50,-40","media/audio/stims/spherical_300cm_s20_c1_cd-1_matched_a-60.wav","spherical","20","1","1","matched","-60","-60","730"
"echo-presentation","46","299400","0.0-46.0","5f524d871e17bf4c4fe7f146","60201dea606b8d5e5aa9e528","60202266e37c955ac51f7e14","Mozilla/5.0 (Windows NT 10.0; Win64; x64; rv:85.0) Gecko/20100101 Firefox/85.0","v1-up-stims","","","","","","","","-80,-70,-60,-50,-40","media/audio/stims/spherical_300cm_s20_c1_cd-1_matched_a-70.wav","spherical","20","1","1","matched","-70","-80","735"
"echo-presentation","47","303368","0.0-47.0","5f524d871e17bf4c4fe7f146","60201dea606b8d5e5aa9e528","60202266e37c955ac51f7e14","Mozilla/5.0 (Windows NT 10.0; Win64; x64; rv:85.0) Gecko/20100101 Firefox/85.0","v1-up-stims","","","","","","","","-80,-70,-60,-50,-40","media/audio/stims/spherical_300cm_s20_c1_cd-1_matched_a-40.wav","spherical","20","1","1","matched","-40","-40","3132"
"echo-presentation","48","305386","0.0-48.0","5f524d871e17bf4c4fe7f146","60201dea606b8d5e5aa9e528","60202266e37c955ac51f7e14","Mozilla/5.0 (Windows NT 10.0; Win64; x64; rv:85.0) Gecko/20100101 Firefox/85.0","v1-up-stims","","","","","","","","-80,-70,-60,-50,-40","media/audio/stims/spherical_300cm_s20_c1_cd-1_matched_a-40.wav","spherical","20","1","1","matched","-40","-80","818"
"echo-presentation","49","307110","0.0-49.0","5f524d871e17bf4c4fe7f146","60201dea606b8d5e5aa9e528","60202266e37c955ac51f7e14","Mozilla/5.0 (Windows NT 10.0; Win64; x64; rv:85.0) Gecko/20100101 Firefox/85.0","v1-up-stims","","","","","","","","-80,-70,-60,-50,-40","media/audio/stims/spherical_300cm_s20_c1_cd-1_matched_a-80.wav","spherical","20","1","1","matched","-80","-70","984"
"block-bookend","50","308623","0.0-50.0","5f524d871e17bf4c4fe7f146","60201dea606b8d5e5aa9e528","60202266e37c955ac51f7e14","Mozilla/5.0 (Windows NT 10.0; Win64; x64; rv:85.0) Gecko/20100101 Firefox/85.0","v1-up-stims","","","","","","","","","","","","","","","","",""
"block-bookend","51","315402","0.0-51.0","5f524d871e17bf4c4fe7f146","60201dea606b8d5e5aa9e528","60202266e37c955ac51f7e14","Mozilla/5.0 (Windows NT 10.0; Win64; x64; rv:85.0) Gecko/20100101 Firefox/85.0","v1-up-stims","","","","","","","","","","","","","","","","",""
"echo-presentation","52","319100","0.0-52.0","5f524d871e17bf4c4fe7f146","60201dea606b8d5e5aa9e528","60202266e37c955ac51f7e14","Mozilla/5.0 (Windows NT 10.0; Win64; x64; rv:85.0) Gecko/20100101 Firefox/85.0","v1-up-stims","","","","","","","","-20,-10,0,10,20","media/audio/stims/spherical_300cm_s20_c1_cd-1_matched_a10.wav","spherical","20","1","1","matched","10","0","1674"
"echo-presentation","53","321347","0.0-53.0","5f524d871e17bf4c4fe7f146","60201dea606b8d5e5aa9e528","60202266e37c955ac51f7e14","Mozilla/5.0 (Windows NT 10.0; Win64; x64; rv:85.0) Gecko/20100101 Firefox/85.0","v1-up-stims","","","","","","","","-20,-10,0,10,20","media/audio/stims/spherical_300cm_s20_c1_cd-1_matched_a0.wav","spherical","20","1","1","matched","0","-10","1469"
"echo-presentation","54","323066","0.0-54.0","5f524d871e17bf4c4fe7f146","60201dea606b8d5e5aa9e528","60202266e37c955ac51f7e14","Mozilla/5.0 (Windows NT 10.0; Win64; x64; rv:85.0) Gecko/20100101 Firefox/85.0","v1-up-stims","","","","","","","","-20,-10,0,10,20","media/audio/stims/spherical_300cm_s20_c1_cd-1_matched_a-10.wav","spherical","20","1","1","matched","-10","-20","1007"
"echo-presentation","55","324421","0.0-55.0","5f524d871e17bf4c4fe7f146","60201dea606b8d5e5aa9e528","60202266e37c955ac51f7e14","Mozilla/5.0 (Windows NT 10.0; Win64; x64; rv:85.0) Gecko/20100101 Firefox/85.0","v1-up-stims","","","","","","","","-20,-10,0,10,20","media/audio/stims/spherical_300cm_s20_c1_cd-1_matched_a-20.wav","spherical","20","1","1","matched","-20","-10","774"
"echo-presentation","56","327947","0.0-56.0","5f524d871e17bf4c4fe7f146","60201dea606b8d5e5aa9e528","60202266e37c955ac51f7e14","Mozilla/5.0 (Windows NT 10.0; Win64; x64; rv:85.0) Gecko/20100101 Firefox/85.0","v1-up-stims","","","","","","","","-20,-10,0,10,20","media/audio/stims/spherical_300cm_s20_c1_cd-1_matched_a10.wav","spherical","20","1","1","matched","10","20","2940"
"echo-presentation","57","331177","0.0-57.0","5f524d871e17bf4c4fe7f146","60201dea606b8d5e5aa9e528","60202266e37c955ac51f7e14","Mozilla/5.0 (Windows NT 10.0; Win64; x64; rv:85.0) Gecko/20100101 Firefox/85.0","v1-up-stims","","","","","","","","-20,-10,0,10,20","media/audio/stims/spherical_300cm_s20_c1_cd-1_matched_a-20.wav","spherical","20","1","1","matched","-20","-10","2362"
"echo-presentation","58","333173","0.0-58.0","5f524d871e17bf4c4fe7f146","60201dea606b8d5e5aa9e528","60202266e37c955ac51f7e14","Mozilla/5.0 (Windows NT 10.0; Win64; x64; rv:85.0) Gecko/20100101 Firefox/85.0","v1-up-stims","","","","","","","","-20,-10,0,10,20","media/audio/stims/spherical_300cm_s20_c1_cd-1_matched_a0.wav","spherical","20","1","1","matched","0","0","1225"
"echo-presentation","59","334837","0.0-59.0","5f524d871e17bf4c4fe7f146","60201dea606b8d5e5aa9e528","60202266e37c955ac51f7e14","Mozilla/5.0 (Windows NT 10.0; Win64; x64; rv:85.0) Gecko/20100101 Firefox/85.0","v1-up-stims","","","","","","","","-20,-10,0,10,20","media/audio/stims/spherical_300cm_s20_c1_cd-1_matched_a0.wav","spherical","20","1","1","matched","0","0","1048"
"echo-presentation","60","336473","0.0-60.0","5f524d871e17bf4c4fe7f146","60201dea606b8d5e5aa9e528","60202266e37c955ac51f7e14","Mozilla/5.0 (Windows NT 10.0; Win64; x64; rv:85.0) Gecko/20100101 Firefox/85.0","v1-up-stims","","","","","","","","-20,-10,0,10,20","media/audio/stims/spherical_300cm_s20_c1_cd-1_matched_a-10.wav","spherical","20","1","1","matched","-10","10","1054"
"echo-presentation","61","338203","0.0-61.0","5f524d871e17bf4c4fe7f146","60201dea606b8d5e5aa9e528","60202266e37c955ac51f7e14","Mozilla/5.0 (Windows NT 10.0; Win64; x64; rv:85.0) Gecko/20100101 Firefox/85.0","v1-up-stims","","","","","","","","-20,-10,0,10,20","media/audio/stims/spherical_300cm_s20_c1_cd-1_matched_a-20.wav","spherical","20","1","1","matched","-20","10","1159"
"echo-presentation","62","341014","0.0-62.0","5f524d871e17bf4c4fe7f146","60201dea606b8d5e5aa9e528","60202266e37c955ac51f7e14","Mozilla/5.0 (Windows NT 10.0; Win64; x64; rv:85.0) Gecko/20100101 Firefox/85.0","v1-up-stims","","","","","","","","-20,-10,0,10,20","media/audio/stims/spherical_300cm_s20_c1_cd-1_matched_a20.wav","spherical","20","1","1","matched","20","20","2208"
"echo-presentation","63","344402","0.0-63.0","5f524d871e17bf4c4fe7f146","60201dea606b8d5e5aa9e528","60202266e37c955ac51f7e14","Mozilla/5.0 (Windows NT 10.0; Win64; x64; rv:85.0) Gecko/20100101 Firefox/85.0","v1-up-stims","","","","","","","","-20,-10,0,10,20","media/audio/stims/spherical_300cm_s20_c1_cd-1_matched_a-10.wav","spherical","20","1","1","matched","-10","0","1276"
"echo-presentation","64","346564","0.0-64.0","5f524d871e17bf4c4fe7f146","60201dea606b8d5e5aa9e528","60202266e37c955ac51f7e14","Mozilla/5.0 (Windows NT 10.0; Win64; x64; rv:85.0) Gecko/20100101 Firefox/85.0","v1-up-stims","","","","","","","","-20,-10,0,10,20","media/audio/stims/spherical_300cm_s20_c1_cd-1_matched_a20.wav","spherical","20","1","1","matched","20","20","1490"
"echo-presentation","65","349127","0.0-65.0","5f524d871e17bf4c4fe7f146","60201dea606b8d5e5aa9e528","60202266e37c955ac51f7e14","Mozilla/5.0 (Windows NT 10.0; Win64; x64; rv:85.0) Gecko/20100101 Firefox/85.0","v1-up-stims","","","","","","","","-20,-10,0,10,20","media/audio/stims/spherical_300cm_s20_c1_cd-1_matched_a20.wav","spherical","20","1","1","matched","20","20","1277"
"echo-presentation","66","352848","0.0-66.0","5f524d871e17bf4c4fe7f146","60201dea606b8d5e5aa9e528","60202266e37c955ac51f7e14","Mozilla/5.0 (Windows NT 10.0; Win64; x64; rv:85.0) Gecko/20100101 Firefox/85.0","v1-up-stims","","","","","","","","-20,-10,0,10,20","media/audio/stims/spherical_300cm_s20_c1_cd-1_matched_a0.wav","spherical","20","1","1","matched","0","-10","3155"
"echo-presentation","67","354358","0.0-67.0","5f524d871e17bf4c4fe7f146","60201dea606b8d5e5aa9e528","60202266e37c955ac51f7e14","Mozilla/5.0 (Windows NT 10.0; Win64; x64; rv:85.0) Gecko/20100101 Firefox/85.0","v1-up-stims","","","","","","","","-20,-10,0,10,20","media/audio/stims/spherical_300cm_s20_c1_cd-1_matched_a10.wav","spherical","20","1","1","matched","10","0","800"
"echo-presentation","68","356193","0.0-68.0","5f524d871e17bf4c4fe7f146","60201dea606b8d5e5aa9e528","60202266e37c955ac51f7e14","Mozilla/5.0 (Windows NT 10.0; Win64; x64; rv:85.0) Gecko/20100101 Firefox/85.0","v1-up-stims","","","","","","","","-20,-10,0,10,20","media/audio/stims/spherical_300cm_s20_c1_cd-1_matched_a-20.wav","spherical","20","1","1","matched","-20","10","1108"
"echo-presentation","69","358168","0.0-69.0","5f524d871e17bf4c4fe7f146","60201dea606b8d5e5aa9e528","60202266e37c955ac51f7e14","Mozilla/5.0 (Windows NT 10.0; Win64; x64; rv:85.0) Gecko/20100101 Firefox/85.0","v1-up-stims","","","","","","","","-20,-10,0,10,20","media/audio/stims/spherical_300cm_s20_c1_cd-1_matched_a10.wav","spherical","20","1","1","matched","10","20","1011"
"echo-presentation","70","360254","0.0-70.0","5f524d871e17bf4c4fe7f146","60201dea606b8d5e5aa9e528","60202266e37c955ac51f7e14","Mozilla/5.0 (Windows NT 10.0; Win64; x64; rv:85.0) Gecko/20100101 Firefox/85.0","v1-up-stims","","","","","","","","-20,-10,0,10,20","media/audio/stims/spherical_300cm_s20_c1_cd-1_matched_a-10.wav","spherical","20","1","1","matched","-10","-10","1483"
"echo-presentation","71","362676","0.0-71.0","5f524d871e17bf4c4fe7f146","60201dea606b8d5e5aa9e528","60202266e37c955ac51f7e14","Mozilla/5.0 (Windows NT 10.0; Win64; x64; rv:85.0) Gecko/20100101 Firefox/85.0","v1-up-stims","","","","","","","","-20,-10,0,10,20","media/audio/stims/spherical_300cm_s20_c1_cd-1_matched_a20.wav","spherical","20","1","1","matched","20","-10","1182"
"block-bookend","72","363349","0.0-72.0","5f524d871e17bf4c4fe7f146","60201dea606b8d5e5aa9e528","60202266e37c955ac51f7e14","Mozilla/5.0 (Windows NT 10.0; Win64; x64; rv:85.0) Gecko/20100101 Firefox/85.0","v1-up-stims","","","","","","","","","","","","","","","","",""
"block-bookend","73","367884","0.0-73.0","5f524d871e17bf4c4fe7f146","60201dea606b8d5e5aa9e528","60202266e37c955ac51f7e14","Mozilla/5.0 (Windows NT 10.0; Win64; x64; rv:85.0) Gecko/20100101 Firefox/85.0","v1-up-stims","","","","","","","","","","","","","","","","",""
"echo-presentation","74","370556","0.0-74.0","5f524d871e17bf4c4fe7f146","60201dea606b8d5e5aa9e528","60202266e37c955ac51f7e14","Mozilla/5.0 (Windows NT 10.0; Win64; x64; rv:85.0) Gecko/20100101 Firefox/85.0","v1-up-stims","","","","","","","","-20,-10,0,10,20","media/audio/stims/spherical_300cm_s20_c1_cd-1_matched_a10.wav","spherical","20","1","1","matched","10","0","1206"
"echo-presentation","75","372556","0.0-75.0","5f524d871e17bf4c4fe7f146","60201dea606b8d5e5aa9e528","60202266e37c955ac51f7e14","Mozilla/5.0 (Windows NT 10.0; Win64; x64; rv:85.0) Gecko/20100101 Firefox/85.0","v1-up-stims","","","","","","","","-20,-10,0,10,20","media/audio/stims/spherical_300cm_s20_c1_cd-1_matched_a-10.wav","spherical","20","1","1","matched","-10","0","1180"
"echo-presentation","76","374815","0.0-76.0","5f524d871e17bf4c4fe7f146","60201dea606b8d5e5aa9e528","60202266e37c955ac51f7e14","Mozilla/5.0 (Windows NT 10.0; Win64; x64; rv:85.0) Gecko/20100101 Firefox/85.0","v1-up-stims","","","","","","","","-20,-10,0,10,20","media/audio/stims/spherical_300cm_s20_c1_cd-1_matched_a-20.wav","spherical","20","1","1","matched","-20","0","678"
"echo-presentation","77","376173","0.0-77.0","5f524d871e17bf4c4fe7f146","60201dea606b8d5e5aa9e528","60202266e37c955ac51f7e14","Mozilla/5.0 (Windows NT 10.0; Win64; x64; rv:85.0) Gecko/20100101 Firefox/85.0","v1-up-stims","","","","","","","","-20,-10,0,10,20","media/audio/stims/spherical_300cm_s20_c1_cd-1_matched_a-10.wav","spherical","20","1","1","matched","-10","10","689"
"echo-presentation","78","377400","0.0-78.0","5f524d871e17bf4c4fe7f146","60201dea606b8d5e5aa9e528","60202266e37c955ac51f7e14","Mozilla/5.0 (Windows NT 10.0; Win64; x64; rv:85.0) Gecko/20100101 Firefox/85.0","v1-up-stims","","","","","","","","-20,-10,0,10,20","media/audio/stims/spherical_300cm_s20_c1_cd-1_matched_a-10.wav","spherical","20","1","1","matched","-10","10","633"
"echo-presentation","79","378638","0.0-79.0","5f524d871e17bf4c4fe7f146","60201dea606b8d5e5aa9e528","60202266e37c955ac51f7e14","Mozilla/5.0 (Windows NT 10.0; Win64; x64; rv:85.0) Gecko/20100101 Firefox/85.0","v1-up-stims","","","","","","","","-20,-10,0,10,20","media/audio/stims/spherical_300cm_s20_c1_cd-1_matched_a-20.wav","spherical","20","1","1","matched","-20","-10","649"
"echo-presentation","80","380396","0.0-80.0","5f524d871e17bf4c4fe7f146","60201dea606b8d5e5aa9e528","60202266e37c955ac51f7e14","Mozilla/5.0 (Windows NT 10.0; Win64; x64; rv:85.0) Gecko/20100101 Firefox/85.0","v1-up-stims","","","","","","","","-20,-10,0,10,20","media/audio/stims/spherical_300cm_s20_c1_cd-1_matched_a20.wav","spherical","20","1","1","matched","20","0","1143"
"echo-presentation","81","381820","0.0-81.0","5f524d871e17bf4c4fe7f146","60201dea606b8d5e5aa9e528","60202266e37c955ac51f7e14","Mozilla/5.0 (Windows NT 10.0; Win64; x64; rv:85.0) Gecko/20100101 Firefox/85.0","v1-up-stims","","","","","","","","-20,-10,0,10,20","media/audio/stims/spherical_300cm_s20_c1_cd-1_matched_a0.wav","spherical","20","1","1","matched","0","-10","806"
"echo-presentation","82","383168","0.0-82.0","5f524d871e17bf4c4fe7f146","60201dea606b8d5e5aa9e528","60202266e37c955ac51f7e14","Mozilla/5.0 (Windows NT 10.0; Win64; x64; rv:85.0) Gecko/20100101 Firefox/85.0","v1-up-stims","","","","","","","","-20,-10,0,10,20","media/audio/stims/spherical_300cm_s20_c1_cd-1_matched_a0.wav","spherical","20","1","1","matched","0","20","693"
"echo-presentation","83","384475","0.0-83.0","5f524d871e17bf4c4fe7f146","60201dea606b8d5e5aa9e528","60202266e37c955ac51f7e14","Mozilla/5.0 (Windows NT 10.0; Win64; x64; rv:85.0) Gecko/20100101 Firefox/85.0","v1-up-stims","","","","","","","","-20,-10,0,10,20","media/audio/stims/spherical_300cm_s20_c1_cd-1_matched_a10.wav","spherical","20","1","1","matched","10","-10","598"
"echo-presentation","84","385813","0.0-84.0","5f524d871e17bf4c4fe7f146","60201dea606b8d5e5aa9e528","60202266e37c955ac51f7e14","Mozilla/5.0 (Windows NT 10.0; Win64; x64; rv:85.0) Gecko/20100101 Firefox/85.0","v1-up-stims","","","","","","","","-20,-10,0,10,20","media/audio/stims/spherical_300cm_s20_c1_cd-1_matched_a20.wav","spherical","20","1","1","matched","20","20","679"
"echo-presentation","85","387039","0.0-85.0","5f524d871e17bf4c4fe7f146","60201dea606b8d5e5aa9e528","60202266e37c955ac51f7e14","Mozilla/5.0 (Windows NT 10.0; Win64; x64; rv:85.0) Gecko/20100101 Firefox/85.0","v1-up-stims","","","","","","","","-20,-10,0,10,20","media/audio/stims/spherical_300cm_s20_c1_cd-1_matched_a-20.wav","spherical","20","1","1","matched","-20","-20","683"
"echo-presentation","86","388314","0.0-86.0","5f524d871e17bf4c4fe7f146","60201dea606b8d5e5aa9e528","60202266e37c955ac51f7e14","Mozilla/5.0 (Windows NT 10.0; Win64; x64; rv:85.0) Gecko/20100101 Firefox/85.0","v1-up-stims","","","","","","","","-20,-10,0,10,20","media/audio/stims/spherical_300cm_s20_c1_cd-1_matched_a20.wav","spherical","20","1","1","matched","20","-10","733"
"echo-presentation","87","389600","0.0-87.0","5f524d871e17bf4c4fe7f146","60201dea606b8d5e5aa9e528","60202266e37c955ac51f7e14","Mozilla/5.0 (Windows NT 10.0; Win64; x64; rv:85.0) Gecko/20100101 Firefox/85.0","v1-up-stims","","","","","","","","-20,-10,0,10,20","media/audio/stims/spherical_300cm_s20_c1_cd-1_matched_a-10.wav","spherical","20","1","1","matched","-10","-20","702"
"echo-presentation","88","390972","0.0-88.0","5f524d871e17bf4c4fe7f146","60201dea606b8d5e5aa9e528","60202266e37c955ac51f7e14","Mozilla/5.0 (Windows NT 10.0; Win64; x64; rv:85.0) Gecko/20100101 Firefox/85.0","v1-up-stims","","","","","","","","-20,-10,0,10,20","media/audio/stims/spherical_300cm_s20_c1_cd-1_matched_a0.wav","spherical","20","1","1","matched","0","-10","699"
"echo-presentation","89","392185","0.0-89.0","5f524d871e17bf4c4fe7f146","60201dea606b8d5e5aa9e528","60202266e37c955ac51f7e14","Mozilla/5.0 (Windows NT 10.0; Win64; x64; rv:85.0) Gecko/20100101 Firefox/85.0","v1-up-stims","","","","","","","","-20,-10,0,10,20","media/audio/stims/spherical_300cm_s20_c1_cd-1_matched_a0.wav","spherical","20","1","1","matched","0","-10","696"
"echo-presentation","90","393489","0.0-90.0","5f524d871e17bf4c4fe7f146","60201dea606b8d5e5aa9e528","60202266e37c955ac51f7e14","Mozilla/5.0 (Windows NT 10.0; Win64; x64; rv:85.0) Gecko/20100101 Firefox/85.0","v1-up-stims","","","","","","","","-20,-10,0,10,20","media/audio/stims/spherical_300cm_s20_c1_cd-1_matched_a10.wav","spherical","20","1","1","matched","10","0","695"
"echo-presentation","91","394806","0.0-91.0","5f524d871e17bf4c4fe7f146","60201dea606b8d5e5aa9e528","60202266e37c955ac51f7e14","Mozilla/5.0 (Windows NT 10.0; Win64; x64; rv:85.0) Gecko/20100101 Firefox/85.0","v1-up-stims","","","","","","","","-20,-10,0,10,20","media/audio/stims/spherical_300cm_s20_c1_cd-1_matched_a10.wav","spherical","20","1","1","matched","10","-20","660"
"echo-presentation","92","396195","0.0-92.0","5f524d871e17bf4c4fe7f146","60201dea606b8d5e5aa9e528","60202266e37c955ac51f7e14","Mozilla/5.0 (Windows NT 10.0; Win64; x64; rv:85.0) Gecko/20100101 Firefox/85.0","v1-up-stims","","","","","","","","-20,-10,0,10,20","media/audio/stims/spherical_300cm_s20_c1_cd-1_matched_a20.wav","spherical","20","1","1","matched","20","-10","717"
"echo-presentation","93","397432","0.0-93.0","5f524d871e17bf4c4fe7f146","60201dea606b8d5e5aa9e528","60202266e37c955ac51f7e14","Mozilla/5.0 (Windows NT 10.0; Win64; x64; rv:85.0) Gecko/20100101 Firefox/85.0","v1-up-stims","","","","","","","","-20,-10,0,10,20","media/audio/stims/spherical_300cm_s20_c1_cd-1_matched_a-20.wav","spherical","20","1","1","matched","-20","-10","678"
"block-bookend","94","398298","0.0-94.0","5f524d871e17bf4c4fe7f146","60201dea606b8d5e5aa9e528","60202266e37c955ac51f7e14","Mozilla/5.0 (Windows NT 10.0; Win64; x64; rv:85.0) Gecko/20100101 Firefox/85.0","v1-up-stims","","","","","","","","","","","","","","","","",""
"block-bookend","95","404386","0.0-95.0","5f524d871e17bf4c4fe7f146","60201dea606b8d5e5aa9e528","60202266e37c955ac51f7e14","Mozilla/5.0 (Windows NT 10.0; Win64; x64; rv:85.0) Gecko/20100101 Firefox/85.0","v1-up-stims","","","","","","","","","","","","","","","","",""
"echo-presentation","96","407542","0.0-96.0","5f524d871e17bf4c4fe7f146","60201dea606b8d5e5aa9e528","60202266e37c955ac51f7e14","Mozilla/5.0 (Windows NT 10.0; Win64; x64; rv:85.0) Gecko/20100101 Firefox/85.0","v1-up-stims","","","","","","","","40,50,60,70,80","media/audio/stims/spherical_300cm_s20_c1_cd-1_matched_a50.wav","spherical","20","1","1","matched","50","50","1518"
"echo-presentation","97","409052","0.0-97.0","5f524d871e17bf4c4fe7f146","60201dea606b8d5e5aa9e528","60202266e37c955ac51f7e14","Mozilla/5.0 (Windows NT 10.0; Win64; x64; rv:85.0) Gecko/20100101 Firefox/85.0","v1-up-stims","","","","","","","","40,50,60,70,80","media/audio/stims/spherical_300cm_s20_c1_cd-1_matched_a80.wav","spherical","20","1","1","matched","80","50","963"
"echo-presentation","98","410208","0.0-98.0","5f524d871e17bf4c4fe7f146","60201dea606b8d5e5aa9e528","60202266e37c955ac51f7e14","Mozilla/5.0 (Windows NT 10.0; Win64; x64; rv:85.0) Gecko/20100101 Firefox/85.0","v1-up-stims","","","","","","","","40,50,60,70,80","media/audio/stims/spherical_300cm_s20_c1_cd-1_matched_a70.wav","spherical","20","1","1","matched","70","60","596"
"echo-presentation","99","411712","0.0-99.0","5f524d871e17bf4c4fe7f146","60201dea606b8d5e5aa9e528","60202266e37c955ac51f7e14","Mozilla/5.0 (Windows NT 10.0; Win64; x64; rv:85.0) Gecko/20100101 Firefox/85.0","v1-up-stims","","","","","","","","40,50,60,70,80","media/audio/stims/spherical_300cm_s20_c1_cd-1_matched_a60.wav","spherical","20","1","1","matched","60","80","899"
"echo-presentation","100","413196","0.0-100.0","5f524d871e17bf4c4fe7f146","60201dea606b8d5e5aa9e528","60202266e37c955ac51f7e14","Mozilla/5.0 (Windows NT 10.0; Win64; x64; rv:85.0) Gecko/20100101 Firefox/85.0","v1-up-stims","","","","","","","","40,50,60,70,80","media/audio/stims/spherical_300cm_s20_c1_cd-1_matched_a50.wav","spherical","20","1","1","matched","50","60","723"
"echo-presentation","101","414751","0.0-101.0","5f524d871e17bf4c4fe7f146","60201dea606b8d5e5aa9e528","60202266e37c955ac51f7e14","Mozilla/5.0 (Windows NT 10.0; Win64; x64; rv:85.0) Gecko/20100101 Firefox/85.0","v1-up-stims","","","","","","","","40,50,60,70,80","media/audio/stims/spherical_300cm_s20_c1_cd-1_matched_a40.wav","spherical","20","1","1","matched","40","60","910"
"echo-presentation","102","416067","0.0-102.0","5f524d871e17bf4c4fe7f146","60201dea606b8d5e5aa9e528","60202266e37c955ac51f7e14","Mozilla/5.0 (Windows NT 10.0; Win64; x64; rv:85.0) Gecko/20100101 Firefox/85.0","v1-up-stims","","","","","","","","40,50,60,70,80","media/audio/stims/spherical_300cm_s20_c1_cd-1_matched_a50.wav","spherical","20","1","1","matched","50","50","626"
"echo-presentation","103","417349","0.0-103.0","5f524d871e17bf4c4fe7f146","60201dea606b8d5e5aa9e528","60202266e37c955ac51f7e14","Mozilla/5.0 (Windows NT 10.0; Win64; x64; rv:85.0) Gecko/20100101 Firefox/85.0","v1-up-stims","","","","","","","","40,50,60,70,80","media/audio/stims/spherical_300cm_s20_c1_cd-1_matched_a80.wav","spherical","20","1","1","matched","80","60","651"
"echo-presentation","104","418763","0.0-104.0","5f524d871e17bf4c4fe7f146","60201dea606b8d5e5aa9e528","60202266e37c955ac51f7e14","Mozilla/5.0 (Windows NT 10.0; Win64; x64; rv:85.0) Gecko/20100101 Firefox/85.0","v1-up-stims","","","","","","","","40,50,60,70,80","media/audio/stims/spherical_300cm_s20_c1_cd-1_matched_a60.wav","spherical","20","1","1","matched","60","50","786"
"echo-presentation","105","419946","0.0-105.0","5f524d871e17bf4c4fe7f146","60201dea606b8d5e5aa9e528","60202266e37c955ac51f7e14","Mozilla/5.0 (Windows NT 10.0; Win64; x64; rv:85.0) Gecko/20100101 Firefox/85.0","v1-up-stims","","","","","","","","40,50,60,70,80","media/audio/stims/spherical_300cm_s20_c1_cd-1_matched_a40.wav","spherical","20","1","1","matched","40","60","630"
"echo-presentation","106","421278","0.0-106.0","5f524d871e17bf4c4fe7f146","60201dea606b8d5e5aa9e528","60202266e37c955ac51f7e14","Mozilla/5.0 (Windows NT 10.0; Win64; x64; rv:85.0) Gecko/20100101 Firefox/85.0","v1-up-stims","","","","","","","","40,50,60,70,80","media/audio/stims/spherical_300cm_s20_c1_cd-1_matched_a70.wav","spherical","20","1","1","matched","70","60","658"
"echo-presentation","107","422653","0.0-107.0","5f524d871e17bf4c4fe7f146","60201dea606b8d5e5aa9e528","60202266e37c955ac51f7e14","Mozilla/5.0 (Windows NT 10.0; Win64; x64; rv:85.0) Gecko/20100101 Firefox/85.0","v1-up-stims","","","","","","","","40,50,60,70,80","media/audio/stims/spherical_300cm_s20_c1_cd-1_matched_a70.wav","spherical","20","1","1","matched","70","60","714"
"echo-presentation","108","423942","0.0-108.0","5f524d871e17bf4c4fe7f146","60201dea606b8d5e5aa9e528","60202266e37c955ac51f7e14","Mozilla/5.0 (Windows NT 10.0; Win64; x64; rv:85.0) Gecko/20100101 Firefox/85.0","v1-up-stims","","","","","","","","40,50,60,70,80","media/audio/stims/spherical_300cm_s20_c1_cd-1_matched_a80.wav","spherical","20","1","1","matched","80","50","673"
"echo-presentation","109","425138","0.0-109.0","5f524d871e17bf4c4fe7f146","60201dea606b8d5e5aa9e528","60202266e37c955ac51f7e14","Mozilla/5.0 (Windows NT 10.0; Win64; x64; rv:85.0) Gecko/20100101 Firefox/85.0","v1-up-stims","","","","","","","","40,50,60,70,80","media/audio/stims/spherical_300cm_s20_c1_cd-1_matched_a40.wav","spherical","20","1","1","matched","40","60","588"
"echo-presentation","110","426334","0.0-110.0","5f524d871e17bf4c4fe7f146","60201dea606b8d5e5aa9e528","60202266e37c955ac51f7e14","Mozilla/5.0 (Windows NT 10.0; Win64; x64; rv:85.0) Gecko/20100101 Firefox/85.0","v1-up-stims","","","","","","","","40,50,60,70,80","media/audio/stims/spherical_300cm_s20_c1_cd-1_matched_a60.wav","spherical","20","1","1","matched","60","60","617"
"echo-presentation","111","427596","0.0-111.0","5f524d871e17bf4c4fe7f146","60201dea606b8d5e5aa9e528","60202266e37c955ac51f7e14","Mozilla/5.0 (Windows NT 10.0; Win64; x64; rv:85.0) Gecko/20100101 Firefox/85.0","v1-up-stims","","","","","","","","40,50,60,70,80","media/audio/stims/spherical_300cm_s20_c1_cd-1_matched_a70.wav","spherical","20","1","1","matched","70","70","682"
"echo-presentation","112","428821","0.0-112.0","5f524d871e17bf4c4fe7f146","60201dea606b8d5e5aa9e528","60202266e37c955ac51f7e14","Mozilla/5.0 (Windows NT 10.0; Win64; x64; rv:85.0) Gecko/20100101 Firefox/85.0","v1-up-stims","","","","","","","","40,50,60,70,80","media/audio/stims/spherical_300cm_s20_c1_cd-1_matched_a40.wav","spherical","20","1","1","matched","40","70","668"
"echo-presentation","113","430125","0.0-113.0","5f524d871e17bf4c4fe7f146","60201dea606b8d5e5aa9e528","60202266e37c955ac51f7e14","Mozilla/5.0 (Windows NT 10.0; Win64; x64; rv:85.0) Gecko/20100101 Firefox/85.0","v1-up-stims","","","","","","","","40,50,60,70,80","media/audio/stims/spherical_300cm_s20_c1_cd-1_matched_a80.wav","spherical","20","1","1","matched","80","80","700"
"echo-presentation","114","431449","0.0-114.0","5f524d871e17bf4c4fe7f146","60201dea606b8d5e5aa9e528","60202266e37c955ac51f7e14","Mozilla/5.0 (Windows NT 10.0; Win64; x64; rv:85.0) Gecko/20100101 Firefox/85.0","v1-up-stims","","","","","","","","40,50,60,70,80","media/audio/stims/spherical_300cm_s20_c1_cd-1_matched_a50.wav","spherical","20","1","1","matched","50","80","724"
"echo-presentation","115","432764","0.0-115.0","5f524d871e17bf4c4fe7f146","60201dea606b8d5e5aa9e528","60202266e37c955ac51f7e14","Mozilla/5.0 (Windows NT 10.0; Win64; x64; rv:85.0) Gecko/20100101 Firefox/85.0","v1-up-stims","","","","","","","","40,50,60,70,80","media/audio/stims/spherical_300cm_s20_c1_cd-1_matched_a60.wav","spherical","20","1","1","matched","60","80","647"
"block-bookend","116","433552","0.0-116.0","5f524d871e17bf4c4fe7f146","60201dea606b8d5e5aa9e528","60202266e37c955ac51f7e14","Mozilla/5.0 (Windows NT 10.0; Win64; x64; rv:85.0) Gecko/20100101 Firefox/85.0","v1-up-stims","","","","","","","","","","","","","","","","",""
"block-bookend","117","441711","0.0-117.0","5f524d871e17bf4c4fe7f146","60201dea606b8d5e5aa9e528","60202266e37c955ac51f7e14","Mozilla/5.0 (Windows NT 10.0; Win64; x64; rv:85.0) Gecko/20100101 Firefox/85.0","v1-up-stims","","","","","","","","","","","","","","","","",""
"echo-presentation","118","443110","0.0-118.0","5f524d871e17bf4c4fe7f146","60201dea606b8d5e5aa9e528","60202266e37c955ac51f7e14","Mozilla/5.0 (Windows NT 10.0; Win64; x64; rv:85.0) Gecko/20100101 Firefox/85.0","v1-up-stims","","","","","","","","40,50,60,70,80","media/audio/stims/spherical_300cm_s20_c1_cd-1_matched_a40.wav","spherical","20","1","1","matched","40","70","652"
"echo-presentation","119","444426","0.0-119.0","5f524d871e17bf4c4fe7f146","60201dea606b8d5e5aa9e528","60202266e37c955ac51f7e14","Mozilla/5.0 (Windows NT 10.0; Win64; x64; rv:85.0) Gecko/20100101 Firefox/85.0","v1-up-stims","","","","","","","","40,50,60,70,80","media/audio/stims/spherical_300cm_s20_c1_cd-1_matched_a70.wav","spherical","20","1","1","matched","70","50","594"
"echo-presentation","120","445781","0.0-120.0","5f524d871e17bf4c4fe7f146","60201dea606b8d5e5aa9e528","60202266e37c955ac51f7e14","Mozilla/5.0 (Windows NT 10.0; Win64; x64; rv:85.0) Gecko/20100101 Firefox/85.0","v1-up-stims","","","","","","","","40,50,60,70,80","media/audio/stims/spherical_300cm_s20_c1_cd-1_matched_a80.wav","spherical","20","1","1","matched","80","70","756"
"echo-presentation","121","446980","0.0-121.0","5f524d871e17bf4c4fe7f146","60201dea606b8d5e5aa9e528","60202266e37c955ac51f7e14","Mozilla/5.0 (Windows NT 10.0; Win64; x64; rv:85.0) Gecko/20100101 Firefox/85.0","v1-up-stims","","","","","","","","40,50,60,70,80","media/audio/stims/spherical_300cm_s20_c1_cd-1_matched_a50.wav","spherical","20","1","1","matched","50","50","618"
"echo-presentation","122","448185","0.0-122.0","5f524d871e17bf4c4fe7f146","60201dea606b8d5e5aa9e528","60202266e37c955ac51f7e14","Mozilla/5.0 (Windows NT 10.0; Win64; x64; rv:85.0) Gecko/20100101 Firefox/85.0","v1-up-stims","","","","","","","","40,50,60,70,80","media/audio/stims/spherical_300cm_s20_c1_cd-1_matched_a60.wav","spherical","20","1","1","matched","60","40","686"
"echo-presentation","123","449358","0.0-123.0","5f524d871e17bf4c4fe7f146","60201dea606b8d5e5aa9e528","60202266e37c955ac51f7e14","Mozilla/5.0 (Windows NT 10.0; Win64; x64; rv:85.0) Gecko/20100101 Firefox/85.0","v1-up-stims","","","","","","","","40,50,60,70,80","media/audio/stims/spherical_300cm_s20_c1_cd-1_matched_a70.wav","spherical","20","1","1","matched","70","60","643"
"echo-presentation","124","450579","0.0-124.0","5f524d871e17bf4c4fe7f146","60201dea606b8d5e5aa9e528","60202266e37c955ac51f7e14","Mozilla/5.0 (Windows NT 10.0; Win64; x64; rv:85.0) Gecko/20100101 Firefox/85.0","v1-up-stims","","","","","","","","40,50,60,70,80","media/audio/stims/spherical_300cm_s20_c1_cd-1_matched_a70.wav","spherical","20","1","1","matched","70","70","648"
"echo-presentation","125","451811","0.0-125.0","5f524d871e17bf4c4fe7f146","60201dea606b8d5e5aa9e528","60202266e37c955ac51f7e14","Mozilla/5.0 (Windows NT 10.0; Win64; x64; rv:85.0) Gecko/20100101 Firefox/85.0","v1-up-stims","","","","","","","","40,50,60,70,80","media/audio/stims/spherical_300cm_s20_c1_cd-1_matched_a40.wav","spherical","20","1","1","matched","40","50","639"
"echo-presentation","126","452968","0.0-126.0","5f524d871e17bf4c4fe7f146","60201dea606b8d5e5aa9e528","60202266e37c955ac51f7e14","Mozilla/5.0 (Windows NT 10.0; Win64; x64; rv:85.0) Gecko/20100101 Firefox/85.0","v1-up-stims","","","","","","","","40,50,60,70,80","media/audio/stims/spherical_300cm_s20_c1_cd-1_matched_a50.wav","spherical","20","1","1","matched","50","60","586"
"echo-presentation","127","454119","0.0-127.0","5f524d871e17bf4c4fe7f146","60201dea606b8d5e5aa9e528","60202266e37c955ac51f7e14","Mozilla/5.0 (Windows NT 10.0; Win64; x64; rv:85.0) Gecko/20100101 Firefox/85.0","v1-up-stims","","","","","","","","40,50,60,70,80","media/audio/stims/spherical_300cm_s20_c1_cd-1_matched_a70.wav","spherical","20","1","1","matched","70","60","591"
"echo-presentation","128","455256","0.0-128.0","5f524d871e17bf4c4fe7f146","60201dea606b8d5e5aa9e528","60202266e37c955ac51f7e14","Mozilla/5.0 (Windows NT 10.0; Win64; x64; rv:85.0) Gecko/20100101 Firefox/85.0","v1-up-stims","","","","","","","","40,50,60,70,80","media/audio/stims/spherical_300cm_s20_c1_cd-1_matched_a60.wav","spherical","20","1","1","matched","60","50","593"
"echo-presentation","129","456505","0.0-129.0","5f524d871e17bf4c4fe7f146","60201dea606b8d5e5aa9e528","60202266e37c955ac51f7e14","Mozilla/5.0 (Windows NT 10.0; Win64; x64; rv:85.0) Gecko/20100101 Firefox/85.0","v1-up-stims","","","","","","","","40,50,60,70,80","media/audio/stims/spherical_300cm_s20_c1_cd-1_matched_a60.wav","spherical","20","1","1","matched","60","60","683"
"echo-presentation","130","457804","0.0-130.0","5f524d871e17bf4c4fe7f146","60201dea606b8d5e5aa9e528","60202266e37c955ac51f7e14","Mozilla/5.0 (Windows NT 10.0; Win64; x64; rv:85.0) Gecko/20100101 Firefox/85.0","v1-up-stims","","","","","","","","40,50,60,70,80","media/audio/stims/spherical_300cm_s20_c1_cd-1_matched_a40.wav","spherical","20","1","1","matched","40","50","767"
"echo-presentation","131","459051","0.0-131.0","5f524d871e17bf4c4fe7f146","60201dea606b8d5e5aa9e528","60202266e37c955ac51f7e14","Mozilla/5.0 (Windows NT 10.0; Win64; x64; rv:85.0) Gecko/20100101 Firefox/85.0","v1-up-stims","","","","","","","","40,50,60,70,80","media/audio/stims/spherical_300cm_s20_c1_cd-1_matched_a50.wav","spherical","20","1","1","matched","50","60","718"
"echo-presentation","132","460212","0.0-132.0","5f524d871e17bf4c4fe7f146","60201dea606b8d5e5aa9e528","60202266e37c955ac51f7e14","Mozilla/5.0 (Windows NT 10.0; Win64; x64; rv:85.0) Gecko/20100101 Firefox/85.0","v1-up-stims","","","","","","","","40,50,60,70,80","media/audio/stims/spherical_300cm_s20_c1_cd-1_matched_a60.wav","spherical","20","1","1","matched","60","50","587"
"echo-presentation","133","461434","0.0-133.0","5f524d871e17bf4c4fe7f146","60201dea606b8d5e5aa9e528","60202266e37c955ac51f7e14","Mozilla/5.0 (Windows NT 10.0; Win64; x64; rv:85.0) Gecko/20100101 Firefox/85.0","v1-up-stims","","","","","","","","40,50,60,70,80","media/audio/stims/spherical_300cm_s20_c1_cd-1_matched_a80.wav","spherical","20","1","1","matched","80","40","648"
"echo-presentation","134","462667","0.0-134.0","5f524d871e17bf4c4fe7f146","60201dea606b8d5e5aa9e528","60202266e37c955ac51f7e14","Mozilla/5.0 (Windows NT 10.0; Win64; x64; rv:85.0) Gecko/20100101 Firefox/85.0","v1-up-stims","","","","","","","","40,50,60,70,80","media/audio/stims/spherical_300cm_s20_c1_cd-1_matched_a80.wav","spherical","20","1","1","matched","80","50","724"
"echo-presentation","135","463865","0.0-135.0","5f524d871e17bf4c4fe7f146","60201dea606b8d5e5aa9e528","60202266e37c955ac51f7e14","Mozilla/5.0 (Windows NT 10.0; Win64; x64; rv:85.0) Gecko/20100101 Firefox/85.0","v1-up-stims","","","","","","","","40,50,60,70,80","media/audio/stims/spherical_300cm_s20_c1_cd-1_matched_a50.wav","spherical","20","1","1","matched","50","60","684"
"echo-presentation","136","465172","0.0-136.0","5f524d871e17bf4c4fe7f146","60201dea606b8d5e5aa9e528","60202266e37c955ac51f7e14","Mozilla/5.0 (Windows NT 10.0; Win64; x64; rv:85.0) Gecko/20100101 Firefox/85.0","v1-up-stims","","","","","","","","40,50,60,70,80","media/audio/stims/spherical_300cm_s20_c1_cd-1_matched_a80.wav","spherical","20","1","1","matched","80","60","762"
"echo-presentation","137","467602","0.0-137.0","5f524d871e17bf4c4fe7f146","60201dea606b8d5e5aa9e528","60202266e37c955ac51f7e14","Mozilla/5.0 (Windows NT 10.0; Win64; x64; rv:85.0) Gecko/20100101 Firefox/85.0","v1-up-stims","","","","","","","","40,50,60,70,80","media/audio/stims/spherical_300cm_s20_c1_cd-1_matched_a40.wav","spherical","20","1","1","matched","40","40","1870"
"block-bookend","138","468263","0.0-138.0","5f524d871e17bf4c4fe7f146","60201dea606b8d5e5aa9e528","60202266e37c955ac51f7e14","Mozilla/5.0 (Windows NT 10.0; Win64; x64; rv:85.0) Gecko/20100101 Firefox/85.0","v1-up-stims","","","","","","","","","","","","","","","","",""
