"trial_type","trial_index","time_elapsed","internal_node_id","prolificPid","studyId","sessionId","userAgent","version","rt","stimulus","key_press","chosenKeyset","failureCount","testIndex","globalVolume","choices","filename","modelName","slowdown","compensation","compensationDescriptor","receiverOrientationType","azimuth","responseAzimuth","responseDelay"
"pavlovia","0","3","0.0-0.0","5eea402f14742d0999b3410e","60201dea606b8d5e5aa9e528","60201ebc4bbde55dccc7fd57","Mozilla/5.0 (Windows NT 10.0; Win64; x64) AppleWebKit/537.36 (KHTML, like Gecko) Chrome/87.0.4280.141 Safari/537.36 OPR/73.0.3856.344","v1-up-stims","","","","","","","","","","","","","","","","",""
"html-keyboard-response","1","7150","0.0-1.0","5eea402f14742d0999b3410e","60201dea606b8d5e5aa9e528","60201ebc4bbde55dccc7fd57","Mozilla/5.0 (Windows NT 10.0; Win64; x64) AppleWebKit/537.36 (KHTML, like Gecko) Chrome/87.0.4280.141 Safari/537.36 OPR/73.0.3856.344","v1-up-stims","7146.475000074133","<div><h1>Welcome!</h1><p>Press any key to continue.</p></div>","220","","","","","","","","","","","","","",""
"consent-form","2","19482","0.0-2.0","5eea402f14742d0999b3410e","60201dea606b8d5e5aa9e528","60201ebc4bbde55dccc7fd57","Mozilla/5.0 (Windows NT 10.0; Win64; x64) AppleWebKit/537.36 (KHTML, like Gecko) Chrome/87.0.4280.141 Safari/537.36 OPR/73.0.3856.344","v1-up-stims","","","","","","","","","","","","","","","","",""
"keyset-select","3","39429","0.0-3.0","5eea402f14742d0999b3410e","60201dea606b8d5e5aa9e528","60201ebc4bbde55dccc7fd57","Mozilla/5.0 (Windows NT 10.0; Win64; x64) AppleWebKit/537.36 (KHTML, like Gecko) Chrome/87.0.4280.141 Safari/537.36 OPR/73.0.3856.344","v1-up-stims","","","","left-hand","","","","","","","","","","","","",""
"headphone-check","4","80337","0.0-4.0","5eea402f14742d0999b3410e","60201dea606b8d5e5aa9e528","60201ebc4bbde55dccc7fd57","Mozilla/5.0 (Windows NT 10.0; Win64; x64) AppleWebKit/537.36 (KHTML, like Gecko) Chrome/87.0.4280.141 Safari/537.36 OPR/73.0.3856.344","v1-up-stims","","","","","1","6","0.3","","","","","","","","","",""
"headphone-backwards-check","5","88320","0.0-5.0","5eea402f14742d0999b3410e","60201dea606b8d5e5aa9e528","60201ebc4bbde55dccc7fd57","Mozilla/5.0 (Windows NT 10.0; Win64; x64) AppleWebKit/537.36 (KHTML, like Gecko) Chrome/87.0.4280.141 Safari/537.36 OPR/73.0.3856.344","v1-up-stims","","","","","0","","","","","","","","","","","",""
"training","6","149342","0.0-6.0","5eea402f14742d0999b3410e","60201dea606b8d5e5aa9e528","60201ebc4bbde55dccc7fd57","Mozilla/5.0 (Windows NT 10.0; Win64; x64) AppleWebKit/537.36 (KHTML, like Gecko) Chrome/87.0.4280.141 Safari/537.36 OPR/73.0.3856.344","v1-up-stims","","","","","","","","","","","","","","","","",""
"block-bookend","7","156081","0.0-7.0","5eea402f14742d0999b3410e","60201dea606b8d5e5aa9e528","60201ebc4bbde55dccc7fd57","Mozilla/5.0 (Windows NT 10.0; Win64; x64) AppleWebKit/537.36 (KHTML, like Gecko) Chrome/87.0.4280.141 Safari/537.36 OPR/73.0.3856.344","v1-up-stims","","","","","","","","","","","","","","","","",""
"echo-presentation","8","162978","0.0-8.0","5eea402f14742d0999b3410e","60201dea606b8d5e5aa9e528","60201ebc4bbde55dccc7fd57","Mozilla/5.0 (Windows NT 10.0; Win64; x64) AppleWebKit/537.36 (KHTML, like Gecko) Chrome/87.0.4280.141 Safari/537.36 OPR/73.0.3856.344","v1-up-stims","","","","","","","","-20,-10,0,10,20","media/audio/stims/spherical_300cm_s20_c1_cd-1_matched_a0.wav","spherical","20","1","1","matched","0","0","4530"
"echo-presentation","9","173523","0.0-9.0","5eea402f14742d0999b3410e","60201dea606b8d5e5aa9e528","60201ebc4bbde55dccc7fd57","Mozilla/5.0 (Windows NT 10.0; Win64; x64) AppleWebKit/537.36 (KHTML, like Gecko) Chrome/87.0.4280.141 Safari/537.36 OPR/73.0.3856.344","v1-up-stims","","","","","","","","-20,-10,0,10,20","media/audio/stims/spherical_300cm_s20_c1_cd-1_matched_a20.wav","spherical","20","1","1","matched","20","0","9252"
"echo-presentation","10","177652","0.0-10.0","5eea402f14742d0999b3410e","60201dea606b8d5e5aa9e528","60201ebc4bbde55dccc7fd57","Mozilla/5.0 (Windows NT 10.0; Win64; x64) AppleWebKit/537.36 (KHTML, like Gecko) Chrome/87.0.4280.141 Safari/537.36 OPR/73.0.3856.344","v1-up-stims","","","","","","","","-20,-10,0,10,20","media/audio/stims/spherical_300cm_s20_c1_cd-1_matched_a20.wav","spherical","20","1","1","matched","20","10","2772"
"echo-presentation","11","182693","0.0-11.0","5eea402f14742d0999b3410e","60201dea606b8d5e5aa9e528","60201ebc4bbde55dccc7fd57","Mozilla/5.0 (Windows NT 10.0; Win64; x64) AppleWebKit/537.36 (KHTML, like Gecko) Chrome/87.0.4280.141 Safari/537.36 OPR/73.0.3856.344","v1-up-stims","","","","","","","","-20,-10,0,10,20","media/audio/stims/spherical_300cm_s20_c1_cd-1_matched_a-20.wav","spherical","20","1","1","matched","-20","10","3848"
"echo-presentation","12","186140","0.0-12.0","5eea402f14742d0999b3410e","60201dea606b8d5e5aa9e528","60201ebc4bbde55dccc7fd57","Mozilla/5.0 (Windows NT 10.0; Win64; x64) AppleWebKit/537.36 (KHTML, like Gecko) Chrome/87.0.4280.141 Safari/537.36 OPR/73.0.3856.344","v1-up-stims","","","","","","","","-20,-10,0,10,20","media/audio/stims/spherical_300cm_s20_c1_cd-1_matched_a0.wav","spherical","20","1","1","matched","0","0","2228"
"echo-presentation","13","188691","0.0-13.0","5eea402f14742d0999b3410e","60201dea606b8d5e5aa9e528","60201ebc4bbde55dccc7fd57","Mozilla/5.0 (Windows NT 10.0; Win64; x64) AppleWebKit/537.36 (KHTML, like Gecko) Chrome/87.0.4280.141 Safari/537.36 OPR/73.0.3856.344","v1-up-stims","","","","","","","","-20,-10,0,10,20","media/audio/stims/spherical_300cm_s20_c1_cd-1_matched_a0.wav","spherical","20","1","1","matched","0","0","1434"
"echo-presentation","14","191759","0.0-14.0","5eea402f14742d0999b3410e","60201dea606b8d5e5aa9e528","60201ebc4bbde55dccc7fd57","Mozilla/5.0 (Windows NT 10.0; Win64; x64) AppleWebKit/537.36 (KHTML, like Gecko) Chrome/87.0.4280.141 Safari/537.36 OPR/73.0.3856.344","v1-up-stims","","","","","","","","-20,-10,0,10,20","media/audio/stims/spherical_300cm_s20_c1_cd-1_matched_a-10.wav","spherical","20","1","1","matched","-10","-10","2023"
"echo-presentation","15","194368","0.0-15.0","5eea402f14742d0999b3410e","60201dea606b8d5e5aa9e528","60201ebc4bbde55dccc7fd57","Mozilla/5.0 (Windows NT 10.0; Win64; x64) AppleWebKit/537.36 (KHTML, like Gecko) Chrome/87.0.4280.141 Safari/537.36 OPR/73.0.3856.344","v1-up-stims","","","","","","","","-20,-10,0,10,20","media/audio/stims/spherical_300cm_s20_c1_cd-1_matched_a-10.wav","spherical","20","1","1","matched","-10","-10","1541"
"echo-presentation","16","196791","0.0-16.0","5eea402f14742d0999b3410e","60201dea606b8d5e5aa9e528","60201ebc4bbde55dccc7fd57","Mozilla/5.0 (Windows NT 10.0; Win64; x64) AppleWebKit/537.36 (KHTML, like Gecko) Chrome/87.0.4280.141 Safari/537.36 OPR/73.0.3856.344","v1-up-stims","","","","","","","","-20,-10,0,10,20","media/audio/stims/spherical_300cm_s20_c1_cd-1_matched_a10.wav","spherical","20","1","1","matched","10","10","1511"
"echo-presentation","17","199257","0.0-17.0","5eea402f14742d0999b3410e","60201dea606b8d5e5aa9e528","60201ebc4bbde55dccc7fd57","Mozilla/5.0 (Windows NT 10.0; Win64; x64) AppleWebKit/537.36 (KHTML, like Gecko) Chrome/87.0.4280.141 Safari/537.36 OPR/73.0.3856.344","v1-up-stims","","","","","","","","-20,-10,0,10,20","media/audio/stims/spherical_300cm_s20_c1_cd-1_matched_a-10.wav","spherical","20","1","1","matched","-10","-10","1511"
"echo-presentation","18","201696","0.0-18.0","5eea402f14742d0999b3410e","60201dea606b8d5e5aa9e528","60201ebc4bbde55dccc7fd57","Mozilla/5.0 (Windows NT 10.0; Win64; x64) AppleWebKit/537.36 (KHTML, like Gecko) Chrome/87.0.4280.141 Safari/537.36 OPR/73.0.3856.344","v1-up-stims","","","","","","","","-20,-10,0,10,20","media/audio/stims/spherical_300cm_s20_c1_cd-1_matched_a20.wav","spherical","20","1","1","matched","20","10","1480"
"echo-presentation","19","204679","0.0-19.0","5eea402f14742d0999b3410e","60201dea606b8d5e5aa9e528","60201ebc4bbde55dccc7fd57","Mozilla/5.0 (Windows NT 10.0; Win64; x64) AppleWebKit/537.36 (KHTML, like Gecko) Chrome/87.0.4280.141 Safari/537.36 OPR/73.0.3856.344","v1-up-stims","","","","","","","","-20,-10,0,10,20","media/audio/stims/spherical_300cm_s20_c1_cd-1_matched_a0.wav","spherical","20","1","1","matched","0","0","2038"
"echo-presentation","20","207107","0.0-20.0","5eea402f14742d0999b3410e","60201dea606b8d5e5aa9e528","60201ebc4bbde55dccc7fd57","Mozilla/5.0 (Windows NT 10.0; Win64; x64) AppleWebKit/537.36 (KHTML, like Gecko) Chrome/87.0.4280.141 Safari/537.36 OPR/73.0.3856.344","v1-up-stims","","","","","","","","-20,-10,0,10,20","media/audio/stims/spherical_300cm_s20_c1_cd-1_matched_a-20.wav","spherical","20","1","1","matched","-20","0","1503"
"echo-presentation","21","209824","0.0-21.0","5eea402f14742d0999b3410e","60201dea606b8d5e5aa9e528","60201ebc4bbde55dccc7fd57","Mozilla/5.0 (Windows NT 10.0; Win64; x64) AppleWebKit/537.36 (KHTML, like Gecko) Chrome/87.0.4280.141 Safari/537.36 OPR/73.0.3856.344","v1-up-stims","","","","","","","","-20,-10,0,10,20","media/audio/stims/spherical_300cm_s20_c1_cd-1_matched_a-20.wav","spherical","20","1","1","matched","-20","0","1595"
"echo-presentation","22","212089","0.0-22.0","5eea402f14742d0999b3410e","60201dea606b8d5e5aa9e528","60201ebc4bbde55dccc7fd57","Mozilla/5.0 (Windows NT 10.0; Win64; x64) AppleWebKit/537.36 (KHTML, like Gecko) Chrome/87.0.4280.141 Safari/537.36 OPR/73.0.3856.344","v1-up-stims","","","","","","","","-20,-10,0,10,20","media/audio/stims/spherical_300cm_s20_c1_cd-1_matched_a10.wav","spherical","20","1","1","matched","10","10","1183"
"echo-presentation","23","215003","0.0-23.0","5eea402f14742d0999b3410e","60201dea606b8d5e5aa9e528","60201ebc4bbde55dccc7fd57","Mozilla/5.0 (Windows NT 10.0; Win64; x64) AppleWebKit/537.36 (KHTML, like Gecko) Chrome/87.0.4280.141 Safari/537.36 OPR/73.0.3856.344","v1-up-stims","","","","","","","","-20,-10,0,10,20","media/audio/stims/spherical_300cm_s20_c1_cd-1_matched_a10.wav","spherical","20","1","1","matched","10","20","1749"
"echo-presentation","24","218167","0.0-24.0","5eea402f14742d0999b3410e","60201dea606b8d5e5aa9e528","60201ebc4bbde55dccc7fd57","Mozilla/5.0 (Windows NT 10.0; Win64; x64) AppleWebKit/537.36 (KHTML, like Gecko) Chrome/87.0.4280.141 Safari/537.36 OPR/73.0.3856.344","v1-up-stims","","","","","","","","-20,-10,0,10,20","media/audio/stims/spherical_300cm_s20_c1_cd-1_matched_a-20.wav","spherical","20","1","1","matched","-20","0","1764"
"echo-presentation","25","221935","0.0-25.0","5eea402f14742d0999b3410e","60201dea606b8d5e5aa9e528","60201ebc4bbde55dccc7fd57","Mozilla/5.0 (Windows NT 10.0; Win64; x64) AppleWebKit/537.36 (KHTML, like Gecko) Chrome/87.0.4280.141 Safari/537.36 OPR/73.0.3856.344","v1-up-stims","","","","","","","","-20,-10,0,10,20","media/audio/stims/spherical_300cm_s20_c1_cd-1_matched_a10.wav","spherical","20","1","1","matched","10","10","2810"
"echo-presentation","26","229226","0.0-26.0","5eea402f14742d0999b3410e","60201dea606b8d5e5aa9e528","60201ebc4bbde55dccc7fd57","Mozilla/5.0 (Windows NT 10.0; Win64; x64) AppleWebKit/537.36 (KHTML, like Gecko) Chrome/87.0.4280.141 Safari/537.36 OPR/73.0.3856.344","v1-up-stims","","","","","","","","-20,-10,0,10,20","media/audio/stims/spherical_300cm_s20_c1_cd-1_matched_a-10.wav","spherical","20","1","1","matched","-10","-10","1633"
"echo-presentation","27","231499","0.0-27.0","5eea402f14742d0999b3410e","60201dea606b8d5e5aa9e528","60201ebc4bbde55dccc7fd57","Mozilla/5.0 (Windows NT 10.0; Win64; x64) AppleWebKit/537.36 (KHTML, like Gecko) Chrome/87.0.4280.141 Safari/537.36 OPR/73.0.3856.344","v1-up-stims","","","","","","","","-20,-10,0,10,20","media/audio/stims/spherical_300cm_s20_c1_cd-1_matched_a20.wav","spherical","20","1","1","matched","20","10","1358"
"block-bookend","28","233401","0.0-28.0","5eea402f14742d0999b3410e","60201dea606b8d5e5aa9e528","60201ebc4bbde55dccc7fd57","Mozilla/5.0 (Windows NT 10.0; Win64; x64) AppleWebKit/537.36 (KHTML, like Gecko) Chrome/87.0.4280.141 Safari/537.36 OPR/73.0.3856.344","v1-up-stims","","","","","","","","","","","","","","","","",""
"block-bookend","29","239255","0.0-29.0","5eea402f14742d0999b3410e","60201dea606b8d5e5aa9e528","60201ebc4bbde55dccc7fd57","Mozilla/5.0 (Windows NT 10.0; Win64; x64) AppleWebKit/537.36 (KHTML, like Gecko) Chrome/87.0.4280.141 Safari/537.36 OPR/73.0.3856.344","v1-up-stims","","","","","","","","","","","","","","","","",""
"echo-presentation","30","243383","0.0-30.0","5eea402f14742d0999b3410e","60201dea606b8d5e5aa9e528","60201ebc4bbde55dccc7fd57","Mozilla/5.0 (Windows NT 10.0; Win64; x64) AppleWebKit/537.36 (KHTML, like Gecko) Chrome/87.0.4280.141 Safari/537.36 OPR/73.0.3856.344","v1-up-stims","","","","","","","","-20,-10,0,10,20","media/audio/stims/spherical_300cm_s20_c1_cd-1_matched_a0.wav","spherical","20","1","1","matched","0","10","2390"
"echo-presentation","31","245856","0.0-31.0","5eea402f14742d0999b3410e","60201dea606b8d5e5aa9e528","60201ebc4bbde55dccc7fd57","Mozilla/5.0 (Windows NT 10.0; Win64; x64) AppleWebKit/537.36 (KHTML, like Gecko) Chrome/87.0.4280.141 Safari/537.36 OPR/73.0.3856.344","v1-up-stims","","","","","","","","-20,-10,0,10,20","media/audio/stims/spherical_300cm_s20_c1_cd-1_matched_a10.wav","spherical","20","1","1","matched","10","20","1489"
"echo-presentation","32","248535","0.0-32.0","5eea402f14742d0999b3410e","60201dea606b8d5e5aa9e528","60201ebc4bbde55dccc7fd57","Mozilla/5.0 (Windows NT 10.0; Win64; x64) AppleWebKit/537.36 (KHTML, like Gecko) Chrome/87.0.4280.141 Safari/537.36 OPR/73.0.3856.344","v1-up-stims","","","","","","","","-20,-10,0,10,20","media/audio/stims/spherical_300cm_s20_c1_cd-1_matched_a-10.wav","spherical","20","1","1","matched","-10","-10","1480"
"echo-presentation","33","250820","0.0-33.0","5eea402f14742d0999b3410e","60201dea606b8d5e5aa9e528","60201ebc4bbde55dccc7fd57","Mozilla/5.0 (Windows NT 10.0; Win64; x64) AppleWebKit/537.36 (KHTML, like Gecko) Chrome/87.0.4280.141 Safari/537.36 OPR/73.0.3856.344","v1-up-stims","","","","","","","","-20,-10,0,10,20","media/audio/stims/spherical_300cm_s20_c1_cd-1_matched_a20.wav","spherical","20","1","1","matched","20","10","1351"
"echo-presentation","34","252854","0.0-34.0","5eea402f14742d0999b3410e","60201dea606b8d5e5aa9e528","60201ebc4bbde55dccc7fd57","Mozilla/5.0 (Windows NT 10.0; Win64; x64) AppleWebKit/537.36 (KHTML, like Gecko) Chrome/87.0.4280.141 Safari/537.36 OPR/73.0.3856.344","v1-up-stims","","","","","","","","-20,-10,0,10,20","media/audio/stims/spherical_300cm_s20_c1_cd-1_matched_a10.wav","spherical","20","1","1","matched","10","20","1144"
"echo-presentation","35","255526","0.0-35.0","5eea402f14742d0999b3410e","60201dea606b8d5e5aa9e528","60201ebc4bbde55dccc7fd57","Mozilla/5.0 (Windows NT 10.0; Win64; x64) AppleWebKit/537.36 (KHTML, like Gecko) Chrome/87.0.4280.141 Safari/537.36 OPR/73.0.3856.344","v1-up-stims","","","","","","","","-20,-10,0,10,20","media/audio/stims/spherical_300cm_s20_c1_cd-1_matched_a0.wav","spherical","20","1","1","matched","0","10","1703"
"echo-presentation","36","258002","0.0-36.0","5eea402f14742d0999b3410e","60201dea606b8d5e5aa9e528","60201ebc4bbde55dccc7fd57","Mozilla/5.0 (Windows NT 10.0; Win64; x64) AppleWebKit/537.36 (KHTML, like Gecko) Chrome/87.0.4280.141 Safari/537.36 OPR/73.0.3856.344","v1-up-stims","","","","","","","","-20,-10,0,10,20","media/audio/stims/spherical_300cm_s20_c1_cd-1_matched_a0.wav","spherical","20","1","1","matched","0","20","1579"
"echo-presentation","37","260425","0.0-37.0","5eea402f14742d0999b3410e","60201dea606b8d5e5aa9e528","60201ebc4bbde55dccc7fd57","Mozilla/5.0 (Windows NT 10.0; Win64; x64) AppleWebKit/537.36 (KHTML, like Gecko) Chrome/87.0.4280.141 Safari/537.36 OPR/73.0.3856.344","v1-up-stims","","","","","","","","-20,-10,0,10,20","media/audio/stims/spherical_300cm_s20_c1_cd-1_matched_a20.wav","spherical","20","1","1","matched","20","20","1220"
"echo-presentation","38","262492","0.0-38.0","5eea402f14742d0999b3410e","60201dea606b8d5e5aa9e528","60201ebc4bbde55dccc7fd57","Mozilla/5.0 (Windows NT 10.0; Win64; x64) AppleWebKit/537.36 (KHTML, like Gecko) Chrome/87.0.4280.141 Safari/537.36 OPR/73.0.3856.344","v1-up-stims","","","","","","","","-20,-10,0,10,20","media/audio/stims/spherical_300cm_s20_c1_cd-1_matched_a10.wav","spherical","20","1","1","matched","10","20","1166"
"echo-presentation","39","265485","0.0-39.0","5eea402f14742d0999b3410e","60201dea606b8d5e5aa9e528","60201ebc4bbde55dccc7fd57","Mozilla/5.0 (Windows NT 10.0; Win64; x64) AppleWebKit/537.36 (KHTML, like Gecko) Chrome/87.0.4280.141 Safari/537.36 OPR/73.0.3856.344","v1-up-stims","","","","","","","","-20,-10,0,10,20","media/audio/stims/spherical_300cm_s20_c1_cd-1_matched_a-20.wav","spherical","20","1","1","matched","-20","20","2184"
"echo-presentation","40","267953","0.0-40.0","5eea402f14742d0999b3410e","60201dea606b8d5e5aa9e528","60201ebc4bbde55dccc7fd57","Mozilla/5.0 (Windows NT 10.0; Win64; x64) AppleWebKit/537.36 (KHTML, like Gecko) Chrome/87.0.4280.141 Safari/537.36 OPR/73.0.3856.344","v1-up-stims","","","","","","","","-20,-10,0,10,20","media/audio/stims/spherical_300cm_s20_c1_cd-1_matched_a0.wav","spherical","20","1","1","matched","0","10","1358"
"echo-presentation","41","270070","0.0-41.0","5eea402f14742d0999b3410e","60201dea606b8d5e5aa9e528","60201ebc4bbde55dccc7fd57","Mozilla/5.0 (Windows NT 10.0; Win64; x64) AppleWebKit/537.36 (KHTML, like Gecko) Chrome/87.0.4280.141 Safari/537.36 OPR/73.0.3856.344","v1-up-stims","","","","","","","","-20,-10,0,10,20","media/audio/stims/spherical_300cm_s20_c1_cd-1_matched_a20.wav","spherical","20","1","1","matched","20","20","1213"
"echo-presentation","42","272505","0.0-42.0","5eea402f14742d0999b3410e","60201dea606b8d5e5aa9e528","60201ebc4bbde55dccc7fd57","Mozilla/5.0 (Windows NT 10.0; Win64; x64) AppleWebKit/537.36 (KHTML, like Gecko) Chrome/87.0.4280.141 Safari/537.36 OPR/73.0.3856.344","v1-up-stims","","","","","","","","-20,-10,0,10,20","media/audio/stims/spherical_300cm_s20_c1_cd-1_matched_a10.wav","spherical","20","1","1","matched","10","20","1105"
"echo-presentation","43","275102","0.0-43.0","5eea402f14742d0999b3410e","60201dea606b8d5e5aa9e528","60201ebc4bbde55dccc7fd57","Mozilla/5.0 (Windows NT 10.0; Win64; x64) AppleWebKit/537.36 (KHTML, like Gecko) Chrome/87.0.4280.141 Safari/537.36 OPR/73.0.3856.344","v1-up-stims","","","","","","","","-20,-10,0,10,20","media/audio/stims/spherical_300cm_s20_c1_cd-1_matched_a-10.wav","spherical","20","1","1","matched","-10","-10","1344"
"echo-presentation","44","277726","0.0-44.0","5eea402f14742d0999b3410e","60201dea606b8d5e5aa9e528","60201ebc4bbde55dccc7fd57","Mozilla/5.0 (Windows NT 10.0; Win64; x64) AppleWebKit/537.36 (KHTML, like Gecko) Chrome/87.0.4280.141 Safari/537.36 OPR/73.0.3856.344","v1-up-stims","","","","","","","","-20,-10,0,10,20","media/audio/stims/spherical_300cm_s20_c1_cd-1_matched_a-20.wav","spherical","20","1","1","matched","-20","-20","1434"
"echo-presentation","45","279786","0.0-45.0","5eea402f14742d0999b3410e","60201dea606b8d5e5aa9e528","60201ebc4bbde55dccc7fd57","Mozilla/5.0 (Windows NT 10.0; Win64; x64) AppleWebKit/537.36 (KHTML, like Gecko) Chrome/87.0.4280.141 Safari/537.36 OPR/73.0.3856.344","v1-up-stims","","","","","","","","-20,-10,0,10,20","media/audio/stims/spherical_300cm_s20_c1_cd-1_matched_a-10.wav","spherical","20","1","1","matched","-10","-20","1037"
"echo-presentation","46","281896","0.0-46.0","5eea402f14742d0999b3410e","60201dea606b8d5e5aa9e528","60201ebc4bbde55dccc7fd57","Mozilla/5.0 (Windows NT 10.0; Win64; x64) AppleWebKit/537.36 (KHTML, like Gecko) Chrome/87.0.4280.141 Safari/537.36 OPR/73.0.3856.344","v1-up-stims","","","","","","","","-20,-10,0,10,20","media/audio/stims/spherical_300cm_s20_c1_cd-1_matched_a-20.wav","spherical","20","1","1","matched","-20","-20","1000"
"echo-presentation","47","284717","0.0-47.0","5eea402f14742d0999b3410e","60201dea606b8d5e5aa9e528","60201ebc4bbde55dccc7fd57","Mozilla/5.0 (Windows NT 10.0; Win64; x64) AppleWebKit/537.36 (KHTML, like Gecko) Chrome/87.0.4280.141 Safari/537.36 OPR/73.0.3856.344","v1-up-stims","","","","","","","","-20,-10,0,10,20","media/audio/stims/spherical_300cm_s20_c1_cd-1_matched_a-20.wav","spherical","20","1","1","matched","-20","-20","1022"
"echo-presentation","48","286824","0.0-48.0","5eea402f14742d0999b3410e","60201dea606b8d5e5aa9e528","60201ebc4bbde55dccc7fd57","Mozilla/5.0 (Windows NT 10.0; Win64; x64) AppleWebKit/537.36 (KHTML, like Gecko) Chrome/87.0.4280.141 Safari/537.36 OPR/73.0.3856.344","v1-up-stims","","","","","","","","-20,-10,0,10,20","media/audio/stims/spherical_300cm_s20_c1_cd-1_matched_a20.wav","spherical","20","1","1","matched","20","10","1220"
"echo-presentation","49","288749","0.0-49.0","5eea402f14742d0999b3410e","60201dea606b8d5e5aa9e528","60201ebc4bbde55dccc7fd57","Mozilla/5.0 (Windows NT 10.0; Win64; x64) AppleWebKit/537.36 (KHTML, like Gecko) Chrome/87.0.4280.141 Safari/537.36 OPR/73.0.3856.344","v1-up-stims","","","","","","","","-20,-10,0,10,20","media/audio/stims/spherical_300cm_s20_c1_cd-1_matched_a-10.wav","spherical","20","1","1","matched","-10","-20","1098"
"block-bookend","50","290026","0.0-50.0","5eea402f14742d0999b3410e","60201dea606b8d5e5aa9e528","60201ebc4bbde55dccc7fd57","Mozilla/5.0 (Windows NT 10.0; Win64; x64) AppleWebKit/537.36 (KHTML, like Gecko) Chrome/87.0.4280.141 Safari/537.36 OPR/73.0.3856.344","v1-up-stims","","","","","","","","","","","","","","","","",""
"block-bookend","51","307059","0.0-51.0","5eea402f14742d0999b3410e","60201dea606b8d5e5aa9e528","60201ebc4bbde55dccc7fd57","Mozilla/5.0 (Windows NT 10.0; Win64; x64) AppleWebKit/537.36 (KHTML, like Gecko) Chrome/87.0.4280.141 Safari/537.36 OPR/73.0.3856.344","v1-up-stims","","","","","","","","","","","","","","","","",""
"echo-presentation","52","310664","0.0-52.0","5eea402f14742d0999b3410e","60201dea606b8d5e5aa9e528","60201ebc4bbde55dccc7fd57","Mozilla/5.0 (Windows NT 10.0; Win64; x64) AppleWebKit/537.36 (KHTML, like Gecko) Chrome/87.0.4280.141 Safari/537.36 OPR/73.0.3856.344","v1-up-stims","","","","","","","","-80,-70,-60,-50,-40","media/audio/stims/spherical_300cm_s20_c1_cd-1_matched_a-80.wav","spherical","20","1","1","matched","-80","-80","1917"
"echo-presentation","53","313515","0.0-53.0","5eea402f14742d0999b3410e","60201dea606b8d5e5aa9e528","60201ebc4bbde55dccc7fd57","Mozilla/5.0 (Windows NT 10.0; Win64; x64) AppleWebKit/537.36 (KHTML, like Gecko) Chrome/87.0.4280.141 Safari/537.36 OPR/73.0.3856.344","v1-up-stims","","","","","","","","-80,-70,-60,-50,-40","media/audio/stims/spherical_300cm_s20_c1_cd-1_matched_a-60.wav","spherical","20","1","1","matched","-60","-70","1824"
"echo-presentation","54","315509","0.0-54.0","5eea402f14742d0999b3410e","60201dea606b8d5e5aa9e528","60201ebc4bbde55dccc7fd57","Mozilla/5.0 (Windows NT 10.0; Win64; x64) AppleWebKit/537.36 (KHTML, like Gecko) Chrome/87.0.4280.141 Safari/537.36 OPR/73.0.3856.344","v1-up-stims","","","","","","","","-80,-70,-60,-50,-40","media/audio/stims/spherical_300cm_s20_c1_cd-1_matched_a-40.wav","spherical","20","1","1","matched","-40","-80","1113"
"echo-presentation","55","317703","0.0-55.0","5eea402f14742d0999b3410e","60201dea606b8d5e5aa9e528","60201ebc4bbde55dccc7fd57","Mozilla/5.0 (Windows NT 10.0; Win64; x64) AppleWebKit/537.36 (KHTML, like Gecko) Chrome/87.0.4280.141 Safari/537.36 OPR/73.0.3856.344","v1-up-stims","","","","","","","","-80,-70,-60,-50,-40","media/audio/stims/spherical_300cm_s20_c1_cd-1_matched_a-70.wav","spherical","20","1","1","matched","-70","-80","1388"
"echo-presentation","56","320023","0.0-56.0","5eea402f14742d0999b3410e","60201dea606b8d5e5aa9e528","60201ebc4bbde55dccc7fd57","Mozilla/5.0 (Windows NT 10.0; Win64; x64) AppleWebKit/537.36 (KHTML, like Gecko) Chrome/87.0.4280.141 Safari/537.36 OPR/73.0.3856.344","v1-up-stims","","","","","","","","-80,-70,-60,-50,-40","media/audio/stims/spherical_300cm_s20_c1_cd-1_matched_a-40.wav","spherical","20","1","1","matched","-40","-70","1528"
"echo-presentation","57","322069","0.0-57.0","5eea402f14742d0999b3410e","60201dea606b8d5e5aa9e528","60201ebc4bbde55dccc7fd57","Mozilla/5.0 (Windows NT 10.0; Win64; x64) AppleWebKit/537.36 (KHTML, like Gecko) Chrome/87.0.4280.141 Safari/537.36 OPR/73.0.3856.344","v1-up-stims","","","","","","","","-80,-70,-60,-50,-40","media/audio/stims/spherical_300cm_s20_c1_cd-1_matched_a-80.wav","spherical","20","1","1","matched","-80","-80","1182"
"echo-presentation","58","324046","0.0-58.0","5eea402f14742d0999b3410e","60201dea606b8d5e5aa9e528","60201ebc4bbde55dccc7fd57","Mozilla/5.0 (Windows NT 10.0; Win64; x64) AppleWebKit/537.36 (KHTML, like Gecko) Chrome/87.0.4280.141 Safari/537.36 OPR/73.0.3856.344","v1-up-stims","","","","","","","","-80,-70,-60,-50,-40","media/audio/stims/spherical_300cm_s20_c1_cd-1_matched_a-70.wav","spherical","20","1","1","matched","-70","-80","1173"
"echo-presentation","59","325946","0.0-59.0","5eea402f14742d0999b3410e","60201dea606b8d5e5aa9e528","60201ebc4bbde55dccc7fd57","Mozilla/5.0 (Windows NT 10.0; Win64; x64) AppleWebKit/537.36 (KHTML, like Gecko) Chrome/87.0.4280.141 Safari/537.36 OPR/73.0.3856.344","v1-up-stims","","","","","","","","-80,-70,-60,-50,-40","media/audio/stims/spherical_300cm_s20_c1_cd-1_matched_a-70.wav","spherical","20","1","1","matched","-70","-80","1075"
"echo-presentation","60","328322","0.0-60.0","5eea402f14742d0999b3410e","60201dea606b8d5e5aa9e528","60201ebc4bbde55dccc7fd57","Mozilla/5.0 (Windows NT 10.0; Win64; x64) AppleWebKit/537.36 (KHTML, like Gecko) Chrome/87.0.4280.141 Safari/537.36 OPR/73.0.3856.344","v1-up-stims","","","","","","","","-80,-70,-60,-50,-40","media/audio/stims/spherical_300cm_s20_c1_cd-1_matched_a-40.wav","spherical","20","1","1","matched","-40","-70","1633"
"echo-presentation","61","331267","0.0-61.0","5eea402f14742d0999b3410e","60201dea606b8d5e5aa9e528","60201ebc4bbde55dccc7fd57","Mozilla/5.0 (Windows NT 10.0; Win64; x64) AppleWebKit/537.36 (KHTML, like Gecko) Chrome/87.0.4280.141 Safari/537.36 OPR/73.0.3856.344","v1-up-stims","","","","","","","","-80,-70,-60,-50,-40","media/audio/stims/spherical_300cm_s20_c1_cd-1_matched_a-60.wav","spherical","20","1","1","matched","-60","-70","2023"
"echo-presentation","62","333113","0.0-62.0","5eea402f14742d0999b3410e","60201dea606b8d5e5aa9e528","60201ebc4bbde55dccc7fd57","Mozilla/5.0 (Windows NT 10.0; Win64; x64) AppleWebKit/537.36 (KHTML, like Gecko) Chrome/87.0.4280.141 Safari/537.36 OPR/73.0.3856.344","v1-up-stims","","","","","","","","-80,-70,-60,-50,-40","media/audio/stims/spherical_300cm_s20_c1_cd-1_matched_a-60.wav","spherical","20","1","1","matched","-60","-80","1213"
"echo-presentation","63","335162","0.0-63.0","5eea402f14742d0999b3410e","60201dea606b8d5e5aa9e528","60201ebc4bbde55dccc7fd57","Mozilla/5.0 (Windows NT 10.0; Win64; x64) AppleWebKit/537.36 (KHTML, like Gecko) Chrome/87.0.4280.141 Safari/537.36 OPR/73.0.3856.344","v1-up-stims","","","","","","","","-80,-70,-60,-50,-40","media/audio/stims/spherical_300cm_s20_c1_cd-1_matched_a-50.wav","spherical","20","1","1","matched","-50","-70","1182"
"echo-presentation","64","337214","0.0-64.0","5eea402f14742d0999b3410e","60201dea606b8d5e5aa9e528","60201ebc4bbde55dccc7fd57","Mozilla/5.0 (Windows NT 10.0; Win64; x64) AppleWebKit/537.36 (KHTML, like Gecko) Chrome/87.0.4280.141 Safari/537.36 OPR/73.0.3856.344","v1-up-stims","","","","","","","","-80,-70,-60,-50,-40","media/audio/stims/spherical_300cm_s20_c1_cd-1_matched_a-40.wav","spherical","20","1","1","matched","-40","-80","1282"
"echo-presentation","65","338912","0.0-65.0","5eea402f14742d0999b3410e","60201dea606b8d5e5aa9e528","60201ebc4bbde55dccc7fd57","Mozilla/5.0 (Windows NT 10.0; Win64; x64) AppleWebKit/537.36 (KHTML, like Gecko) Chrome/87.0.4280.141 Safari/537.36 OPR/73.0.3856.344","v1-up-stims","","","","","","","","-80,-70,-60,-50,-40","media/audio/stims/spherical_300cm_s20_c1_cd-1_matched_a-70.wav","spherical","20","1","1","matched","-70","-70","862"
"echo-presentation","66","340607","0.0-66.0","5eea402f14742d0999b3410e","60201dea606b8d5e5aa9e528","60201ebc4bbde55dccc7fd57","Mozilla/5.0 (Windows NT 10.0; Win64; x64) AppleWebKit/537.36 (KHTML, like Gecko) Chrome/87.0.4280.141 Safari/537.36 OPR/73.0.3856.344","v1-up-stims","","","","","","","","-80,-70,-60,-50,-40","media/audio/stims/spherical_300cm_s20_c1_cd-1_matched_a-50.wav","spherical","20","1","1","matched","-50","-80","861"
"echo-presentation","67","342982","0.0-67.0","5eea402f14742d0999b3410e","60201dea606b8d5e5aa9e528","60201ebc4bbde55dccc7fd57","Mozilla/5.0 (Windows NT 10.0; Win64; x64) AppleWebKit/537.36 (KHTML, like Gecko) Chrome/87.0.4280.141 Safari/537.36 OPR/73.0.3856.344","v1-up-stims","","","","","","","","-80,-70,-60,-50,-40","media/audio/stims/spherical_300cm_s20_c1_cd-1_matched_a-80.wav","spherical","20","1","1","matched","-80","-80","1450"
"echo-presentation","68","344553","0.0-68.0","5eea402f14742d0999b3410e","60201dea606b8d5e5aa9e528","60201ebc4bbde55dccc7fd57","Mozilla/5.0 (Windows NT 10.0; Win64; x64) AppleWebKit/537.36 (KHTML, like Gecko) Chrome/87.0.4280.141 Safari/537.36 OPR/73.0.3856.344","v1-up-stims","","","","","","","","-80,-70,-60,-50,-40","media/audio/stims/spherical_300cm_s20_c1_cd-1_matched_a-50.wav","spherical","20","1","1","matched","-50","-80","915"
"echo-presentation","69","346396","0.0-69.0","5eea402f14742d0999b3410e","60201dea606b8d5e5aa9e528","60201ebc4bbde55dccc7fd57","Mozilla/5.0 (Windows NT 10.0; Win64; x64) AppleWebKit/537.36 (KHTML, like Gecko) Chrome/87.0.4280.141 Safari/537.36 OPR/73.0.3856.344","v1-up-stims","","","","","","","","-80,-70,-60,-50,-40","media/audio/stims/spherical_300cm_s20_c1_cd-1_matched_a-60.wav","spherical","20","1","1","matched","-60","-80","915"
"echo-presentation","70","348574","0.0-70.0","5eea402f14742d0999b3410e","60201dea606b8d5e5aa9e528","60201ebc4bbde55dccc7fd57","Mozilla/5.0 (Windows NT 10.0; Win64; x64) AppleWebKit/537.36 (KHTML, like Gecko) Chrome/87.0.4280.141 Safari/537.36 OPR/73.0.3856.344","v1-up-stims","","","","","","","","-80,-70,-60,-50,-40","media/audio/stims/spherical_300cm_s20_c1_cd-1_matched_a-80.wav","spherical","20","1","1","matched","-80","-70","1518"
"echo-presentation","71","350511","0.0-71.0","5eea402f14742d0999b3410e","60201dea606b8d5e5aa9e528","60201ebc4bbde55dccc7fd57","Mozilla/5.0 (Windows NT 10.0; Win64; x64) AppleWebKit/537.36 (KHTML, like Gecko) Chrome/87.0.4280.141 Safari/537.36 OPR/73.0.3856.344","v1-up-stims","","","","","","","","-80,-70,-60,-50,-40","media/audio/stims/spherical_300cm_s20_c1_cd-1_matched_a-50.wav","spherical","20","1","1","matched","-50","-80","1083"
"block-bookend","72","352276","0.0-72.0","5eea402f14742d0999b3410e","60201dea606b8d5e5aa9e528","60201ebc4bbde55dccc7fd57","Mozilla/5.0 (Windows NT 10.0; Win64; x64) AppleWebKit/537.36 (KHTML, like Gecko) Chrome/87.0.4280.141 Safari/537.36 OPR/73.0.3856.344","v1-up-stims","","","","","","","","","","","","","","","","",""
"block-bookend","73","356670","0.0-73.0","5eea402f14742d0999b3410e","60201dea606b8d5e5aa9e528","60201ebc4bbde55dccc7fd57","Mozilla/5.0 (Windows NT 10.0; Win64; x64) AppleWebKit/537.36 (KHTML, like Gecko) Chrome/87.0.4280.141 Safari/537.36 OPR/73.0.3856.344","v1-up-stims","","","","","","","","","","","","","","","","",""
"echo-presentation","74","359796","0.0-74.0","5eea402f14742d0999b3410e","60201dea606b8d5e5aa9e528","60201ebc4bbde55dccc7fd57","Mozilla/5.0 (Windows NT 10.0; Win64; x64) AppleWebKit/537.36 (KHTML, like Gecko) Chrome/87.0.4280.141 Safari/537.36 OPR/73.0.3856.344","v1-up-stims","","","","","","","","-80,-70,-60,-50,-40","media/audio/stims/spherical_300cm_s20_c1_cd-1_matched_a-60.wav","spherical","20","1","1","matched","-60","-70","1795"
"echo-presentation","75","362267","0.0-75.0","5eea402f14742d0999b3410e","60201dea606b8d5e5aa9e528","60201ebc4bbde55dccc7fd57","Mozilla/5.0 (Windows NT 10.0; Win64; x64) AppleWebKit/537.36 (KHTML, like Gecko) Chrome/87.0.4280.141 Safari/537.36 OPR/73.0.3856.344","v1-up-stims","","","","","","","","-80,-70,-60,-50,-40","media/audio/stims/spherical_300cm_s20_c1_cd-1_matched_a-50.wav","spherical","20","1","1","matched","-50","-70","1442"
"echo-presentation","76","364416","0.0-76.0","5eea402f14742d0999b3410e","60201dea606b8d5e5aa9e528","60201ebc4bbde55dccc7fd57","Mozilla/5.0 (Windows NT 10.0; Win64; x64) AppleWebKit/537.36 (KHTML, like Gecko) Chrome/87.0.4280.141 Safari/537.36 OPR/73.0.3856.344","v1-up-stims","","","","","","","","-80,-70,-60,-50,-40","media/audio/stims/spherical_300cm_s20_c1_cd-1_matched_a-70.wav","spherical","20","1","1","matched","-70","-70","1228"
"echo-presentation","77","366583","0.0-77.0","5eea402f14742d0999b3410e","60201dea606b8d5e5aa9e528","60201ebc4bbde55dccc7fd57","Mozilla/5.0 (Windows NT 10.0; Win64; x64) AppleWebKit/537.36 (KHTML, like Gecko) Chrome/87.0.4280.141 Safari/537.36 OPR/73.0.3856.344","v1-up-stims","","","","","","","","-80,-70,-60,-50,-40","media/audio/stims/spherical_300cm_s20_c1_cd-1_matched_a-80.wav","spherical","20","1","1","matched","-80","-80","1319"
"echo-presentation","78","369217","0.0-78.0","5eea402f14742d0999b3410e","60201dea606b8d5e5aa9e528","60201ebc4bbde55dccc7fd57","Mozilla/5.0 (Windows NT 10.0; Win64; x64) AppleWebKit/537.36 (KHTML, like Gecko) Chrome/87.0.4280.141 Safari/537.36 OPR/73.0.3856.344","v1-up-stims","","","","","","","","-80,-70,-60,-50,-40","media/audio/stims/spherical_300cm_s20_c1_cd-1_matched_a-60.wav","spherical","20","1","1","matched","-60","-70","1665"
"echo-presentation","79","372174","0.0-79.0","5eea402f14742d0999b3410e","60201dea606b8d5e5aa9e528","60201ebc4bbde55dccc7fd57","Mozilla/5.0 (Windows NT 10.0; Win64; x64) AppleWebKit/537.36 (KHTML, like Gecko) Chrome/87.0.4280.141 Safari/537.36 OPR/73.0.3856.344","v1-up-stims","","","","","","","","-80,-70,-60,-50,-40","media/audio/stims/spherical_300cm_s20_c1_cd-1_matched_a-60.wav","spherical","20","1","1","matched","-60","-60","2260"
"echo-presentation","80","375240","0.0-80.0","5eea402f14742d0999b3410e","60201dea606b8d5e5aa9e528","60201ebc4bbde55dccc7fd57","Mozilla/5.0 (Windows NT 10.0; Win64; x64) AppleWebKit/537.36 (KHTML, like Gecko) Chrome/87.0.4280.141 Safari/537.36 OPR/73.0.3856.344","v1-up-stims","","","","","","","","-80,-70,-60,-50,-40","media/audio/stims/spherical_300cm_s20_c1_cd-1_matched_a-70.wav","spherical","20","1","1","matched","-70","-70","2115"
"echo-presentation","81","377470","0.0-81.0","5eea402f14742d0999b3410e","60201dea606b8d5e5aa9e528","60201ebc4bbde55dccc7fd57","Mozilla/5.0 (Windows NT 10.0; Win64; x64) AppleWebKit/537.36 (KHTML, like Gecko) Chrome/87.0.4280.141 Safari/537.36 OPR/73.0.3856.344","v1-up-stims","","","","","","","","-80,-70,-60,-50,-40","media/audio/stims/spherical_300cm_s20_c1_cd-1_matched_a-70.wav","spherical","20","1","1","matched","-70","-60","1393"
"echo-presentation","82","379919","0.0-82.0","5eea402f14742d0999b3410e","60201dea606b8d5e5aa9e528","60201ebc4bbde55dccc7fd57","Mozilla/5.0 (Windows NT 10.0; Win64; x64) AppleWebKit/537.36 (KHTML, like Gecko) Chrome/87.0.4280.141 Safari/537.36 OPR/73.0.3856.344","v1-up-stims","","","","","","","","-80,-70,-60,-50,-40","media/audio/stims/spherical_300cm_s20_c1_cd-1_matched_a-50.wav","spherical","20","1","1","matched","-50","-60","1633"
"echo-presentation","83","381796","0.0-83.0","5eea402f14742d0999b3410e","60201dea606b8d5e5aa9e528","60201ebc4bbde55dccc7fd57","Mozilla/5.0 (Windows NT 10.0; Win64; x64) AppleWebKit/537.36 (KHTML, like Gecko) Chrome/87.0.4280.141 Safari/537.36 OPR/73.0.3856.344","v1-up-stims","","","","","","","","-80,-70,-60,-50,-40","media/audio/stims/spherical_300cm_s20_c1_cd-1_matched_a-60.wav","spherical","20","1","1","matched","-60","-80","1190"
"echo-presentation","84","383501","0.0-84.0","5eea402f14742d0999b3410e","60201dea606b8d5e5aa9e528","60201ebc4bbde55dccc7fd57","Mozilla/5.0 (Windows NT 10.0; Win64; x64) AppleWebKit/537.36 (KHTML, like Gecko) Chrome/87.0.4280.141 Safari/537.36 OPR/73.0.3856.344","v1-up-stims","","","","","","","","-80,-70,-60,-50,-40","media/audio/stims/spherical_300cm_s20_c1_cd-1_matched_a-80.wav","spherical","20","1","1","matched","-80","-80","923"
"echo-presentation","85","385258","0.0-85.0","5eea402f14742d0999b3410e","60201dea606b8d5e5aa9e528","60201ebc4bbde55dccc7fd57","Mozilla/5.0 (Windows NT 10.0; Win64; x64) AppleWebKit/537.36 (KHTML, like Gecko) Chrome/87.0.4280.141 Safari/537.36 OPR/73.0.3856.344","v1-up-stims","","","","","","","","-80,-70,-60,-50,-40","media/audio/stims/spherical_300cm_s20_c1_cd-1_matched_a-50.wav","spherical","20","1","1","matched","-50","-80","1022"
"echo-presentation","86","386937","0.0-86.0","5eea402f14742d0999b3410e","60201dea606b8d5e5aa9e528","60201ebc4bbde55dccc7fd57","Mozilla/5.0 (Windows NT 10.0; Win64; x64) AppleWebKit/537.36 (KHTML, like Gecko) Chrome/87.0.4280.141 Safari/537.36 OPR/73.0.3856.344","v1-up-stims","","","","","","","","-80,-70,-60,-50,-40","media/audio/stims/spherical_300cm_s20_c1_cd-1_matched_a-40.wav","spherical","20","1","1","matched","-40","-70","1051"
"echo-presentation","87","388691","0.0-87.0","5eea402f14742d0999b3410e","60201dea606b8d5e5aa9e528","60201ebc4bbde55dccc7fd57","Mozilla/5.0 (Windows NT 10.0; Win64; x64) AppleWebKit/537.36 (KHTML, like Gecko) Chrome/87.0.4280.141 Safari/537.36 OPR/73.0.3856.344","v1-up-stims","","","","","","","","-80,-70,-60,-50,-40","media/audio/stims/spherical_300cm_s20_c1_cd-1_matched_a-80.wav","spherical","20","1","1","matched","-80","-80","993"
"echo-presentation","88","390448","0.0-88.0","5eea402f14742d0999b3410e","60201dea606b8d5e5aa9e528","60201ebc4bbde55dccc7fd57","Mozilla/5.0 (Windows NT 10.0; Win64; x64) AppleWebKit/537.36 (KHTML, like Gecko) Chrome/87.0.4280.141 Safari/537.36 OPR/73.0.3856.344","v1-up-stims","","","","","","","","-80,-70,-60,-50,-40","media/audio/stims/spherical_300cm_s20_c1_cd-1_matched_a-40.wav","spherical","20","1","1","matched","-40","-70","908"
"echo-presentation","89","392275","0.0-89.0","5eea402f14742d0999b3410e","60201dea606b8d5e5aa9e528","60201ebc4bbde55dccc7fd57","Mozilla/5.0 (Windows NT 10.0; Win64; x64) AppleWebKit/537.36 (KHTML, like Gecko) Chrome/87.0.4280.141 Safari/537.36 OPR/73.0.3856.344","v1-up-stims","","","","","","","","-80,-70,-60,-50,-40","media/audio/stims/spherical_300cm_s20_c1_cd-1_matched_a-50.wav","spherical","20","1","1","matched","-50","-70","999"
"echo-presentation","90","393963","0.0-90.0","5eea402f14742d0999b3410e","60201dea606b8d5e5aa9e528","60201ebc4bbde55dccc7fd57","Mozilla/5.0 (Windows NT 10.0; Win64; x64) AppleWebKit/537.36 (KHTML, like Gecko) Chrome/87.0.4280.141 Safari/537.36 OPR/73.0.3856.344","v1-up-stims","","","","","","","","-80,-70,-60,-50,-40","media/audio/stims/spherical_300cm_s20_c1_cd-1_matched_a-80.wav","spherical","20","1","1","matched","-80","-80","923"
"echo-presentation","91","395935","0.0-91.0","5eea402f14742d0999b3410e","60201dea606b8d5e5aa9e528","60201ebc4bbde55dccc7fd57","Mozilla/5.0 (Windows NT 10.0; Win64; x64) AppleWebKit/537.36 (KHTML, like Gecko) Chrome/87.0.4280.141 Safari/537.36 OPR/73.0.3856.344","v1-up-stims","","","","","","","","-80,-70,-60,-50,-40","media/audio/stims/spherical_300cm_s20_c1_cd-1_matched_a-40.wav","spherical","20","1","1","matched","-40","-70","1252"
"echo-presentation","92","397880","0.0-92.0","5eea402f14742d0999b3410e","60201dea606b8d5e5aa9e528","60201ebc4bbde55dccc7fd57","Mozilla/5.0 (Windows NT 10.0; Win64; x64) AppleWebKit/537.36 (KHTML, like Gecko) Chrome/87.0.4280.141 Safari/537.36 OPR/73.0.3856.344","v1-up-stims","","","","","","","","-80,-70,-60,-50,-40","media/audio/stims/spherical_300cm_s20_c1_cd-1_matched_a-70.wav","spherical","20","1","1","matched","-70","-80","1107"
"echo-presentation","93","399771","0.0-93.0","5eea402f14742d0999b3410e","60201dea606b8d5e5aa9e528","60201ebc4bbde55dccc7fd57","Mozilla/5.0 (Windows NT 10.0; Win64; x64) AppleWebKit/537.36 (KHTML, like Gecko) Chrome/87.0.4280.141 Safari/537.36 OPR/73.0.3856.344","v1-up-stims","","","","","","","","-80,-70,-60,-50,-40","media/audio/stims/spherical_300cm_s20_c1_cd-1_matched_a-40.wav","spherical","20","1","1","matched","-40","-70","1321"
"block-bookend","94","400854","0.0-94.0","5eea402f14742d0999b3410e","60201dea606b8d5e5aa9e528","60201ebc4bbde55dccc7fd57","Mozilla/5.0 (Windows NT 10.0; Win64; x64) AppleWebKit/537.36 (KHTML, like Gecko) Chrome/87.0.4280.141 Safari/537.36 OPR/73.0.3856.344","v1-up-stims","","","","","","","","","","","","","","","","",""
"block-bookend","95","407610","0.0-95.0","5eea402f14742d0999b3410e","60201dea606b8d5e5aa9e528","60201ebc4bbde55dccc7fd57","Mozilla/5.0 (Windows NT 10.0; Win64; x64) AppleWebKit/537.36 (KHTML, like Gecko) Chrome/87.0.4280.141 Safari/537.36 OPR/73.0.3856.344","v1-up-stims","","","","","","","","","","","","","","","","",""
"echo-presentation","96","410739","0.0-96.0","5eea402f14742d0999b3410e","60201dea606b8d5e5aa9e528","60201ebc4bbde55dccc7fd57","Mozilla/5.0 (Windows NT 10.0; Win64; x64) AppleWebKit/537.36 (KHTML, like Gecko) Chrome/87.0.4280.141 Safari/537.36 OPR/73.0.3856.344","v1-up-stims","","","","","","","","40,50,60,70,80","media/audio/stims/spherical_300cm_s20_c1_cd-1_matched_a80.wav","spherical","20","1","1","matched","80","80","1878"
"echo-presentation","97","413314","0.0-97.0","5eea402f14742d0999b3410e","60201dea606b8d5e5aa9e528","60201ebc4bbde55dccc7fd57","Mozilla/5.0 (Windows NT 10.0; Win64; x64) AppleWebKit/537.36 (KHTML, like Gecko) Chrome/87.0.4280.141 Safari/537.36 OPR/73.0.3856.344","v1-up-stims","","","","","","","","40,50,60,70,80","media/audio/stims/spherical_300cm_s20_c1_cd-1_matched_a40.wav","spherical","20","1","1","matched","40","70","1687"
"echo-presentation","98","416467","0.0-98.0","5eea402f14742d0999b3410e","60201dea606b8d5e5aa9e528","60201ebc4bbde55dccc7fd57","Mozilla/5.0 (Windows NT 10.0; Win64; x64) AppleWebKit/537.36 (KHTML, like Gecko) Chrome/87.0.4280.141 Safari/537.36 OPR/73.0.3856.344","v1-up-stims","","","","","","","","40,50,60,70,80","media/audio/stims/spherical_300cm_s20_c1_cd-1_matched_a40.wav","spherical","20","1","1","matched","40","70","2299"
"echo-presentation","99","418641","0.0-99.0","5eea402f14742d0999b3410e","60201dea606b8d5e5aa9e528","60201ebc4bbde55dccc7fd57","Mozilla/5.0 (Windows NT 10.0; Win64; x64) AppleWebKit/537.36 (KHTML, like Gecko) Chrome/87.0.4280.141 Safari/537.36 OPR/73.0.3856.344","v1-up-stims","","","","","","","","40,50,60,70,80","media/audio/stims/spherical_300cm_s20_c1_cd-1_matched_a40.wav","spherical","20","1","1","matched","40","70","1336"
"echo-presentation","100","420565","0.0-100.0","5eea402f14742d0999b3410e","60201dea606b8d5e5aa9e528","60201ebc4bbde55dccc7fd57","Mozilla/5.0 (Windows NT 10.0; Win64; x64) AppleWebKit/537.36 (KHTML, like Gecko) Chrome/87.0.4280.141 Safari/537.36 OPR/73.0.3856.344","v1-up-stims","","","","","","","","40,50,60,70,80","media/audio/stims/spherical_300cm_s20_c1_cd-1_matched_a80.wav","spherical","20","1","1","matched","80","80","1106"
"echo-presentation","101","422713","0.0-101.0","5eea402f14742d0999b3410e","60201dea606b8d5e5aa9e528","60201ebc4bbde55dccc7fd57","Mozilla/5.0 (Windows NT 10.0; Win64; x64) AppleWebKit/537.36 (KHTML, like Gecko) Chrome/87.0.4280.141 Safari/537.36 OPR/73.0.3856.344","v1-up-stims","","","","","","","","40,50,60,70,80","media/audio/stims/spherical_300cm_s20_c1_cd-1_matched_a40.wav","spherical","20","1","1","matched","40","50","1320"
"echo-presentation","102","425015","0.0-102.0","5eea402f14742d0999b3410e","60201dea606b8d5e5aa9e528","60201ebc4bbde55dccc7fd57","Mozilla/5.0 (Windows NT 10.0; Win64; x64) AppleWebKit/537.36 (KHTML, like Gecko) Chrome/87.0.4280.141 Safari/537.36 OPR/73.0.3856.344","v1-up-stims","","","","","","","","40,50,60,70,80","media/audio/stims/spherical_300cm_s20_c1_cd-1_matched_a80.wav","spherical","20","1","1","matched","80","80","1189"
"echo-presentation","103","427020","0.0-103.0","5eea402f14742d0999b3410e","60201dea606b8d5e5aa9e528","60201ebc4bbde55dccc7fd57","Mozilla/5.0 (Windows NT 10.0; Win64; x64) AppleWebKit/537.36 (KHTML, like Gecko) Chrome/87.0.4280.141 Safari/537.36 OPR/73.0.3856.344","v1-up-stims","","","","","","","","40,50,60,70,80","media/audio/stims/spherical_300cm_s20_c1_cd-1_matched_a50.wav","spherical","20","1","1","matched","50","70","1176"
"echo-presentation","104","430039","0.0-104.0","5eea402f14742d0999b3410e","60201dea606b8d5e5aa9e528","60201ebc4bbde55dccc7fd57","Mozilla/5.0 (Windows NT 10.0; Win64; x64) AppleWebKit/537.36 (KHTML, like Gecko) Chrome/87.0.4280.141 Safari/537.36 OPR/73.0.3856.344","v1-up-stims","","","","","","","","40,50,60,70,80","media/audio/stims/spherical_300cm_s20_c1_cd-1_matched_a50.wav","spherical","20","1","1","matched","50","60","2138"
"echo-presentation","105","432357","0.0-105.0","5eea402f14742d0999b3410e","60201dea606b8d5e5aa9e528","60201ebc4bbde55dccc7fd57","Mozilla/5.0 (Windows NT 10.0; Win64; x64) AppleWebKit/537.36 (KHTML, like Gecko) Chrome/87.0.4280.141 Safari/537.36 OPR/73.0.3856.344","v1-up-stims","","","","","","","","40,50,60,70,80","media/audio/stims/spherical_300cm_s20_c1_cd-1_matched_a70.wav","spherical","20","1","1","matched","70","80","1259"
"echo-presentation","106","434361","0.0-106.0","5eea402f14742d0999b3410e","60201dea606b8d5e5aa9e528","60201ebc4bbde55dccc7fd57","Mozilla/5.0 (Windows NT 10.0; Win64; x64) AppleWebKit/537.36 (KHTML, like Gecko) Chrome/87.0.4280.141 Safari/537.36 OPR/73.0.3856.344","v1-up-stims","","","","","","","","40,50,60,70,80","media/audio/stims/spherical_300cm_s20_c1_cd-1_matched_a70.wav","spherical","20","1","1","matched","70","80","1191"
"echo-presentation","107","436321","0.0-107.0","5eea402f14742d0999b3410e","60201dea606b8d5e5aa9e528","60201ebc4bbde55dccc7fd57","Mozilla/5.0 (Windows NT 10.0; Win64; x64) AppleWebKit/537.36 (KHTML, like Gecko) Chrome/87.0.4280.141 Safari/537.36 OPR/73.0.3856.344","v1-up-stims","","","","","","","","40,50,60,70,80","media/audio/stims/spherical_300cm_s20_c1_cd-1_matched_a50.wav","spherical","20","1","1","matched","50","80","1129"
"echo-presentation","108","438551","0.0-108.0","5eea402f14742d0999b3410e","60201dea606b8d5e5aa9e528","60201ebc4bbde55dccc7fd57","Mozilla/5.0 (Windows NT 10.0; Win64; x64) AppleWebKit/537.36 (KHTML, like Gecko) Chrome/87.0.4280.141 Safari/537.36 OPR/73.0.3856.344","v1-up-stims","","","","","","","","40,50,60,70,80","media/audio/stims/spherical_300cm_s20_c1_cd-1_matched_a70.wav","spherical","20","1","1","matched","70","60","1412"
"echo-presentation","109","441106","0.0-109.0","5eea402f14742d0999b3410e","60201dea606b8d5e5aa9e528","60201ebc4bbde55dccc7fd57","Mozilla/5.0 (Windows NT 10.0; Win64; x64) AppleWebKit/537.36 (KHTML, like Gecko) Chrome/87.0.4280.141 Safari/537.36 OPR/73.0.3856.344","v1-up-stims","","","","","","","","40,50,60,70,80","media/audio/stims/spherical_300cm_s20_c1_cd-1_matched_a70.wav","spherical","20","1","1","matched","70","70","1549"
"echo-presentation","110","443343","0.0-110.0","5eea402f14742d0999b3410e","60201dea606b8d5e5aa9e528","60201ebc4bbde55dccc7fd57","Mozilla/5.0 (Windows NT 10.0; Win64; x64) AppleWebKit/537.36 (KHTML, like Gecko) Chrome/87.0.4280.141 Safari/537.36 OPR/73.0.3856.344","v1-up-stims","","","","","","","","40,50,60,70,80","media/audio/stims/spherical_300cm_s20_c1_cd-1_matched_a60.wav","spherical","20","1","1","matched","60","80","1320"
"echo-presentation","111","445385","0.0-111.0","5eea402f14742d0999b3410e","60201dea606b8d5e5aa9e528","60201ebc4bbde55dccc7fd57","Mozilla/5.0 (Windows NT 10.0; Win64; x64) AppleWebKit/537.36 (KHTML, like Gecko) Chrome/87.0.4280.141 Safari/537.36 OPR/73.0.3856.344","v1-up-stims","","","","","","","","40,50,60,70,80","media/audio/stims/spherical_300cm_s20_c1_cd-1_matched_a60.wav","spherical","20","1","1","matched","60","70","968"
"echo-presentation","112","447252","0.0-112.0","5eea402f14742d0999b3410e","60201dea606b8d5e5aa9e528","60201ebc4bbde55dccc7fd57","Mozilla/5.0 (Windows NT 10.0; Win64; x64) AppleWebKit/537.36 (KHTML, like Gecko) Chrome/87.0.4280.141 Safari/537.36 OPR/73.0.3856.344","v1-up-stims","","","","","","","","40,50,60,70,80","media/audio/stims/spherical_300cm_s20_c1_cd-1_matched_a60.wav","spherical","20","1","1","matched","60","80","930"
"echo-presentation","113","449212","0.0-113.0","5eea402f14742d0999b3410e","60201dea606b8d5e5aa9e528","60201ebc4bbde55dccc7fd57","Mozilla/5.0 (Windows NT 10.0; Win64; x64) AppleWebKit/537.36 (KHTML, like Gecko) Chrome/87.0.4280.141 Safari/537.36 OPR/73.0.3856.344","v1-up-stims","","","","","","","","40,50,60,70,80","media/audio/stims/spherical_300cm_s20_c1_cd-1_matched_a50.wav","spherical","20","1","1","matched","50","70","1106"
"echo-presentation","114","450956","0.0-114.0","5eea402f14742d0999b3410e","60201dea606b8d5e5aa9e528","60201ebc4bbde55dccc7fd57","Mozilla/5.0 (Windows NT 10.0; Win64; x64) AppleWebKit/537.36 (KHTML, like Gecko) Chrome/87.0.4280.141 Safari/537.36 OPR/73.0.3856.344","v1-up-stims","","","","","","","","40,50,60,70,80","media/audio/stims/spherical_300cm_s20_c1_cd-1_matched_a60.wav","spherical","20","1","1","matched","60","80","884"
"echo-presentation","115","452811","0.0-115.0","5eea402f14742d0999b3410e","60201dea606b8d5e5aa9e528","60201ebc4bbde55dccc7fd57","Mozilla/5.0 (Windows NT 10.0; Win64; x64) AppleWebKit/537.36 (KHTML, like Gecko) Chrome/87.0.4280.141 Safari/537.36 OPR/73.0.3856.344","v1-up-stims","","","","","","","","40,50,60,70,80","media/audio/stims/spherical_300cm_s20_c1_cd-1_matched_a80.wav","spherical","20","1","1","matched","80","80","800"
"block-bookend","116","453698","0.0-116.0","5eea402f14742d0999b3410e","60201dea606b8d5e5aa9e528","60201ebc4bbde55dccc7fd57","Mozilla/5.0 (Windows NT 10.0; Win64; x64) AppleWebKit/537.36 (KHTML, like Gecko) Chrome/87.0.4280.141 Safari/537.36 OPR/73.0.3856.344","v1-up-stims","","","","","","","","","","","","","","","","",""
"block-bookend","117","458978","0.0-117.0","5eea402f14742d0999b3410e","60201dea606b8d5e5aa9e528","60201ebc4bbde55dccc7fd57","Mozilla/5.0 (Windows NT 10.0; Win64; x64) AppleWebKit/537.36 (KHTML, like Gecko) Chrome/87.0.4280.141 Safari/537.36 OPR/73.0.3856.344","v1-up-stims","","","","","","","","","","","","","","","","",""
"echo-presentation","118","464138","0.0-118.0","5eea402f14742d0999b3410e","60201dea606b8d5e5aa9e528","60201ebc4bbde55dccc7fd57","Mozilla/5.0 (Windows NT 10.0; Win64; x64) AppleWebKit/537.36 (KHTML, like Gecko) Chrome/87.0.4280.141 Safari/537.36 OPR/73.0.3856.344","v1-up-stims","","","","","","","","40,50,60,70,80","media/audio/stims/spherical_300cm_s20_c1_cd-1_matched_a80.wav","spherical","20","1","1","matched","80","50","3384"
"echo-presentation","119","466998","0.0-119.0","5eea402f14742d0999b3410e","60201dea606b8d5e5aa9e528","60201ebc4bbde55dccc7fd57","Mozilla/5.0 (Windows NT 10.0; Win64; x64) AppleWebKit/537.36 (KHTML, like Gecko) Chrome/87.0.4280.141 Safari/537.36 OPR/73.0.3856.344","v1-up-stims","","","","","","","","40,50,60,70,80","media/audio/stims/spherical_300cm_s20_c1_cd-1_matched_a60.wav","spherical","20","1","1","matched","60","60","1733"
"echo-presentation","120","468970","0.0-120.0","5eea402f14742d0999b3410e","60201dea606b8d5e5aa9e528","60201ebc4bbde55dccc7fd57","Mozilla/5.0 (Windows NT 10.0; Win64; x64) AppleWebKit/537.36 (KHTML, like Gecko) Chrome/87.0.4280.141 Safari/537.36 OPR/73.0.3856.344","v1-up-stims","","","","","","","","40,50,60,70,80","media/audio/stims/spherical_300cm_s20_c1_cd-1_matched_a60.wav","spherical","20","1","1","matched","60","70","1320"
"echo-presentation","121","471345","0.0-121.0","5eea402f14742d0999b3410e","60201dea606b8d5e5aa9e528","60201ebc4bbde55dccc7fd57","Mozilla/5.0 (Windows NT 10.0; Win64; x64) AppleWebKit/537.36 (KHTML, like Gecko) Chrome/87.0.4280.141 Safari/537.36 OPR/73.0.3856.344","v1-up-stims","","","","","","","","40,50,60,70,80","media/audio/stims/spherical_300cm_s20_c1_cd-1_matched_a50.wav","spherical","20","1","1","matched","50","60","1564"
"echo-presentation","122","473273","0.0-122.0","5eea402f14742d0999b3410e","60201dea606b8d5e5aa9e528","60201ebc4bbde55dccc7fd57","Mozilla/5.0 (Windows NT 10.0; Win64; x64) AppleWebKit/537.36 (KHTML, like Gecko) Chrome/87.0.4280.141 Safari/537.36 OPR/73.0.3856.344","v1-up-stims","","","","","","","","40,50,60,70,80","media/audio/stims/spherical_300cm_s20_c1_cd-1_matched_a50.wav","spherical","20","1","1","matched","50","80","1099"
"echo-presentation","123","475787","0.0-123.0","5eea402f14742d0999b3410e","60201dea606b8d5e5aa9e528","60201ebc4bbde55dccc7fd57","Mozilla/5.0 (Windows NT 10.0; Win64; x64) AppleWebKit/537.36 (KHTML, like Gecko) Chrome/87.0.4280.141 Safari/537.36 OPR/73.0.3856.344","v1-up-stims","","","","","","","","40,50,60,70,80","media/audio/stims/spherical_300cm_s20_c1_cd-1_matched_a50.wav","spherical","20","1","1","matched","50","70","1710"
"echo-presentation","124","478759","0.0-124.0","5eea402f14742d0999b3410e","60201dea606b8d5e5aa9e528","60201ebc4bbde55dccc7fd57","Mozilla/5.0 (Windows NT 10.0; Win64; x64) AppleWebKit/537.36 (KHTML, like Gecko) Chrome/87.0.4280.141 Safari/537.36 OPR/73.0.3856.344","v1-up-stims","","","","","","","","40,50,60,70,80","media/audio/stims/spherical_300cm_s20_c1_cd-1_matched_a50.wav","spherical","20","1","1","matched","50","60","2115"
"echo-presentation","125","481281","0.0-125.0","5eea402f14742d0999b3410e","60201dea606b8d5e5aa9e528","60201ebc4bbde55dccc7fd57","Mozilla/5.0 (Windows NT 10.0; Win64; x64) AppleWebKit/537.36 (KHTML, like Gecko) Chrome/87.0.4280.141 Safari/537.36 OPR/73.0.3856.344","v1-up-stims","","","","","","","","40,50,60,70,80","media/audio/stims/spherical_300cm_s20_c1_cd-1_matched_a70.wav","spherical","20","1","1","matched","70","60","1687"
"echo-presentation","126","483688","0.0-126.0","5eea402f14742d0999b3410e","60201dea606b8d5e5aa9e528","60201ebc4bbde55dccc7fd57","Mozilla/5.0 (Windows NT 10.0; Win64; x64) AppleWebKit/537.36 (KHTML, like Gecko) Chrome/87.0.4280.141 Safari/537.36 OPR/73.0.3856.344","v1-up-stims","","","","","","","","40,50,60,70,80","media/audio/stims/spherical_300cm_s20_c1_cd-1_matched_a60.wav","spherical","20","1","1","matched","60","60","1772"
"echo-presentation","127","485386","0.0-127.0","5eea402f14742d0999b3410e","60201dea606b8d5e5aa9e528","60201ebc4bbde55dccc7fd57","Mozilla/5.0 (Windows NT 10.0; Win64; x64) AppleWebKit/537.36 (KHTML, like Gecko) Chrome/87.0.4280.141 Safari/537.36 OPR/73.0.3856.344","v1-up-stims","","","","","","","","40,50,60,70,80","media/audio/stims/spherical_300cm_s20_c1_cd-1_matched_a40.wav","spherical","20","1","1","matched","40","60","1092"
"echo-presentation","128","487422","0.0-128.0","5eea402f14742d0999b3410e","60201dea606b8d5e5aa9e528","60201ebc4bbde55dccc7fd57","Mozilla/5.0 (Windows NT 10.0; Win64; x64) AppleWebKit/537.36 (KHTML, like Gecko) Chrome/87.0.4280.141 Safari/537.36 OPR/73.0.3856.344","v1-up-stims","","","","","","","","40,50,60,70,80","media/audio/stims/spherical_300cm_s20_c1_cd-1_matched_a40.wav","spherical","20","1","1","matched","40","60","1167"
"echo-presentation","129","489542","0.0-129.0","5eea402f14742d0999b3410e","60201dea606b8d5e5aa9e528","60201ebc4bbde55dccc7fd57","Mozilla/5.0 (Windows NT 10.0; Win64; x64) AppleWebKit/537.36 (KHTML, like Gecko) Chrome/87.0.4280.141 Safari/537.36 OPR/73.0.3856.344","v1-up-stims","","","","","","","","40,50,60,70,80","media/audio/stims/spherical_300cm_s20_c1_cd-1_matched_a80.wav","spherical","20","1","1","matched","80","70","1335"
"echo-presentation","130","491434","0.0-130.0","5eea402f14742d0999b3410e","60201dea606b8d5e5aa9e528","60201ebc4bbde55dccc7fd57","Mozilla/5.0 (Windows NT 10.0; Win64; x64) AppleWebKit/537.36 (KHTML, like Gecko) Chrome/87.0.4280.141 Safari/537.36 OPR/73.0.3856.344","v1-up-stims","","","","","","","","40,50,60,70,80","media/audio/stims/spherical_300cm_s20_c1_cd-1_matched_a70.wav","spherical","20","1","1","matched","70","80","968"
"echo-presentation","131","493246","0.0-131.0","5eea402f14742d0999b3410e","60201dea606b8d5e5aa9e528","60201ebc4bbde55dccc7fd57","Mozilla/5.0 (Windows NT 10.0; Win64; x64) AppleWebKit/537.36 (KHTML, like Gecko) Chrome/87.0.4280.141 Safari/537.36 OPR/73.0.3856.344","v1-up-stims","","","","","","","","40,50,60,70,80","media/audio/stims/spherical_300cm_s20_c1_cd-1_matched_a70.wav","spherical","20","1","1","matched","70","80","892"
"echo-presentation","132","494968","0.0-132.0","5eea402f14742d0999b3410e","60201dea606b8d5e5aa9e528","60201ebc4bbde55dccc7fd57","Mozilla/5.0 (Windows NT 10.0; Win64; x64) AppleWebKit/537.36 (KHTML, like Gecko) Chrome/87.0.4280.141 Safari/537.36 OPR/73.0.3856.344","v1-up-stims","","","","","","","","40,50,60,70,80","media/audio/stims/spherical_300cm_s20_c1_cd-1_matched_a70.wav","spherical","20","1","1","matched","70","80","884"
"echo-presentation","133","496676","0.0-133.0","5eea402f14742d0999b3410e","60201dea606b8d5e5aa9e528","60201ebc4bbde55dccc7fd57","Mozilla/5.0 (Windows NT 10.0; Win64; x64) AppleWebKit/537.36 (KHTML, like Gecko) Chrome/87.0.4280.141 Safari/537.36 OPR/73.0.3856.344","v1-up-stims","","","","","","","","40,50,60,70,80","media/audio/stims/spherical_300cm_s20_c1_cd-1_matched_a60.wav","spherical","20","1","1","matched","60","80","885"
"echo-presentation","134","498404","0.0-134.0","5eea402f14742d0999b3410e","60201dea606b8d5e5aa9e528","60201ebc4bbde55dccc7fd57","Mozilla/5.0 (Windows NT 10.0; Win64; x64) AppleWebKit/537.36 (KHTML, like Gecko) Chrome/87.0.4280.141 Safari/537.36 OPR/73.0.3856.344","v1-up-stims","","","","","","","","40,50,60,70,80","media/audio/stims/spherical_300cm_s20_c1_cd-1_matched_a40.wav","spherical","20","1","1","matched","40","80","915"
"echo-presentation","135","500935","0.0-135.0","5eea402f14742d0999b3410e","60201dea606b8d5e5aa9e528","60201ebc4bbde55dccc7fd57","Mozilla/5.0 (Windows NT 10.0; Win64; x64) AppleWebKit/537.36 (KHTML, like Gecko) Chrome/87.0.4280.141 Safari/537.36 OPR/73.0.3856.344","v1-up-stims","","","","","","","","40,50,60,70,80","media/audio/stims/spherical_300cm_s20_c1_cd-1_matched_a80.wav","spherical","20","1","1","matched","80","80","1144"
"echo-presentation","136","502868","0.0-136.0","5eea402f14742d0999b3410e","60201dea606b8d5e5aa9e528","60201ebc4bbde55dccc7fd57","Mozilla/5.0 (Windows NT 10.0; Win64; x64) AppleWebKit/537.36 (KHTML, like Gecko) Chrome/87.0.4280.141 Safari/537.36 OPR/73.0.3856.344","v1-up-stims","","","","","","","","40,50,60,70,80","media/audio/stims/spherical_300cm_s20_c1_cd-1_matched_a40.wav","spherical","20","1","1","matched","40","80","961"
"echo-presentation","137","506016","0.0-137.0","5eea402f14742d0999b3410e","60201dea606b8d5e5aa9e528","60201ebc4bbde55dccc7fd57","Mozilla/5.0 (Windows NT 10.0; Win64; x64) AppleWebKit/537.36 (KHTML, like Gecko) Chrome/87.0.4280.141 Safari/537.36 OPR/73.0.3856.344","v1-up-stims","","","","","","","","40,50,60,70,80","media/audio/stims/spherical_300cm_s20_c1_cd-1_matched_a80.wav","spherical","20","1","1","matched","80","80","2290"
"block-bookend","138","508505","0.0-138.0","5eea402f14742d0999b3410e","60201dea606b8d5e5aa9e528","60201ebc4bbde55dccc7fd57","Mozilla/5.0 (Windows NT 10.0; Win64; x64) AppleWebKit/537.36 (KHTML, like Gecko) Chrome/87.0.4280.141 Safari/537.36 OPR/73.0.3856.344","v1-up-stims","","","","","","","","","","","","","","","","",""
