"trial_type","trial_index","time_elapsed","internal_node_id","prolificPid","studyId","sessionId","userAgent","version","rt","stimulus","key_press","chosenKeyset","failureCount","testIndex","globalVolume","choices","filename","modelName","slowdown","compensation","compensationDescriptor","receiverOrientationType","azimuth","responseAzimuth","responseDelay"
"pavlovia","0","6","0.0-0.0","5d35f66eb5aada0016a7d91c","5fef55e628823a0076ec12ee","60200e1970a2325b612a7504","Mozilla/5.0 (Windows NT 6.1; Win64; x64; rv:85.0) Gecko/20100101 Firefox/85.0","v1-up-stims","","","","","","","","","","","","","","","","",""
"html-keyboard-response","1","2994","0.0-1.0","5d35f66eb5aada0016a7d91c","5fef55e628823a0076ec12ee","60200e1970a2325b612a7504","Mozilla/5.0 (Windows NT 6.1; Win64; x64; rv:85.0) Gecko/20100101 Firefox/85.0","v1-up-stims","2987","<div><h1>Welcome!</h1><p>Press any key to continue.</p></div>","13","","","","","","","","","","","","","",""
"consent-form","2","23946","0.0-2.0","5d35f66eb5aada0016a7d91c","5fef55e628823a0076ec12ee","60200e1970a2325b612a7504","Mozilla/5.0 (Windows NT 6.1; Win64; x64; rv:85.0) Gecko/20100101 Firefox/85.0","v1-up-stims","","","","","","","","","","","","","","","","",""
"keyset-select","3","26747","0.0-3.0","5d35f66eb5aada0016a7d91c","5fef55e628823a0076ec12ee","60200e1970a2325b612a7504","Mozilla/5.0 (Windows NT 6.1; Win64; x64; rv:85.0) Gecko/20100101 Firefox/85.0","v1-up-stims","","","","left-hand","","","","","","","","","","","","",""
"headphone-check","4","74518","0.0-4.0","5d35f66eb5aada0016a7d91c","5fef55e628823a0076ec12ee","60200e1970a2325b612a7504","Mozilla/5.0 (Windows NT 6.1; Win64; x64; rv:85.0) Gecko/20100101 Firefox/85.0","v1-up-stims","","","","","0","6","0.3","","","","","","","","","",""
"headphone-backwards-check","5","89534","0.0-5.0","5d35f66eb5aada0016a7d91c","5fef55e628823a0076ec12ee","60200e1970a2325b612a7504","Mozilla/5.0 (Windows NT 6.1; Win64; x64; rv:85.0) Gecko/20100101 Firefox/85.0","v1-up-stims","","","","","0","","","","","","","","","","","",""
"training","6","186502","0.0-6.0","5d35f66eb5aada0016a7d91c","5fef55e628823a0076ec12ee","60200e1970a2325b612a7504","Mozilla/5.0 (Windows NT 6.1; Win64; x64; rv:85.0) Gecko/20100101 Firefox/85.0","v1-up-stims","","","","","","","","","","","","","","","","",""
"block-bookend","7","212132","0.0-7.0","5d35f66eb5aada0016a7d91c","5fef55e628823a0076ec12ee","60200e1970a2325b612a7504","Mozilla/5.0 (Windows NT 6.1; Win64; x64; rv:85.0) Gecko/20100101 Firefox/85.0","v1-up-stims","","","","","","","","","","","","","","","","",""
"echo-presentation","8","220142","0.0-8.0","5d35f66eb5aada0016a7d91c","5fef55e628823a0076ec12ee","60200e1970a2325b612a7504","Mozilla/5.0 (Windows NT 6.1; Win64; x64; rv:85.0) Gecko/20100101 Firefox/85.0","v1-up-stims","","","","","","","","40,50,60,70,80","media/audio/stims/spherical_300cm_s20_c20_cd-full_matched_a40.wav","spherical","20","20","full","matched","40","60","5260"
"echo-presentation","9","226232","0.0-9.0","5d35f66eb5aada0016a7d91c","5fef55e628823a0076ec12ee","60200e1970a2325b612a7504","Mozilla/5.0 (Windows NT 6.1; Win64; x64; rv:85.0) Gecko/20100101 Firefox/85.0","v1-up-stims","","","","","","","","40,50,60,70,80","media/audio/stims/spherical_300cm_s20_c20_cd-full_matched_a60.wav","spherical","20","20","full","matched","60","70","3365"
"echo-presentation","10","243784","0.0-10.0","5d35f66eb5aada0016a7d91c","5fef55e628823a0076ec12ee","60200e1970a2325b612a7504","Mozilla/5.0 (Windows NT 6.1; Win64; x64; rv:85.0) Gecko/20100101 Firefox/85.0","v1-up-stims","","","","","","","","40,50,60,70,80","media/audio/stims/spherical_300cm_s20_c20_cd-full_matched_a50.wav","spherical","20","20","full","matched","50","80","14156"
"echo-presentation","11","249824","0.0-11.0","5d35f66eb5aada0016a7d91c","5fef55e628823a0076ec12ee","60200e1970a2325b612a7504","Mozilla/5.0 (Windows NT 6.1; Win64; x64; rv:85.0) Gecko/20100101 Firefox/85.0","v1-up-stims","","","","","","","","40,50,60,70,80","media/audio/stims/spherical_300cm_s20_c20_cd-full_matched_a80.wav","spherical","20","20","full","matched","80","80","1285"
"echo-presentation","12","254584","0.0-12.0","5d35f66eb5aada0016a7d91c","5fef55e628823a0076ec12ee","60200e1970a2325b612a7504","Mozilla/5.0 (Windows NT 6.1; Win64; x64; rv:85.0) Gecko/20100101 Firefox/85.0","v1-up-stims","","","","","","","","40,50,60,70,80","media/audio/stims/spherical_300cm_s20_c20_cd-full_matched_a80.wav","spherical","20","20","full","matched","80","70","2543"
"echo-presentation","13","258744","0.0-13.0","5d35f66eb5aada0016a7d91c","5fef55e628823a0076ec12ee","60200e1970a2325b612a7504","Mozilla/5.0 (Windows NT 6.1; Win64; x64; rv:85.0) Gecko/20100101 Firefox/85.0","v1-up-stims","","","","","","","","40,50,60,70,80","media/audio/stims/spherical_300cm_s20_c20_cd-full_matched_a80.wav","spherical","20","20","full","matched","80","60","2077"
"echo-presentation","14","264195","0.0-14.0","5d35f66eb5aada0016a7d91c","5fef55e628823a0076ec12ee","60200e1970a2325b612a7504","Mozilla/5.0 (Windows NT 6.1; Win64; x64; rv:85.0) Gecko/20100101 Firefox/85.0","v1-up-stims","","","","","","","","40,50,60,70,80","media/audio/stims/spherical_300cm_s20_c20_cd-full_matched_a50.wav","spherical","20","20","full","matched","50","60","2894"
"echo-presentation","15","273805","0.0-15.0","5d35f66eb5aada0016a7d91c","5fef55e628823a0076ec12ee","60200e1970a2325b612a7504","Mozilla/5.0 (Windows NT 6.1; Win64; x64; rv:85.0) Gecko/20100101 Firefox/85.0","v1-up-stims","","","","","","","","40,50,60,70,80","media/audio/stims/spherical_300cm_s20_c20_cd-full_matched_a50.wav","spherical","20","20","full","matched","50","70","6611"
"echo-presentation","16","280536","0.0-16.0","5d35f66eb5aada0016a7d91c","5fef55e628823a0076ec12ee","60200e1970a2325b612a7504","Mozilla/5.0 (Windows NT 6.1; Win64; x64; rv:85.0) Gecko/20100101 Firefox/85.0","v1-up-stims","","","","","","","","40,50,60,70,80","media/audio/stims/spherical_300cm_s20_c20_cd-full_matched_a60.wav","spherical","20","20","full","matched","60","60","3019"
"echo-presentation","17","286605","0.0-17.0","5d35f66eb5aada0016a7d91c","5fef55e628823a0076ec12ee","60200e1970a2325b612a7504","Mozilla/5.0 (Windows NT 6.1; Win64; x64; rv:85.0) Gecko/20100101 Firefox/85.0","v1-up-stims","","","","","","","","40,50,60,70,80","media/audio/stims/spherical_300cm_s20_c20_cd-full_matched_a40.wav","spherical","20","20","full","matched","40","70","3221"
"echo-presentation","18","290736","0.0-18.0","5d35f66eb5aada0016a7d91c","5fef55e628823a0076ec12ee","60200e1970a2325b612a7504","Mozilla/5.0 (Windows NT 6.1; Win64; x64; rv:85.0) Gecko/20100101 Firefox/85.0","v1-up-stims","","","","","","","","40,50,60,70,80","media/audio/stims/spherical_300cm_s20_c20_cd-full_matched_a70.wav","spherical","20","20","full","matched","70","50","2055"
"echo-presentation","19","294736","0.0-19.0","5d35f66eb5aada0016a7d91c","5fef55e628823a0076ec12ee","60200e1970a2325b612a7504","Mozilla/5.0 (Windows NT 6.1; Win64; x64; rv:85.0) Gecko/20100101 Firefox/85.0","v1-up-stims","","","","","","","","40,50,60,70,80","media/audio/stims/spherical_300cm_s20_c20_cd-full_matched_a40.wav","spherical","20","20","full","matched","40","50","2647"
"echo-presentation","20","299876","0.0-20.0","5d35f66eb5aada0016a7d91c","5fef55e628823a0076ec12ee","60200e1970a2325b612a7504","Mozilla/5.0 (Windows NT 6.1; Win64; x64; rv:85.0) Gecko/20100101 Firefox/85.0","v1-up-stims","","","","","","","","40,50,60,70,80","media/audio/stims/spherical_300cm_s20_c20_cd-full_matched_a70.wav","spherical","20","20","full","matched","70","40","3536"
"echo-presentation","21","302836","0.0-21.0","5d35f66eb5aada0016a7d91c","5fef55e628823a0076ec12ee","60200e1970a2325b612a7504","Mozilla/5.0 (Windows NT 6.1; Win64; x64; rv:85.0) Gecko/20100101 Firefox/85.0","v1-up-stims","","","","","","","","40,50,60,70,80","media/audio/stims/spherical_300cm_s20_c20_cd-full_matched_a80.wav","spherical","20","20","full","matched","80","40","1582"
"echo-presentation","22","306396","0.0-22.0","5d35f66eb5aada0016a7d91c","5fef55e628823a0076ec12ee","60200e1970a2325b612a7504","Mozilla/5.0 (Windows NT 6.1; Win64; x64; rv:85.0) Gecko/20100101 Firefox/85.0","v1-up-stims","","","","","","","","40,50,60,70,80","media/audio/stims/spherical_300cm_s20_c20_cd-full_matched_a50.wav","spherical","20","20","full","matched","50","50","2326"
"echo-presentation","23","308587","0.0-23.0","5d35f66eb5aada0016a7d91c","5fef55e628823a0076ec12ee","60200e1970a2325b612a7504","Mozilla/5.0 (Windows NT 6.1; Win64; x64; rv:85.0) Gecko/20100101 Firefox/85.0","v1-up-stims","","","","","","","","40,50,60,70,80","media/audio/stims/spherical_300cm_s20_c20_cd-full_matched_a70.wav","spherical","20","20","full","matched","70","40","983"
"echo-presentation","24","313677","0.0-24.0","5d35f66eb5aada0016a7d91c","5fef55e628823a0076ec12ee","60200e1970a2325b612a7504","Mozilla/5.0 (Windows NT 6.1; Win64; x64; rv:85.0) Gecko/20100101 Firefox/85.0","v1-up-stims","","","","","","","","40,50,60,70,80","media/audio/stims/spherical_300cm_s20_c20_cd-full_matched_a70.wav","spherical","20","20","full","matched","70","60","1943"
"echo-presentation","25","320568","0.0-25.0","5d35f66eb5aada0016a7d91c","5fef55e628823a0076ec12ee","60200e1970a2325b612a7504","Mozilla/5.0 (Windows NT 6.1; Win64; x64; rv:85.0) Gecko/20100101 Firefox/85.0","v1-up-stims","","","","","","","","40,50,60,70,80","media/audio/stims/spherical_300cm_s20_c20_cd-full_matched_a60.wav","spherical","20","20","full","matched","60","60","3359"
"echo-presentation","26","324539","0.0-26.0","5d35f66eb5aada0016a7d91c","5fef55e628823a0076ec12ee","60200e1970a2325b612a7504","Mozilla/5.0 (Windows NT 6.1; Win64; x64; rv:85.0) Gecko/20100101 Firefox/85.0","v1-up-stims","","","","","","","","40,50,60,70,80","media/audio/stims/spherical_300cm_s20_c20_cd-full_matched_a60.wav","spherical","20","20","full","matched","60","60","890"
"echo-presentation","27","329108","0.0-27.0","5d35f66eb5aada0016a7d91c","5fef55e628823a0076ec12ee","60200e1970a2325b612a7504","Mozilla/5.0 (Windows NT 6.1; Win64; x64; rv:85.0) Gecko/20100101 Firefox/85.0","v1-up-stims","","","","","","","","40,50,60,70,80","media/audio/stims/spherical_300cm_s20_c20_cd-full_matched_a40.wav","spherical","20","20","full","matched","40","60","998"
"block-bookend","28","358635","0.0-28.0","5d35f66eb5aada0016a7d91c","5fef55e628823a0076ec12ee","60200e1970a2325b612a7504","Mozilla/5.0 (Windows NT 6.1; Win64; x64; rv:85.0) Gecko/20100101 Firefox/85.0","v1-up-stims","","","","","","","","","","","","","","","","",""
"block-bookend","29","384209","0.0-29.0","5d35f66eb5aada0016a7d91c","5fef55e628823a0076ec12ee","60200e1970a2325b612a7504","Mozilla/5.0 (Windows NT 6.1; Win64; x64; rv:85.0) Gecko/20100101 Firefox/85.0","v1-up-stims","","","","","","","","","","","","","","","","",""
"echo-presentation","30","389592","0.0-30.0","5d35f66eb5aada0016a7d91c","5fef55e628823a0076ec12ee","60200e1970a2325b612a7504","Mozilla/5.0 (Windows NT 6.1; Win64; x64; rv:85.0) Gecko/20100101 Firefox/85.0","v1-up-stims","","","","","","","","40,50,60,70,80","media/audio/stims/spherical_300cm_s20_c20_cd-full_matched_a40.wav","spherical","20","20","full","matched","40","60","2419"
"echo-presentation","31","395422","0.0-31.0","5d35f66eb5aada0016a7d91c","5fef55e628823a0076ec12ee","60200e1970a2325b612a7504","Mozilla/5.0 (Windows NT 6.1; Win64; x64; rv:85.0) Gecko/20100101 Firefox/85.0","v1-up-stims","","","","","","","","40,50,60,70,80","media/audio/stims/spherical_300cm_s20_c20_cd-full_matched_a50.wav","spherical","20","20","full","matched","50","80","2996"
"echo-presentation","32","400432","0.0-32.0","5d35f66eb5aada0016a7d91c","5fef55e628823a0076ec12ee","60200e1970a2325b612a7504","Mozilla/5.0 (Windows NT 6.1; Win64; x64; rv:85.0) Gecko/20100101 Firefox/85.0","v1-up-stims","","","","","","","","40,50,60,70,80","media/audio/stims/spherical_300cm_s20_c20_cd-full_matched_a80.wav","spherical","20","20","full","matched","80","50","1053"
"echo-presentation","33","403622","0.0-33.0","5d35f66eb5aada0016a7d91c","5fef55e628823a0076ec12ee","60200e1970a2325b612a7504","Mozilla/5.0 (Windows NT 6.1; Win64; x64; rv:85.0) Gecko/20100101 Firefox/85.0","v1-up-stims","","","","","","","","40,50,60,70,80","media/audio/stims/spherical_300cm_s20_c20_cd-full_matched_a50.wav","spherical","20","20","full","matched","50","50","1599"
"echo-presentation","34","408983","0.0-34.0","5d35f66eb5aada0016a7d91c","5fef55e628823a0076ec12ee","60200e1970a2325b612a7504","Mozilla/5.0 (Windows NT 6.1; Win64; x64; rv:85.0) Gecko/20100101 Firefox/85.0","v1-up-stims","","","","","","","","40,50,60,70,80","media/audio/stims/spherical_300cm_s20_c20_cd-full_matched_a60.wav","spherical","20","20","full","matched","60","70","4047"
"echo-presentation","35","411423","0.0-35.0","5d35f66eb5aada0016a7d91c","5fef55e628823a0076ec12ee","60200e1970a2325b612a7504","Mozilla/5.0 (Windows NT 6.1; Win64; x64; rv:85.0) Gecko/20100101 Firefox/85.0","v1-up-stims","","","","","","","","40,50,60,70,80","media/audio/stims/spherical_300cm_s20_c20_cd-full_matched_a80.wav","spherical","20","20","full","matched","80","60","1223"
"echo-presentation","36","413863","0.0-36.0","5d35f66eb5aada0016a7d91c","5fef55e628823a0076ec12ee","60200e1970a2325b612a7504","Mozilla/5.0 (Windows NT 6.1; Win64; x64; rv:85.0) Gecko/20100101 Firefox/85.0","v1-up-stims","","","","","","","","40,50,60,70,80","media/audio/stims/spherical_300cm_s20_c20_cd-full_matched_a80.wav","spherical","20","20","full","matched","80","60","928"
"echo-presentation","37","416073","0.0-37.0","5d35f66eb5aada0016a7d91c","5fef55e628823a0076ec12ee","60200e1970a2325b612a7504","Mozilla/5.0 (Windows NT 6.1; Win64; x64; rv:85.0) Gecko/20100101 Firefox/85.0","v1-up-stims","","","","","","","","40,50,60,70,80","media/audio/stims/spherical_300cm_s20_c20_cd-full_matched_a60.wav","spherical","20","20","full","matched","60","60","1149"
"echo-presentation","38","418233","0.0-38.0","5d35f66eb5aada0016a7d91c","5fef55e628823a0076ec12ee","60200e1970a2325b612a7504","Mozilla/5.0 (Windows NT 6.1; Win64; x64; rv:85.0) Gecko/20100101 Firefox/85.0","v1-up-stims","","","","","","","","40,50,60,70,80","media/audio/stims/spherical_300cm_s20_c20_cd-full_matched_a40.wav","spherical","20","20","full","matched","40","60","957"
"echo-presentation","39","422133","0.0-39.0","5d35f66eb5aada0016a7d91c","5fef55e628823a0076ec12ee","60200e1970a2325b612a7504","Mozilla/5.0 (Windows NT 6.1; Win64; x64; rv:85.0) Gecko/20100101 Firefox/85.0","v1-up-stims","","","","","","","","40,50,60,70,80","media/audio/stims/spherical_300cm_s20_c20_cd-full_matched_a70.wav","spherical","20","20","full","matched","70","70","1495"
"echo-presentation","40","424583","0.0-40.0","5d35f66eb5aada0016a7d91c","5fef55e628823a0076ec12ee","60200e1970a2325b612a7504","Mozilla/5.0 (Windows NT 6.1; Win64; x64; rv:85.0) Gecko/20100101 Firefox/85.0","v1-up-stims","","","","","","","","40,50,60,70,80","media/audio/stims/spherical_300cm_s20_c20_cd-full_matched_a70.wav","spherical","20","20","full","matched","70","70","1351"
"echo-presentation","41","426634","0.0-41.0","5d35f66eb5aada0016a7d91c","5fef55e628823a0076ec12ee","60200e1970a2325b612a7504","Mozilla/5.0 (Windows NT 6.1; Win64; x64; rv:85.0) Gecko/20100101 Firefox/85.0","v1-up-stims","","","","","","","","40,50,60,70,80","media/audio/stims/spherical_300cm_s20_c20_cd-full_matched_a50.wav","spherical","20","20","full","matched","50","80","1125"
"echo-presentation","42","428704","0.0-42.0","5d35f66eb5aada0016a7d91c","5fef55e628823a0076ec12ee","60200e1970a2325b612a7504","Mozilla/5.0 (Windows NT 6.1; Win64; x64; rv:85.0) Gecko/20100101 Firefox/85.0","v1-up-stims","","","","","","","","40,50,60,70,80","media/audio/stims/spherical_300cm_s20_c20_cd-full_matched_a40.wav","spherical","20","20","full","matched","40","80","966"
"echo-presentation","43","431194","0.0-43.0","5d35f66eb5aada0016a7d91c","5fef55e628823a0076ec12ee","60200e1970a2325b612a7504","Mozilla/5.0 (Windows NT 6.1; Win64; x64; rv:85.0) Gecko/20100101 Firefox/85.0","v1-up-stims","","","","","","","","40,50,60,70,80","media/audio/stims/spherical_300cm_s20_c20_cd-full_matched_a40.wav","spherical","20","20","full","matched","40","80","1046"
"echo-presentation","44","433604","0.0-44.0","5d35f66eb5aada0016a7d91c","5fef55e628823a0076ec12ee","60200e1970a2325b612a7504","Mozilla/5.0 (Windows NT 6.1; Win64; x64; rv:85.0) Gecko/20100101 Firefox/85.0","v1-up-stims","","","","","","","","40,50,60,70,80","media/audio/stims/spherical_300cm_s20_c20_cd-full_matched_a80.wav","spherical","20","20","full","matched","80","80","1261"
"echo-presentation","45","436364","0.0-45.0","5d35f66eb5aada0016a7d91c","5fef55e628823a0076ec12ee","60200e1970a2325b612a7504","Mozilla/5.0 (Windows NT 6.1; Win64; x64; rv:85.0) Gecko/20100101 Firefox/85.0","v1-up-stims","","","","","","","","40,50,60,70,80","media/audio/stims/spherical_300cm_s20_c20_cd-full_matched_a60.wav","spherical","20","20","full","matched","60","70","1749"
"echo-presentation","46","438654","0.0-46.0","5d35f66eb5aada0016a7d91c","5fef55e628823a0076ec12ee","60200e1970a2325b612a7504","Mozilla/5.0 (Windows NT 6.1; Win64; x64; rv:85.0) Gecko/20100101 Firefox/85.0","v1-up-stims","","","","","","","","40,50,60,70,80","media/audio/stims/spherical_300cm_s20_c20_cd-full_matched_a70.wav","spherical","20","20","full","matched","70","70","1071"
"echo-presentation","47","441464","0.0-47.0","5d35f66eb5aada0016a7d91c","5fef55e628823a0076ec12ee","60200e1970a2325b612a7504","Mozilla/5.0 (Windows NT 6.1; Win64; x64; rv:85.0) Gecko/20100101 Firefox/85.0","v1-up-stims","","","","","","","","40,50,60,70,80","media/audio/stims/spherical_300cm_s20_c20_cd-full_matched_a60.wav","spherical","20","20","full","matched","60","70","1111"
"echo-presentation","48","443555","0.0-48.0","5d35f66eb5aada0016a7d91c","5fef55e628823a0076ec12ee","60200e1970a2325b612a7504","Mozilla/5.0 (Windows NT 6.1; Win64; x64; rv:85.0) Gecko/20100101 Firefox/85.0","v1-up-stims","","","","","","","","40,50,60,70,80","media/audio/stims/spherical_300cm_s20_c20_cd-full_matched_a50.wav","spherical","20","20","full","matched","50","70","1102"
"echo-presentation","49","446035","0.0-49.0","5d35f66eb5aada0016a7d91c","5fef55e628823a0076ec12ee","60200e1970a2325b612a7504","Mozilla/5.0 (Windows NT 6.1; Win64; x64; rv:85.0) Gecko/20100101 Firefox/85.0","v1-up-stims","","","","","","","","40,50,60,70,80","media/audio/stims/spherical_300cm_s20_c20_cd-full_matched_a70.wav","spherical","20","20","full","matched","70","70","1565"
"block-bookend","50","450166","0.0-50.0","5d35f66eb5aada0016a7d91c","5fef55e628823a0076ec12ee","60200e1970a2325b612a7504","Mozilla/5.0 (Windows NT 6.1; Win64; x64; rv:85.0) Gecko/20100101 Firefox/85.0","v1-up-stims","","","","","","","","","","","","","","","","",""
"block-bookend","51","460573","0.0-51.0","5d35f66eb5aada0016a7d91c","5fef55e628823a0076ec12ee","60200e1970a2325b612a7504","Mozilla/5.0 (Windows NT 6.1; Win64; x64; rv:85.0) Gecko/20100101 Firefox/85.0","v1-up-stims","","","","","","","","","","","","","","","","",""
"echo-presentation","52","464316","0.0-52.0","5d35f66eb5aada0016a7d91c","5fef55e628823a0076ec12ee","60200e1970a2325b612a7504","Mozilla/5.0 (Windows NT 6.1; Win64; x64; rv:85.0) Gecko/20100101 Firefox/85.0","v1-up-stims","","","","","","","","-20,-10,0,10,20","media/audio/stims/spherical_300cm_s20_c20_cd-full_matched_a10.wav","spherical","20","20","full","matched","10","0","1630"
"echo-presentation","53","466706","0.0-53.0","5d35f66eb5aada0016a7d91c","5fef55e628823a0076ec12ee","60200e1970a2325b612a7504","Mozilla/5.0 (Windows NT 6.1; Win64; x64; rv:85.0) Gecko/20100101 Firefox/85.0","v1-up-stims","","","","","","","","-20,-10,0,10,20","media/audio/stims/spherical_300cm_s20_c20_cd-full_matched_a20.wav","spherical","20","20","full","matched","20","-10","1095"
"echo-presentation","54","469086","0.0-54.0","5d35f66eb5aada0016a7d91c","5fef55e628823a0076ec12ee","60200e1970a2325b612a7504","Mozilla/5.0 (Windows NT 6.1; Win64; x64; rv:85.0) Gecko/20100101 Firefox/85.0","v1-up-stims","","","","","","","","-20,-10,0,10,20","media/audio/stims/spherical_300cm_s20_c20_cd-full_matched_a20.wav","spherical","20","20","full","matched","20","-10","1022"
"echo-presentation","55","471697","0.0-55.0","5d35f66eb5aada0016a7d91c","5fef55e628823a0076ec12ee","60200e1970a2325b612a7504","Mozilla/5.0 (Windows NT 6.1; Win64; x64; rv:85.0) Gecko/20100101 Firefox/85.0","v1-up-stims","","","","","","","","-20,-10,0,10,20","media/audio/stims/spherical_300cm_s20_c20_cd-full_matched_a-10.wav","spherical","20","20","full","matched","-10","-10","1565"
"echo-presentation","56","474007","0.0-56.0","5d35f66eb5aada0016a7d91c","5fef55e628823a0076ec12ee","60200e1970a2325b612a7504","Mozilla/5.0 (Windows NT 6.1; Win64; x64; rv:85.0) Gecko/20100101 Firefox/85.0","v1-up-stims","","","","","","","","-20,-10,0,10,20","media/audio/stims/spherical_300cm_s20_c20_cd-full_matched_a-10.wav","spherical","20","20","full","matched","-10","-20","1055"
"echo-presentation","57","476086","0.0-57.0","5d35f66eb5aada0016a7d91c","5fef55e628823a0076ec12ee","60200e1970a2325b612a7504","Mozilla/5.0 (Windows NT 6.1; Win64; x64; rv:85.0) Gecko/20100101 Firefox/85.0","v1-up-stims","","","","","","","","-20,-10,0,10,20","media/audio/stims/spherical_300cm_s20_c20_cd-full_matched_a-10.wav","spherical","20","20","full","matched","-10","-20","860"
"echo-presentation","58","478216","0.0-58.0","5d35f66eb5aada0016a7d91c","5fef55e628823a0076ec12ee","60200e1970a2325b612a7504","Mozilla/5.0 (Windows NT 6.1; Win64; x64; rv:85.0) Gecko/20100101 Firefox/85.0","v1-up-stims","","","","","","","","-20,-10,0,10,20","media/audio/stims/spherical_300cm_s20_c20_cd-full_matched_a0.wav","spherical","20","20","full","matched","0","-20","981"
"echo-presentation","59","480097","0.0-59.0","5d35f66eb5aada0016a7d91c","5fef55e628823a0076ec12ee","60200e1970a2325b612a7504","Mozilla/5.0 (Windows NT 6.1; Win64; x64; rv:85.0) Gecko/20100101 Firefox/85.0","v1-up-stims","","","","","","","","-20,-10,0,10,20","media/audio/stims/spherical_300cm_s20_c20_cd-full_matched_a20.wav","spherical","20","20","full","matched","20","-20","1006"
"echo-presentation","60","482357","0.0-60.0","5d35f66eb5aada0016a7d91c","5fef55e628823a0076ec12ee","60200e1970a2325b612a7504","Mozilla/5.0 (Windows NT 6.1; Win64; x64; rv:85.0) Gecko/20100101 Firefox/85.0","v1-up-stims","","","","","","","","-20,-10,0,10,20","media/audio/stims/spherical_300cm_s20_c20_cd-full_matched_a-20.wav","spherical","20","20","full","matched","-20","-20","1205"
"echo-presentation","61","484746","0.0-61.0","5d35f66eb5aada0016a7d91c","5fef55e628823a0076ec12ee","60200e1970a2325b612a7504","Mozilla/5.0 (Windows NT 6.1; Win64; x64; rv:85.0) Gecko/20100101 Firefox/85.0","v1-up-stims","","","","","","","","-20,-10,0,10,20","media/audio/stims/spherical_300cm_s20_c20_cd-full_matched_a0.wav","spherical","20","20","full","matched","0","-20","1285"
"echo-presentation","62","486836","0.0-62.0","5d35f66eb5aada0016a7d91c","5fef55e628823a0076ec12ee","60200e1970a2325b612a7504","Mozilla/5.0 (Windows NT 6.1; Win64; x64; rv:85.0) Gecko/20100101 Firefox/85.0","v1-up-stims","","","","","","","","-20,-10,0,10,20","media/audio/stims/spherical_300cm_s20_c20_cd-full_matched_a-20.wav","spherical","20","20","full","matched","-20","-20","982"
"echo-presentation","63","489057","0.0-63.0","5d35f66eb5aada0016a7d91c","5fef55e628823a0076ec12ee","60200e1970a2325b612a7504","Mozilla/5.0 (Windows NT 6.1; Win64; x64; rv:85.0) Gecko/20100101 Firefox/85.0","v1-up-stims","","","","","","","","-20,-10,0,10,20","media/audio/stims/spherical_300cm_s20_c20_cd-full_matched_a0.wav","spherical","20","20","full","matched","0","-10","1158"
"echo-presentation","64","491758","0.0-64.0","5d35f66eb5aada0016a7d91c","5fef55e628823a0076ec12ee","60200e1970a2325b612a7504","Mozilla/5.0 (Windows NT 6.1; Win64; x64; rv:85.0) Gecko/20100101 Firefox/85.0","v1-up-stims","","","","","","","","-20,-10,0,10,20","media/audio/stims/spherical_300cm_s20_c20_cd-full_matched_a20.wav","spherical","20","20","full","matched","20","-10","1741"
"echo-presentation","65","493927","0.0-65.0","5d35f66eb5aada0016a7d91c","5fef55e628823a0076ec12ee","60200e1970a2325b612a7504","Mozilla/5.0 (Windows NT 6.1; Win64; x64; rv:85.0) Gecko/20100101 Firefox/85.0","v1-up-stims","","","","","","","","-20,-10,0,10,20","media/audio/stims/spherical_300cm_s20_c20_cd-full_matched_a0.wav","spherical","20","20","full","matched","0","-10","1166"
"echo-presentation","66","496188","0.0-66.0","5d35f66eb5aada0016a7d91c","5fef55e628823a0076ec12ee","60200e1970a2325b612a7504","Mozilla/5.0 (Windows NT 6.1; Win64; x64; rv:85.0) Gecko/20100101 Firefox/85.0","v1-up-stims","","","","","","","","-20,-10,0,10,20","media/audio/stims/spherical_300cm_s20_c20_cd-full_matched_a-10.wav","spherical","20","20","full","matched","-10","-10","1158"
"echo-presentation","67","498268","0.0-67.0","5d35f66eb5aada0016a7d91c","5fef55e628823a0076ec12ee","60200e1970a2325b612a7504","Mozilla/5.0 (Windows NT 6.1; Win64; x64; rv:85.0) Gecko/20100101 Firefox/85.0","v1-up-stims","","","","","","","","-20,-10,0,10,20","media/audio/stims/spherical_300cm_s20_c20_cd-full_matched_a-20.wav","spherical","20","20","full","matched","-20","-10","1126"
"echo-presentation","68","500568","0.0-68.0","5d35f66eb5aada0016a7d91c","5fef55e628823a0076ec12ee","60200e1970a2325b612a7504","Mozilla/5.0 (Windows NT 6.1; Win64; x64; rv:85.0) Gecko/20100101 Firefox/85.0","v1-up-stims","","","","","","","","-20,-10,0,10,20","media/audio/stims/spherical_300cm_s20_c20_cd-full_matched_a10.wav","spherical","20","20","full","matched","10","-10","1261"
"echo-presentation","69","502408","0.0-69.0","5d35f66eb5aada0016a7d91c","5fef55e628823a0076ec12ee","60200e1970a2325b612a7504","Mozilla/5.0 (Windows NT 6.1; Win64; x64; rv:85.0) Gecko/20100101 Firefox/85.0","v1-up-stims","","","","","","","","-20,-10,0,10,20","media/audio/stims/spherical_300cm_s20_c20_cd-full_matched_a10.wav","spherical","20","20","full","matched","10","-10","950"
"echo-presentation","70","504247","0.0-70.0","5d35f66eb5aada0016a7d91c","5fef55e628823a0076ec12ee","60200e1970a2325b612a7504","Mozilla/5.0 (Windows NT 6.1; Win64; x64; rv:85.0) Gecko/20100101 Firefox/85.0","v1-up-stims","","","","","","","","-20,-10,0,10,20","media/audio/stims/spherical_300cm_s20_c20_cd-full_matched_a-20.wav","spherical","20","20","full","matched","-20","0","925"
"echo-presentation","71","506708","0.0-71.0","5d35f66eb5aada0016a7d91c","5fef55e628823a0076ec12ee","60200e1970a2325b612a7504","Mozilla/5.0 (Windows NT 6.1; Win64; x64; rv:85.0) Gecko/20100101 Firefox/85.0","v1-up-stims","","","","","","","","-20,-10,0,10,20","media/audio/stims/spherical_300cm_s20_c20_cd-full_matched_a10.wav","spherical","20","20","full","matched","10","0","1318"
"block-bookend","72","507833","0.0-72.0","5d35f66eb5aada0016a7d91c","5fef55e628823a0076ec12ee","60200e1970a2325b612a7504","Mozilla/5.0 (Windows NT 6.1; Win64; x64; rv:85.0) Gecko/20100101 Firefox/85.0","v1-up-stims","","","","","","","","","","","","","","","","",""
"block-bookend","73","513834","0.0-73.0","5d35f66eb5aada0016a7d91c","5fef55e628823a0076ec12ee","60200e1970a2325b612a7504","Mozilla/5.0 (Windows NT 6.1; Win64; x64; rv:85.0) Gecko/20100101 Firefox/85.0","v1-up-stims","","","","","","","","","","","","","","","","",""
"echo-presentation","74","516979","0.0-74.0","5d35f66eb5aada0016a7d91c","5fef55e628823a0076ec12ee","60200e1970a2325b612a7504","Mozilla/5.0 (Windows NT 6.1; Win64; x64; rv:85.0) Gecko/20100101 Firefox/85.0","v1-up-stims","","","","","","","","-20,-10,0,10,20","media/audio/stims/spherical_300cm_s20_c20_cd-full_matched_a-20.wav","spherical","20","20","full","matched","-20","0","1212"
"echo-presentation","75","519309","0.0-75.0","5d35f66eb5aada0016a7d91c","5fef55e628823a0076ec12ee","60200e1970a2325b612a7504","Mozilla/5.0 (Windows NT 6.1; Win64; x64; rv:85.0) Gecko/20100101 Firefox/85.0","v1-up-stims","","","","","","","","-20,-10,0,10,20","media/audio/stims/spherical_300cm_s20_c20_cd-full_matched_a20.wav","spherical","20","20","full","matched","20","0","918"
"echo-presentation","76","521159","0.0-76.0","5d35f66eb5aada0016a7d91c","5fef55e628823a0076ec12ee","60200e1970a2325b612a7504","Mozilla/5.0 (Windows NT 6.1; Win64; x64; rv:85.0) Gecko/20100101 Firefox/85.0","v1-up-stims","","","","","","","","-20,-10,0,10,20","media/audio/stims/spherical_300cm_s20_c20_cd-full_matched_a0.wav","spherical","20","20","full","matched","0","0","941"
"echo-presentation","77","523399","0.0-77.0","5d35f66eb5aada0016a7d91c","5fef55e628823a0076ec12ee","60200e1970a2325b612a7504","Mozilla/5.0 (Windows NT 6.1; Win64; x64; rv:85.0) Gecko/20100101 Firefox/85.0","v1-up-stims","","","","","","","","-20,-10,0,10,20","media/audio/stims/spherical_300cm_s20_c20_cd-full_matched_a20.wav","spherical","20","20","full","matched","20","0","1037"
"echo-presentation","78","526439","0.0-78.0","5d35f66eb5aada0016a7d91c","5fef55e628823a0076ec12ee","60200e1970a2325b612a7504","Mozilla/5.0 (Windows NT 6.1; Win64; x64; rv:85.0) Gecko/20100101 Firefox/85.0","v1-up-stims","","","","","","","","-20,-10,0,10,20","media/audio/stims/spherical_300cm_s20_c20_cd-full_matched_a-10.wav","spherical","20","20","full","matched","-10","0","1375"
"echo-presentation","79","528420","0.0-79.0","5d35f66eb5aada0016a7d91c","5fef55e628823a0076ec12ee","60200e1970a2325b612a7504","Mozilla/5.0 (Windows NT 6.1; Win64; x64; rv:85.0) Gecko/20100101 Firefox/85.0","v1-up-stims","","","","","","","","-20,-10,0,10,20","media/audio/stims/spherical_300cm_s20_c20_cd-full_matched_a0.wav","spherical","20","20","full","matched","0","0","925"
"echo-presentation","80","530550","0.0-80.0","5d35f66eb5aada0016a7d91c","5fef55e628823a0076ec12ee","60200e1970a2325b612a7504","Mozilla/5.0 (Windows NT 6.1; Win64; x64; rv:85.0) Gecko/20100101 Firefox/85.0","v1-up-stims","","","","","","","","-20,-10,0,10,20","media/audio/stims/spherical_300cm_s20_c20_cd-full_matched_a10.wav","spherical","20","20","full","matched","10","0","1126"
"echo-presentation","81","532981","0.0-81.0","5d35f66eb5aada0016a7d91c","5fef55e628823a0076ec12ee","60200e1970a2325b612a7504","Mozilla/5.0 (Windows NT 6.1; Win64; x64; rv:85.0) Gecko/20100101 Firefox/85.0","v1-up-stims","","","","","","","","-20,-10,0,10,20","media/audio/stims/spherical_300cm_s20_c20_cd-full_matched_a20.wav","spherical","20","20","full","matched","20","0","1397"
"echo-presentation","82","535051","0.0-82.0","5d35f66eb5aada0016a7d91c","5fef55e628823a0076ec12ee","60200e1970a2325b612a7504","Mozilla/5.0 (Windows NT 6.1; Win64; x64; rv:85.0) Gecko/20100101 Firefox/85.0","v1-up-stims","","","","","","","","-20,-10,0,10,20","media/audio/stims/spherical_300cm_s20_c20_cd-full_matched_a0.wav","spherical","20","20","full","matched","0","0","1093"
"echo-presentation","83","537791","0.0-83.0","5d35f66eb5aada0016a7d91c","5fef55e628823a0076ec12ee","60200e1970a2325b612a7504","Mozilla/5.0 (Windows NT 6.1; Win64; x64; rv:85.0) Gecko/20100101 Firefox/85.0","v1-up-stims","","","","","","","","-20,-10,0,10,20","media/audio/stims/spherical_300cm_s20_c20_cd-full_matched_a-10.wav","spherical","20","20","full","matched","-10","-10","1774"
"echo-presentation","84","539861","0.0-84.0","5d35f66eb5aada0016a7d91c","5fef55e628823a0076ec12ee","60200e1970a2325b612a7504","Mozilla/5.0 (Windows NT 6.1; Win64; x64; rv:85.0) Gecko/20100101 Firefox/85.0","v1-up-stims","","","","","","","","-20,-10,0,10,20","media/audio/stims/spherical_300cm_s20_c20_cd-full_matched_a-10.wav","spherical","20","20","full","matched","-10","-10","1086"
"echo-presentation","85","542131","0.0-85.0","5d35f66eb5aada0016a7d91c","5fef55e628823a0076ec12ee","60200e1970a2325b612a7504","Mozilla/5.0 (Windows NT 6.1; Win64; x64; rv:85.0) Gecko/20100101 Firefox/85.0","v1-up-stims","","","","","","","","-20,-10,0,10,20","media/audio/stims/spherical_300cm_s20_c20_cd-full_matched_a0.wav","spherical","20","20","full","matched","0","0","1252"
"echo-presentation","86","544870","0.0-86.0","5d35f66eb5aada0016a7d91c","5fef55e628823a0076ec12ee","60200e1970a2325b612a7504","Mozilla/5.0 (Windows NT 6.1; Win64; x64; rv:85.0) Gecko/20100101 Firefox/85.0","v1-up-stims","","","","","","","","-20,-10,0,10,20","media/audio/stims/spherical_300cm_s20_c20_cd-full_matched_a-10.wav","spherical","20","20","full","matched","-10","10","1302"
"echo-presentation","87","546740","0.0-87.0","5d35f66eb5aada0016a7d91c","5fef55e628823a0076ec12ee","60200e1970a2325b612a7504","Mozilla/5.0 (Windows NT 6.1; Win64; x64; rv:85.0) Gecko/20100101 Firefox/85.0","v1-up-stims","","","","","","","","-20,-10,0,10,20","media/audio/stims/spherical_300cm_s20_c20_cd-full_matched_a10.wav","spherical","20","20","full","matched","10","0","973"
"echo-presentation","88","548540","0.0-88.0","5d35f66eb5aada0016a7d91c","5fef55e628823a0076ec12ee","60200e1970a2325b612a7504","Mozilla/5.0 (Windows NT 6.1; Win64; x64; rv:85.0) Gecko/20100101 Firefox/85.0","v1-up-stims","","","","","","","","-20,-10,0,10,20","media/audio/stims/spherical_300cm_s20_c20_cd-full_matched_a10.wav","spherical","20","20","full","matched","10","0","942"
"echo-presentation","89","552171","0.0-89.0","5d35f66eb5aada0016a7d91c","5fef55e628823a0076ec12ee","60200e1970a2325b612a7504","Mozilla/5.0 (Windows NT 6.1; Win64; x64; rv:85.0) Gecko/20100101 Firefox/85.0","v1-up-stims","","","","","","","","-20,-10,0,10,20","media/audio/stims/spherical_300cm_s20_c20_cd-full_matched_a10.wav","spherical","20","20","full","matched","10","-10","2693"
"echo-presentation","90","553751","0.0-90.0","5d35f66eb5aada0016a7d91c","5fef55e628823a0076ec12ee","60200e1970a2325b612a7504","Mozilla/5.0 (Windows NT 6.1; Win64; x64; rv:85.0) Gecko/20100101 Firefox/85.0","v1-up-stims","","","","","","","","-20,-10,0,10,20","media/audio/stims/spherical_300cm_s20_c20_cd-full_matched_a-20.wav","spherical","20","20","full","matched","-20","-10","1070"
"echo-presentation","91","556803","0.0-91.0","5d35f66eb5aada0016a7d91c","5fef55e628823a0076ec12ee","60200e1970a2325b612a7504","Mozilla/5.0 (Windows NT 6.1; Win64; x64; rv:85.0) Gecko/20100101 Firefox/85.0","v1-up-stims","","","","","","","","-20,-10,0,10,20","media/audio/stims/spherical_300cm_s20_c20_cd-full_matched_a-20.wav","spherical","20","20","full","matched","-20","-10","1207"
"echo-presentation","92","559422","0.0-92.0","5d35f66eb5aada0016a7d91c","5fef55e628823a0076ec12ee","60200e1970a2325b612a7504","Mozilla/5.0 (Windows NT 6.1; Win64; x64; rv:85.0) Gecko/20100101 Firefox/85.0","v1-up-stims","","","","","","","","-20,-10,0,10,20","media/audio/stims/spherical_300cm_s20_c20_cd-full_matched_a-20.wav","spherical","20","20","full","matched","-20","-10","959"
"echo-presentation","93","561352","0.0-93.0","5d35f66eb5aada0016a7d91c","5fef55e628823a0076ec12ee","60200e1970a2325b612a7504","Mozilla/5.0 (Windows NT 6.1; Win64; x64; rv:85.0) Gecko/20100101 Firefox/85.0","v1-up-stims","","","","","","","","-20,-10,0,10,20","media/audio/stims/spherical_300cm_s20_c20_cd-full_matched_a20.wav","spherical","20","20","full","matched","20","-20","949"
"block-bookend","94","563790","0.0-94.0","5d35f66eb5aada0016a7d91c","5fef55e628823a0076ec12ee","60200e1970a2325b612a7504","Mozilla/5.0 (Windows NT 6.1; Win64; x64; rv:85.0) Gecko/20100101 Firefox/85.0","v1-up-stims","","","","","","","","","","","","","","","","",""
"block-bookend","95","570182","0.0-95.0","5d35f66eb5aada0016a7d91c","5fef55e628823a0076ec12ee","60200e1970a2325b612a7504","Mozilla/5.0 (Windows NT 6.1; Win64; x64; rv:85.0) Gecko/20100101 Firefox/85.0","v1-up-stims","","","","","","","","","","","","","","","","",""
"echo-presentation","96","572732","0.0-96.0","5d35f66eb5aada0016a7d91c","5fef55e628823a0076ec12ee","60200e1970a2325b612a7504","Mozilla/5.0 (Windows NT 6.1; Win64; x64; rv:85.0) Gecko/20100101 Firefox/85.0","v1-up-stims","","","","","","","","-80,-70,-60,-50,-40","media/audio/stims/spherical_300cm_s20_c20_cd-full_matched_a-80.wav","spherical","20","20","full","matched","-80","-80","1078"
"echo-presentation","97","576304","0.0-97.0","5d35f66eb5aada0016a7d91c","5fef55e628823a0076ec12ee","60200e1970a2325b612a7504","Mozilla/5.0 (Windows NT 6.1; Win64; x64; rv:85.0) Gecko/20100101 Firefox/85.0","v1-up-stims","","","","","","","","-80,-70,-60,-50,-40","media/audio/stims/spherical_300cm_s20_c20_cd-full_matched_a-50.wav","spherical","20","20","full","matched","-50","-40","2032"
"echo-presentation","98","578813","0.0-98.0","5d35f66eb5aada0016a7d91c","5fef55e628823a0076ec12ee","60200e1970a2325b612a7504","Mozilla/5.0 (Windows NT 6.1; Win64; x64; rv:85.0) Gecko/20100101 Firefox/85.0","v1-up-stims","","","","","","","","-80,-70,-60,-50,-40","media/audio/stims/spherical_300cm_s20_c20_cd-full_matched_a-50.wav","spherical","20","20","full","matched","-50","-40","1405"
"echo-presentation","99","581136","0.0-99.0","5d35f66eb5aada0016a7d91c","5fef55e628823a0076ec12ee","60200e1970a2325b612a7504","Mozilla/5.0 (Windows NT 6.1; Win64; x64; rv:85.0) Gecko/20100101 Firefox/85.0","v1-up-stims","","","","","","","","-80,-70,-60,-50,-40","media/audio/stims/spherical_300cm_s20_c20_cd-full_matched_a-60.wav","spherical","20","20","full","matched","-60","-40","1075"
"echo-presentation","100","583515","0.0-100.0","5d35f66eb5aada0016a7d91c","5fef55e628823a0076ec12ee","60200e1970a2325b612a7504","Mozilla/5.0 (Windows NT 6.1; Win64; x64; rv:85.0) Gecko/20100101 Firefox/85.0","v1-up-stims","","","","","","","","-80,-70,-60,-50,-40","media/audio/stims/spherical_300cm_s20_c20_cd-full_matched_a-80.wav","spherical","20","20","full","matched","-80","-60","1197"
"echo-presentation","101","586966","0.0-101.0","5d35f66eb5aada0016a7d91c","5fef55e628823a0076ec12ee","60200e1970a2325b612a7504","Mozilla/5.0 (Windows NT 6.1; Win64; x64; rv:85.0) Gecko/20100101 Firefox/85.0","v1-up-stims","","","","","","","","-80,-70,-60,-50,-40","media/audio/stims/spherical_300cm_s20_c20_cd-full_matched_a-40.wav","spherical","20","20","full","matched","-40","-60","1877"
"echo-presentation","102","588696","0.0-102.0","5d35f66eb5aada0016a7d91c","5fef55e628823a0076ec12ee","60200e1970a2325b612a7504","Mozilla/5.0 (Windows NT 6.1; Win64; x64; rv:85.0) Gecko/20100101 Firefox/85.0","v1-up-stims","","","","","","","","-80,-70,-60,-50,-40","media/audio/stims/spherical_300cm_s20_c20_cd-full_matched_a-50.wav","spherical","20","20","full","matched","-50","-60","821"
"echo-presentation","103","591516","0.0-103.0","5d35f66eb5aada0016a7d91c","5fef55e628823a0076ec12ee","60200e1970a2325b612a7504","Mozilla/5.0 (Windows NT 6.1; Win64; x64; rv:85.0) Gecko/20100101 Firefox/85.0","v1-up-stims","","","","","","","","-80,-70,-60,-50,-40","media/audio/stims/spherical_300cm_s20_c20_cd-full_matched_a-70.wav","spherical","20","20","full","matched","-70","-70","1886"
"echo-presentation","104","594416","0.0-104.0","5d35f66eb5aada0016a7d91c","5fef55e628823a0076ec12ee","60200e1970a2325b612a7504","Mozilla/5.0 (Windows NT 6.1; Win64; x64; rv:85.0) Gecko/20100101 Firefox/85.0","v1-up-stims","","","","","","","","-80,-70,-60,-50,-40","media/audio/stims/spherical_300cm_s20_c20_cd-full_matched_a-60.wav","spherical","20","20","full","matched","-60","-70","1765"
"echo-presentation","105","597937","0.0-105.0","5d35f66eb5aada0016a7d91c","5fef55e628823a0076ec12ee","60200e1970a2325b612a7504","Mozilla/5.0 (Windows NT 6.1; Win64; x64; rv:85.0) Gecko/20100101 Firefox/85.0","v1-up-stims","","","","","","","","-80,-70,-60,-50,-40","media/audio/stims/spherical_300cm_s20_c20_cd-full_matched_a-50.wav","spherical","20","20","full","matched","-50","-60","2334"
"echo-presentation","106","600847","0.0-106.0","5d35f66eb5aada0016a7d91c","5fef55e628823a0076ec12ee","60200e1970a2325b612a7504","Mozilla/5.0 (Windows NT 6.1; Win64; x64; rv:85.0) Gecko/20100101 Firefox/85.0","v1-up-stims","","","","","","","","-80,-70,-60,-50,-40","media/audio/stims/spherical_300cm_s20_c20_cd-full_matched_a-40.wav","spherical","20","20","full","matched","-40","-60","1742"
"echo-presentation","107","603237","0.0-107.0","5d35f66eb5aada0016a7d91c","5fef55e628823a0076ec12ee","60200e1970a2325b612a7504","Mozilla/5.0 (Windows NT 6.1; Win64; x64; rv:85.0) Gecko/20100101 Firefox/85.0","v1-up-stims","","","","","","","","-80,-70,-60,-50,-40","media/audio/stims/spherical_300cm_s20_c20_cd-full_matched_a-80.wav","spherical","20","20","full","matched","-80","-60","1510"
"echo-presentation","108","605598","0.0-108.0","5d35f66eb5aada0016a7d91c","5fef55e628823a0076ec12ee","60200e1970a2325b612a7504","Mozilla/5.0 (Windows NT 6.1; Win64; x64; rv:85.0) Gecko/20100101 Firefox/85.0","v1-up-stims","","","","","","","","-80,-70,-60,-50,-40","media/audio/stims/spherical_300cm_s20_c20_cd-full_matched_a-60.wav","spherical","20","20","full","matched","-60","-60","1462"
"echo-presentation","109","608057","0.0-109.0","5d35f66eb5aada0016a7d91c","5fef55e628823a0076ec12ee","60200e1970a2325b612a7504","Mozilla/5.0 (Windows NT 6.1; Win64; x64; rv:85.0) Gecko/20100101 Firefox/85.0","v1-up-stims","","","","","","","","-80,-70,-60,-50,-40","media/audio/stims/spherical_300cm_s20_c20_cd-full_matched_a-70.wav","spherical","20","20","full","matched","-70","-50","1260"
"echo-presentation","110","610347","0.0-110.0","5d35f66eb5aada0016a7d91c","5fef55e628823a0076ec12ee","60200e1970a2325b612a7504","Mozilla/5.0 (Windows NT 6.1; Win64; x64; rv:85.0) Gecko/20100101 Firefox/85.0","v1-up-stims","","","","","","","","-80,-70,-60,-50,-40","media/audio/stims/spherical_300cm_s20_c20_cd-full_matched_a-60.wav","spherical","20","20","full","matched","-60","-50","1074"
"echo-presentation","111","613609","0.0-111.0","5d35f66eb5aada0016a7d91c","5fef55e628823a0076ec12ee","60200e1970a2325b612a7504","Mozilla/5.0 (Windows NT 6.1; Win64; x64; rv:85.0) Gecko/20100101 Firefox/85.0","v1-up-stims","","","","","","","","-80,-70,-60,-50,-40","media/audio/stims/spherical_300cm_s20_c20_cd-full_matched_a-70.wav","spherical","20","20","full","matched","-70","-40","2228"
"echo-presentation","112","616258","0.0-112.0","5d35f66eb5aada0016a7d91c","5fef55e628823a0076ec12ee","60200e1970a2325b612a7504","Mozilla/5.0 (Windows NT 6.1; Win64; x64; rv:85.0) Gecko/20100101 Firefox/85.0","v1-up-stims","","","","","","","","-80,-70,-60,-50,-40","media/audio/stims/spherical_300cm_s20_c20_cd-full_matched_a-70.wav","spherical","20","20","full","matched","-70","-70","1518"
"echo-presentation","113","619097","0.0-113.0","5d35f66eb5aada0016a7d91c","5fef55e628823a0076ec12ee","60200e1970a2325b612a7504","Mozilla/5.0 (Windows NT 6.1; Win64; x64; rv:85.0) Gecko/20100101 Firefox/85.0","v1-up-stims","","","","","","","","-80,-70,-60,-50,-40","media/audio/stims/spherical_300cm_s20_c20_cd-full_matched_a-40.wav","spherical","20","20","full","matched","-40","-60","1164"
"echo-presentation","114","621749","0.0-114.0","5d35f66eb5aada0016a7d91c","5fef55e628823a0076ec12ee","60200e1970a2325b612a7504","Mozilla/5.0 (Windows NT 6.1; Win64; x64; rv:85.0) Gecko/20100101 Firefox/85.0","v1-up-stims","","","","","","","","-80,-70,-60,-50,-40","media/audio/stims/spherical_300cm_s20_c20_cd-full_matched_a-80.wav","spherical","20","20","full","matched","-80","-80","1918"
"echo-presentation","115","624019","0.0-115.0","5d35f66eb5aada0016a7d91c","5fef55e628823a0076ec12ee","60200e1970a2325b612a7504","Mozilla/5.0 (Windows NT 6.1; Win64; x64; rv:85.0) Gecko/20100101 Firefox/85.0","v1-up-stims","","","","","","","","-80,-70,-60,-50,-40","media/audio/stims/spherical_300cm_s20_c20_cd-full_matched_a-40.wav","spherical","20","20","full","matched","-40","-80","974"
"block-bookend","116","625834","0.0-116.0","5d35f66eb5aada0016a7d91c","5fef55e628823a0076ec12ee","60200e1970a2325b612a7504","Mozilla/5.0 (Windows NT 6.1; Win64; x64; rv:85.0) Gecko/20100101 Firefox/85.0","v1-up-stims","","","","","","","","","","","","","","","","",""
"block-bookend","117","630354","0.0-117.0","5d35f66eb5aada0016a7d91c","5fef55e628823a0076ec12ee","60200e1970a2325b612a7504","Mozilla/5.0 (Windows NT 6.1; Win64; x64; rv:85.0) Gecko/20100101 Firefox/85.0","v1-up-stims","","","","","","","","","","","","","","","","",""
"echo-presentation","118","634869","0.0-118.0","5d35f66eb5aada0016a7d91c","5fef55e628823a0076ec12ee","60200e1970a2325b612a7504","Mozilla/5.0 (Windows NT 6.1; Win64; x64; rv:85.0) Gecko/20100101 Firefox/85.0","v1-up-stims","","","","","","","","-80,-70,-60,-50,-40","media/audio/stims/spherical_300cm_s20_c20_cd-full_matched_a-50.wav","spherical","20","20","full","matched","-50","-60","2903"
"echo-presentation","119","638629","0.0-119.0","5d35f66eb5aada0016a7d91c","5fef55e628823a0076ec12ee","60200e1970a2325b612a7504","Mozilla/5.0 (Windows NT 6.1; Win64; x64; rv:85.0) Gecko/20100101 Firefox/85.0","v1-up-stims","","","","","","","","-80,-70,-60,-50,-40","media/audio/stims/spherical_300cm_s20_c20_cd-full_matched_a-40.wav","spherical","20","20","full","matched","-40","-80","1156"
"echo-presentation","120","640810","0.0-120.0","5d35f66eb5aada0016a7d91c","5fef55e628823a0076ec12ee","60200e1970a2325b612a7504","Mozilla/5.0 (Windows NT 6.1; Win64; x64; rv:85.0) Gecko/20100101 Firefox/85.0","v1-up-stims","","","","","","","","-80,-70,-60,-50,-40","media/audio/stims/spherical_300cm_s20_c20_cd-full_matched_a-50.wav","spherical","20","20","full","matched","-50","-80","932"
"echo-presentation","121","643129","0.0-121.0","5d35f66eb5aada0016a7d91c","5fef55e628823a0076ec12ee","60200e1970a2325b612a7504","Mozilla/5.0 (Windows NT 6.1; Win64; x64; rv:85.0) Gecko/20100101 Firefox/85.0","v1-up-stims","","","","","","","","-80,-70,-60,-50,-40","media/audio/stims/spherical_300cm_s20_c20_cd-full_matched_a-80.wav","spherical","20","20","full","matched","-80","-70","1142"
"echo-presentation","122","645059","0.0-122.0","5d35f66eb5aada0016a7d91c","5fef55e628823a0076ec12ee","60200e1970a2325b612a7504","Mozilla/5.0 (Windows NT 6.1; Win64; x64; rv:85.0) Gecko/20100101 Firefox/85.0","v1-up-stims","","","","","","","","-80,-70,-60,-50,-40","media/audio/stims/spherical_300cm_s20_c20_cd-full_matched_a-80.wav","spherical","20","20","full","matched","-80","-70","939"
"echo-presentation","123","646649","0.0-123.0","5d35f66eb5aada0016a7d91c","5fef55e628823a0076ec12ee","60200e1970a2325b612a7504","Mozilla/5.0 (Windows NT 6.1; Win64; x64; rv:85.0) Gecko/20100101 Firefox/85.0","v1-up-stims","","","","","","","","-80,-70,-60,-50,-40","media/audio/stims/spherical_300cm_s20_c20_cd-full_matched_a-60.wav","spherical","20","20","full","matched","-60","-70","1046"
"echo-presentation","124","649030","0.0-124.0","5d35f66eb5aada0016a7d91c","5fef55e628823a0076ec12ee","60200e1970a2325b612a7504","Mozilla/5.0 (Windows NT 6.1; Win64; x64; rv:85.0) Gecko/20100101 Firefox/85.0","v1-up-stims","","","","","","","","-80,-70,-60,-50,-40","media/audio/stims/spherical_300cm_s20_c20_cd-full_matched_a-50.wav","spherical","20","20","full","matched","-50","-80","875"
"echo-presentation","125","650911","0.0-125.0","5d35f66eb5aada0016a7d91c","5fef55e628823a0076ec12ee","60200e1970a2325b612a7504","Mozilla/5.0 (Windows NT 6.1; Win64; x64; rv:85.0) Gecko/20100101 Firefox/85.0","v1-up-stims","","","","","","","","-80,-70,-60,-50,-40","media/audio/stims/spherical_300cm_s20_c20_cd-full_matched_a-70.wav","spherical","20","20","full","matched","-70","-60","965"
"echo-presentation","126","652761","0.0-126.0","5d35f66eb5aada0016a7d91c","5fef55e628823a0076ec12ee","60200e1970a2325b612a7504","Mozilla/5.0 (Windows NT 6.1; Win64; x64; rv:85.0) Gecko/20100101 Firefox/85.0","v1-up-stims","","","","","","","","-80,-70,-60,-50,-40","media/audio/stims/spherical_300cm_s20_c20_cd-full_matched_a-60.wav","spherical","20","20","full","matched","-60","-70","933"
"echo-presentation","127","654870","0.0-127.0","5d35f66eb5aada0016a7d91c","5fef55e628823a0076ec12ee","60200e1970a2325b612a7504","Mozilla/5.0 (Windows NT 6.1; Win64; x64; rv:85.0) Gecko/20100101 Firefox/85.0","v1-up-stims","","","","","","","","-80,-70,-60,-50,-40","media/audio/stims/spherical_300cm_s20_c20_cd-full_matched_a-60.wav","spherical","20","20","full","matched","-60","-70","1197"
"echo-presentation","128","656491","0.0-128.0","5d35f66eb5aada0016a7d91c","5fef55e628823a0076ec12ee","60200e1970a2325b612a7504","Mozilla/5.0 (Windows NT 6.1; Win64; x64; rv:85.0) Gecko/20100101 Firefox/85.0","v1-up-stims","","","","","","","","-80,-70,-60,-50,-40","media/audio/stims/spherical_300cm_s20_c20_cd-full_matched_a-70.wav","spherical","20","20","full","matched","-70","-80","976"
"echo-presentation","129","658981","0.0-129.0","5d35f66eb5aada0016a7d91c","5fef55e628823a0076ec12ee","60200e1970a2325b612a7504","Mozilla/5.0 (Windows NT 6.1; Win64; x64; rv:85.0) Gecko/20100101 Firefox/85.0","v1-up-stims","","","","","","","","-80,-70,-60,-50,-40","media/audio/stims/spherical_300cm_s20_c20_cd-full_matched_a-40.wav","spherical","20","20","full","matched","-40","-80","1277"
"echo-presentation","130","661252","0.0-130.0","5d35f66eb5aada0016a7d91c","5fef55e628823a0076ec12ee","60200e1970a2325b612a7504","Mozilla/5.0 (Windows NT 6.1; Win64; x64; rv:85.0) Gecko/20100101 Firefox/85.0","v1-up-stims","","","","","","","","-80,-70,-60,-50,-40","media/audio/stims/spherical_300cm_s20_c20_cd-full_matched_a-40.wav","spherical","20","20","full","matched","-40","-50","1004"
"echo-presentation","131","664262","0.0-131.0","5d35f66eb5aada0016a7d91c","5fef55e628823a0076ec12ee","60200e1970a2325b612a7504","Mozilla/5.0 (Windows NT 6.1; Win64; x64; rv:85.0) Gecko/20100101 Firefox/85.0","v1-up-stims","","","","","","","","-80,-70,-60,-50,-40","media/audio/stims/spherical_300cm_s20_c20_cd-full_matched_a-70.wav","spherical","20","20","full","matched","-70","-40","1788"
"echo-presentation","132","666622","0.0-132.0","5d35f66eb5aada0016a7d91c","5fef55e628823a0076ec12ee","60200e1970a2325b612a7504","Mozilla/5.0 (Windows NT 6.1; Win64; x64; rv:85.0) Gecko/20100101 Firefox/85.0","v1-up-stims","","","","","","","","-80,-70,-60,-50,-40","media/audio/stims/spherical_300cm_s20_c20_cd-full_matched_a-80.wav","spherical","20","20","full","matched","-80","-60","1125"
"echo-presentation","133","668951","0.0-133.0","5d35f66eb5aada0016a7d91c","5fef55e628823a0076ec12ee","60200e1970a2325b612a7504","Mozilla/5.0 (Windows NT 6.1; Win64; x64; rv:85.0) Gecko/20100101 Firefox/85.0","v1-up-stims","","","","","","","","-80,-70,-60,-50,-40","media/audio/stims/spherical_300cm_s20_c20_cd-full_matched_a-40.wav","spherical","20","20","full","matched","-40","-80","1254"
"echo-presentation","134","671132","0.0-134.0","5d35f66eb5aada0016a7d91c","5fef55e628823a0076ec12ee","60200e1970a2325b612a7504","Mozilla/5.0 (Windows NT 6.1; Win64; x64; rv:85.0) Gecko/20100101 Firefox/85.0","v1-up-stims","","","","","","","","-80,-70,-60,-50,-40","media/audio/stims/spherical_300cm_s20_c20_cd-full_matched_a-70.wav","spherical","20","20","full","matched","-70","-70","1317"
"echo-presentation","135","672732","0.0-135.0","5d35f66eb5aada0016a7d91c","5fef55e628823a0076ec12ee","60200e1970a2325b612a7504","Mozilla/5.0 (Windows NT 6.1; Win64; x64; rv:85.0) Gecko/20100101 Firefox/85.0","v1-up-stims","","","","","","","","-80,-70,-60,-50,-40","media/audio/stims/spherical_300cm_s20_c20_cd-full_matched_a-80.wav","spherical","20","20","full","matched","-80","-70","941"
"echo-presentation","136","673941","0.0-136.0","5d35f66eb5aada0016a7d91c","5fef55e628823a0076ec12ee","60200e1970a2325b612a7504","Mozilla/5.0 (Windows NT 6.1; Win64; x64; rv:85.0) Gecko/20100101 Firefox/85.0","v1-up-stims","","","","","","","","-80,-70,-60,-50,-40","media/audio/stims/spherical_300cm_s20_c20_cd-full_matched_a-60.wav","spherical","20","20","full","matched","-60","-80","662"
"echo-presentation","137","675522","0.0-137.0","5d35f66eb5aada0016a7d91c","5fef55e628823a0076ec12ee","60200e1970a2325b612a7504","Mozilla/5.0 (Windows NT 6.1; Win64; x64; rv:85.0) Gecko/20100101 Firefox/85.0","v1-up-stims","","","","","","","","-80,-70,-60,-50,-40","media/audio/stims/spherical_300cm_s20_c20_cd-full_matched_a-50.wav","spherical","20","20","full","matched","-50","-70","918"
"block-bookend","138","677360","0.0-138.0","5d35f66eb5aada0016a7d91c","5fef55e628823a0076ec12ee","60200e1970a2325b612a7504","Mozilla/5.0 (Windows NT 6.1; Win64; x64; rv:85.0) Gecko/20100101 Firefox/85.0","v1-up-stims","","","","","","","","","","","","","","","","",""
