"trial_type","trial_index","time_elapsed","internal_node_id","prolificPid","studyId","sessionId","userAgent","version","rt","stimulus","key_press","chosenKeyset","failureCount","testIndex","globalVolume","choices","filename","modelName","slowdown","compensation","compensationDescriptor","receiverOrientationType","azimuth","responseAzimuth","responseDelay"
"pavlovia","0","3","0.0-0.0","5e5d8f748627aa0a7ddf756c","5fef55e628823a0076ec12ee","60200e1976e6d65a69b5a16d","Mozilla/5.0 (Windows NT 10.0; Win64; x64) AppleWebKit/537.36 (KHTML, like Gecko) Chrome/88.0.4324.146 Safari/537.36","v1-up-stims","","","","","","","","","","","","","","","","",""
"html-keyboard-response","1","17803","0.0-1.0","5e5d8f748627aa0a7ddf756c","5fef55e628823a0076ec12ee","60200e1976e6d65a69b5a16d","Mozilla/5.0 (Windows NT 10.0; Win64; x64) AppleWebKit/537.36 (KHTML, like Gecko) Chrome/88.0.4324.146 Safari/537.36","v1-up-stims","17797.939999960363","<div><h1>Welcome!</h1><p>Press any key to continue.</p></div>","32","","","","","","","","","","","","","",""
"consent-form","2","75381","0.0-2.0","5e5d8f748627aa0a7ddf756c","5fef55e628823a0076ec12ee","60200e1976e6d65a69b5a16d","Mozilla/5.0 (Windows NT 10.0; Win64; x64) AppleWebKit/537.36 (KHTML, like Gecko) Chrome/88.0.4324.146 Safari/537.36","v1-up-stims","","","","","","","","","","","","","","","","",""
"keyset-select","3","112246","0.0-3.0","5e5d8f748627aa0a7ddf756c","5fef55e628823a0076ec12ee","60200e1976e6d65a69b5a16d","Mozilla/5.0 (Windows NT 10.0; Win64; x64) AppleWebKit/537.36 (KHTML, like Gecko) Chrome/88.0.4324.146 Safari/537.36","v1-up-stims","","","","left-hand","","","","","","","","","","","","",""
"headphone-check","4","175698","0.0-4.0","5e5d8f748627aa0a7ddf756c","5fef55e628823a0076ec12ee","60200e1976e6d65a69b5a16d","Mozilla/5.0 (Windows NT 10.0; Win64; x64) AppleWebKit/537.36 (KHTML, like Gecko) Chrome/88.0.4324.146 Safari/537.36","v1-up-stims","","","","","1","6","0.3","","","","","","","","","",""
"headphone-backwards-check","5","184299","0.0-5.0","5e5d8f748627aa0a7ddf756c","5fef55e628823a0076ec12ee","60200e1976e6d65a69b5a16d","Mozilla/5.0 (Windows NT 10.0; Win64; x64) AppleWebKit/537.36 (KHTML, like Gecko) Chrome/88.0.4324.146 Safari/537.36","v1-up-stims","","","","","0","","","","","","","","","","","",""
"training","6","277159","0.0-6.0","5e5d8f748627aa0a7ddf756c","5fef55e628823a0076ec12ee","60200e1976e6d65a69b5a16d","Mozilla/5.0 (Windows NT 10.0; Win64; x64) AppleWebKit/537.36 (KHTML, like Gecko) Chrome/88.0.4324.146 Safari/537.36","v1-up-stims","","","","","","","","","","","","","","","","",""
"block-bookend","7","297483","0.0-7.0","5e5d8f748627aa0a7ddf756c","5fef55e628823a0076ec12ee","60200e1976e6d65a69b5a16d","Mozilla/5.0 (Windows NT 10.0; Win64; x64) AppleWebKit/537.36 (KHTML, like Gecko) Chrome/88.0.4324.146 Safari/537.36","v1-up-stims","","","","","","","","","","","","","","","","",""
"echo-presentation","8","306519","0.0-8.0","5e5d8f748627aa0a7ddf756c","5fef55e628823a0076ec12ee","60200e1976e6d65a69b5a16d","Mozilla/5.0 (Windows NT 10.0; Win64; x64) AppleWebKit/537.36 (KHTML, like Gecko) Chrome/88.0.4324.146 Safari/537.36","v1-up-stims","","","","","","","","-20,-10,0,10,20","media/audio/stims/spherical_300cm_s20_c20_cd-full_matched_a10.wav","spherical","20","20","full","matched","10","20","6317"
"echo-presentation","9","310665","0.0-9.0","5e5d8f748627aa0a7ddf756c","5fef55e628823a0076ec12ee","60200e1976e6d65a69b5a16d","Mozilla/5.0 (Windows NT 10.0; Win64; x64) AppleWebKit/537.36 (KHTML, like Gecko) Chrome/88.0.4324.146 Safari/537.36","v1-up-stims","","","","","","","","-20,-10,0,10,20","media/audio/stims/spherical_300cm_s20_c20_cd-full_matched_a10.wav","spherical","20","20","full","matched","10","10","2715"
"echo-presentation","10","314842","0.0-10.0","5e5d8f748627aa0a7ddf756c","5fef55e628823a0076ec12ee","60200e1976e6d65a69b5a16d","Mozilla/5.0 (Windows NT 10.0; Win64; x64) AppleWebKit/537.36 (KHTML, like Gecko) Chrome/88.0.4324.146 Safari/537.36","v1-up-stims","","","","","","","","-20,-10,0,10,20","media/audio/stims/spherical_300cm_s20_c20_cd-full_matched_a20.wav","spherical","20","20","full","matched","20","20","2337"
"echo-presentation","11","319356","0.0-11.0","5e5d8f748627aa0a7ddf756c","5fef55e628823a0076ec12ee","60200e1976e6d65a69b5a16d","Mozilla/5.0 (Windows NT 10.0; Win64; x64) AppleWebKit/537.36 (KHTML, like Gecko) Chrome/88.0.4324.146 Safari/537.36","v1-up-stims","","","","","","","","-20,-10,0,10,20","media/audio/stims/spherical_300cm_s20_c20_cd-full_matched_a0.wav","spherical","20","20","full","matched","0","-10","2454"
"echo-presentation","12","323806","0.0-12.0","5e5d8f748627aa0a7ddf756c","5fef55e628823a0076ec12ee","60200e1976e6d65a69b5a16d","Mozilla/5.0 (Windows NT 10.0; Win64; x64) AppleWebKit/537.36 (KHTML, like Gecko) Chrome/88.0.4324.146 Safari/537.36","v1-up-stims","","","","","","","","-20,-10,0,10,20","media/audio/stims/spherical_300cm_s20_c20_cd-full_matched_a10.wav","spherical","20","20","full","matched","10","0","3155"
"echo-presentation","13","326044","0.0-13.0","5e5d8f748627aa0a7ddf756c","5fef55e628823a0076ec12ee","60200e1976e6d65a69b5a16d","Mozilla/5.0 (Windows NT 10.0; Win64; x64) AppleWebKit/537.36 (KHTML, like Gecko) Chrome/88.0.4324.146 Safari/537.36","v1-up-stims","","","","","","","","-20,-10,0,10,20","media/audio/stims/spherical_300cm_s20_c20_cd-full_matched_a-10.wav","spherical","20","20","full","matched","-10","-20","1285"
"echo-presentation","14","328122","0.0-14.0","5e5d8f748627aa0a7ddf756c","5fef55e628823a0076ec12ee","60200e1976e6d65a69b5a16d","Mozilla/5.0 (Windows NT 10.0; Win64; x64) AppleWebKit/537.36 (KHTML, like Gecko) Chrome/88.0.4324.146 Safari/537.36","v1-up-stims","","","","","","","","-20,-10,0,10,20","media/audio/stims/spherical_300cm_s20_c20_cd-full_matched_a-20.wav","spherical","20","20","full","matched","-20","-20","1023"
"echo-presentation","15","331140","0.0-15.0","5e5d8f748627aa0a7ddf756c","5fef55e628823a0076ec12ee","60200e1976e6d65a69b5a16d","Mozilla/5.0 (Windows NT 10.0; Win64; x64) AppleWebKit/537.36 (KHTML, like Gecko) Chrome/88.0.4324.146 Safari/537.36","v1-up-stims","","","","","","","","-20,-10,0,10,20","media/audio/stims/spherical_300cm_s20_c20_cd-full_matched_a-10.wav","spherical","20","20","full","matched","-10","-10","1946"
"echo-presentation","16","333457","0.0-16.0","5e5d8f748627aa0a7ddf756c","5fef55e628823a0076ec12ee","60200e1976e6d65a69b5a16d","Mozilla/5.0 (Windows NT 10.0; Win64; x64) AppleWebKit/537.36 (KHTML, like Gecko) Chrome/88.0.4324.146 Safari/537.36","v1-up-stims","","","","","","","","-20,-10,0,10,20","media/audio/stims/spherical_300cm_s20_c20_cd-full_matched_a-20.wav","spherical","20","20","full","matched","-20","-20","1347"
"echo-presentation","17","336070","0.0-17.0","5e5d8f748627aa0a7ddf756c","5fef55e628823a0076ec12ee","60200e1976e6d65a69b5a16d","Mozilla/5.0 (Windows NT 10.0; Win64; x64) AppleWebKit/537.36 (KHTML, like Gecko) Chrome/88.0.4324.146 Safari/537.36","v1-up-stims","","","","","","","","-20,-10,0,10,20","media/audio/stims/spherical_300cm_s20_c20_cd-full_matched_a0.wav","spherical","20","20","full","matched","0","0","1348"
"echo-presentation","18","338728","0.0-18.0","5e5d8f748627aa0a7ddf756c","5fef55e628823a0076ec12ee","60200e1976e6d65a69b5a16d","Mozilla/5.0 (Windows NT 10.0; Win64; x64) AppleWebKit/537.36 (KHTML, like Gecko) Chrome/88.0.4324.146 Safari/537.36","v1-up-stims","","","","","","","","-20,-10,0,10,20","media/audio/stims/spherical_300cm_s20_c20_cd-full_matched_a20.wav","spherical","20","20","full","matched","20","10","1487"
"echo-presentation","19","341176","0.0-19.0","5e5d8f748627aa0a7ddf756c","5fef55e628823a0076ec12ee","60200e1976e6d65a69b5a16d","Mozilla/5.0 (Windows NT 10.0; Win64; x64) AppleWebKit/537.36 (KHTML, like Gecko) Chrome/88.0.4324.146 Safari/537.36","v1-up-stims","","","","","","","","-20,-10,0,10,20","media/audio/stims/spherical_300cm_s20_c20_cd-full_matched_a-10.wav","spherical","20","20","full","matched","-10","-10","1335"
"echo-presentation","20","344564","0.0-20.0","5e5d8f748627aa0a7ddf756c","5fef55e628823a0076ec12ee","60200e1976e6d65a69b5a16d","Mozilla/5.0 (Windows NT 10.0; Win64; x64) AppleWebKit/537.36 (KHTML, like Gecko) Chrome/88.0.4324.146 Safari/537.36","v1-up-stims","","","","","","","","-20,-10,0,10,20","media/audio/stims/spherical_300cm_s20_c20_cd-full_matched_a20.wav","spherical","20","20","full","matched","20","10","2401"
"echo-presentation","21","348168","0.0-21.0","5e5d8f748627aa0a7ddf756c","5fef55e628823a0076ec12ee","60200e1976e6d65a69b5a16d","Mozilla/5.0 (Windows NT 10.0; Win64; x64) AppleWebKit/537.36 (KHTML, like Gecko) Chrome/88.0.4324.146 Safari/537.36","v1-up-stims","","","","","","","","-20,-10,0,10,20","media/audio/stims/spherical_300cm_s20_c20_cd-full_matched_a-20.wav","spherical","20","20","full","matched","-20","-10","2530"
"echo-presentation","22","351294","0.0-22.0","5e5d8f748627aa0a7ddf756c","5fef55e628823a0076ec12ee","60200e1976e6d65a69b5a16d","Mozilla/5.0 (Windows NT 10.0; Win64; x64) AppleWebKit/537.36 (KHTML, like Gecko) Chrome/88.0.4324.146 Safari/537.36","v1-up-stims","","","","","","","","-20,-10,0,10,20","media/audio/stims/spherical_300cm_s20_c20_cd-full_matched_a20.wav","spherical","20","20","full","matched","20","10","2117"
"echo-presentation","23","354898","0.0-23.0","5e5d8f748627aa0a7ddf756c","5fef55e628823a0076ec12ee","60200e1976e6d65a69b5a16d","Mozilla/5.0 (Windows NT 10.0; Win64; x64) AppleWebKit/537.36 (KHTML, like Gecko) Chrome/88.0.4324.146 Safari/537.36","v1-up-stims","","","","","","","","-20,-10,0,10,20","media/audio/stims/spherical_300cm_s20_c20_cd-full_matched_a10.wav","spherical","20","20","full","matched","10","0","2616"
"echo-presentation","24","358239","0.0-24.0","5e5d8f748627aa0a7ddf756c","5fef55e628823a0076ec12ee","60200e1976e6d65a69b5a16d","Mozilla/5.0 (Windows NT 10.0; Win64; x64) AppleWebKit/537.36 (KHTML, like Gecko) Chrome/88.0.4324.146 Safari/537.36","v1-up-stims","","","","","","","","-20,-10,0,10,20","media/audio/stims/spherical_300cm_s20_c20_cd-full_matched_a0.wav","spherical","20","20","full","matched","0","0","2353"
"echo-presentation","25","360313","0.0-25.0","5e5d8f748627aa0a7ddf756c","5fef55e628823a0076ec12ee","60200e1976e6d65a69b5a16d","Mozilla/5.0 (Windows NT 10.0; Win64; x64) AppleWebKit/537.36 (KHTML, like Gecko) Chrome/88.0.4324.146 Safari/537.36","v1-up-stims","","","","","","","","-20,-10,0,10,20","media/audio/stims/spherical_300cm_s20_c20_cd-full_matched_a-10.wav","spherical","20","20","full","matched","-10","-10","1146"
"echo-presentation","26","362875","0.0-26.0","5e5d8f748627aa0a7ddf756c","5fef55e628823a0076ec12ee","60200e1976e6d65a69b5a16d","Mozilla/5.0 (Windows NT 10.0; Win64; x64) AppleWebKit/537.36 (KHTML, like Gecko) Chrome/88.0.4324.146 Safari/537.36","v1-up-stims","","","","","","","","-20,-10,0,10,20","media/audio/stims/spherical_300cm_s20_c20_cd-full_matched_a-20.wav","spherical","20","20","full","matched","-20","-10","1625"
"echo-presentation","27","364843","0.0-27.0","5e5d8f748627aa0a7ddf756c","5fef55e628823a0076ec12ee","60200e1976e6d65a69b5a16d","Mozilla/5.0 (Windows NT 10.0; Win64; x64) AppleWebKit/537.36 (KHTML, like Gecko) Chrome/88.0.4324.146 Safari/537.36","v1-up-stims","","","","","","","","-20,-10,0,10,20","media/audio/stims/spherical_300cm_s20_c20_cd-full_matched_a0.wav","spherical","20","20","full","matched","0","0","1157"
"block-bookend","28","368363","0.0-28.0","5e5d8f748627aa0a7ddf756c","5fef55e628823a0076ec12ee","60200e1976e6d65a69b5a16d","Mozilla/5.0 (Windows NT 10.0; Win64; x64) AppleWebKit/537.36 (KHTML, like Gecko) Chrome/88.0.4324.146 Safari/537.36","v1-up-stims","","","","","","","","","","","","","","","","",""
"block-bookend","29","379520","0.0-29.0","5e5d8f748627aa0a7ddf756c","5fef55e628823a0076ec12ee","60200e1976e6d65a69b5a16d","Mozilla/5.0 (Windows NT 10.0; Win64; x64) AppleWebKit/537.36 (KHTML, like Gecko) Chrome/88.0.4324.146 Safari/537.36","v1-up-stims","","","","","","","","","","","","","","","","",""
"echo-presentation","30","383336","0.0-30.0","5e5d8f748627aa0a7ddf756c","5fef55e628823a0076ec12ee","60200e1976e6d65a69b5a16d","Mozilla/5.0 (Windows NT 10.0; Win64; x64) AppleWebKit/537.36 (KHTML, like Gecko) Chrome/88.0.4324.146 Safari/537.36","v1-up-stims","","","","","","","","-20,-10,0,10,20","media/audio/stims/spherical_300cm_s20_c20_cd-full_matched_a-20.wav","spherical","20","20","full","matched","-20","-20","2556"
"echo-presentation","31","385429","0.0-31.0","5e5d8f748627aa0a7ddf756c","5fef55e628823a0076ec12ee","60200e1976e6d65a69b5a16d","Mozilla/5.0 (Windows NT 10.0; Win64; x64) AppleWebKit/537.36 (KHTML, like Gecko) Chrome/88.0.4324.146 Safari/537.36","v1-up-stims","","","","","","","","-20,-10,0,10,20","media/audio/stims/spherical_300cm_s20_c20_cd-full_matched_a-10.wav","spherical","20","20","full","matched","-10","-20","1270"
"echo-presentation","32","387861","0.0-32.0","5e5d8f748627aa0a7ddf756c","5fef55e628823a0076ec12ee","60200e1976e6d65a69b5a16d","Mozilla/5.0 (Windows NT 10.0; Win64; x64) AppleWebKit/537.36 (KHTML, like Gecko) Chrome/88.0.4324.146 Safari/537.36","v1-up-stims","","","","","","","","-20,-10,0,10,20","media/audio/stims/spherical_300cm_s20_c20_cd-full_matched_a10.wav","spherical","20","20","full","matched","10","10","1637"
"echo-presentation","33","389761","0.0-33.0","5e5d8f748627aa0a7ddf756c","5fef55e628823a0076ec12ee","60200e1976e6d65a69b5a16d","Mozilla/5.0 (Windows NT 10.0; Win64; x64) AppleWebKit/537.36 (KHTML, like Gecko) Chrome/88.0.4324.146 Safari/537.36","v1-up-stims","","","","","","","","-20,-10,0,10,20","media/audio/stims/spherical_300cm_s20_c20_cd-full_matched_a0.wav","spherical","20","20","full","matched","0","0","1100"
"echo-presentation","34","391714","0.0-34.0","5e5d8f748627aa0a7ddf756c","5fef55e628823a0076ec12ee","60200e1976e6d65a69b5a16d","Mozilla/5.0 (Windows NT 10.0; Win64; x64) AppleWebKit/537.36 (KHTML, like Gecko) Chrome/88.0.4324.146 Safari/537.36","v1-up-stims","","","","","","","","-20,-10,0,10,20","media/audio/stims/spherical_300cm_s20_c20_cd-full_matched_a20.wav","spherical","20","20","full","matched","20","10","1165"
"echo-presentation","35","393724","0.0-35.0","5e5d8f748627aa0a7ddf756c","5fef55e628823a0076ec12ee","60200e1976e6d65a69b5a16d","Mozilla/5.0 (Windows NT 10.0; Win64; x64) AppleWebKit/537.36 (KHTML, like Gecko) Chrome/88.0.4324.146 Safari/537.36","v1-up-stims","","","","","","","","-20,-10,0,10,20","media/audio/stims/spherical_300cm_s20_c20_cd-full_matched_a10.wav","spherical","20","20","full","matched","10","20","1137"
"echo-presentation","36","395821","0.0-36.0","5e5d8f748627aa0a7ddf756c","5fef55e628823a0076ec12ee","60200e1976e6d65a69b5a16d","Mozilla/5.0 (Windows NT 10.0; Win64; x64) AppleWebKit/537.36 (KHTML, like Gecko) Chrome/88.0.4324.146 Safari/537.36","v1-up-stims","","","","","","","","-20,-10,0,10,20","media/audio/stims/spherical_300cm_s20_c20_cd-full_matched_a20.wav","spherical","20","20","full","matched","20","20","1245"
"echo-presentation","37","397835","0.0-37.0","5e5d8f748627aa0a7ddf756c","5fef55e628823a0076ec12ee","60200e1976e6d65a69b5a16d","Mozilla/5.0 (Windows NT 10.0; Win64; x64) AppleWebKit/537.36 (KHTML, like Gecko) Chrome/88.0.4324.146 Safari/537.36","v1-up-stims","","","","","","","","-20,-10,0,10,20","media/audio/stims/spherical_300cm_s20_c20_cd-full_matched_a0.wav","spherical","20","20","full","matched","0","0","1182"
"echo-presentation","38","400827","0.0-38.0","5e5d8f748627aa0a7ddf756c","5fef55e628823a0076ec12ee","60200e1976e6d65a69b5a16d","Mozilla/5.0 (Windows NT 10.0; Win64; x64) AppleWebKit/537.36 (KHTML, like Gecko) Chrome/88.0.4324.146 Safari/537.36","v1-up-stims","","","","","","","","-20,-10,0,10,20","media/audio/stims/spherical_300cm_s20_c20_cd-full_matched_a0.wav","spherical","20","20","full","matched","0","20","1978"
"echo-presentation","39","403429","0.0-39.0","5e5d8f748627aa0a7ddf756c","5fef55e628823a0076ec12ee","60200e1976e6d65a69b5a16d","Mozilla/5.0 (Windows NT 10.0; Win64; x64) AppleWebKit/537.36 (KHTML, like Gecko) Chrome/88.0.4324.146 Safari/537.36","v1-up-stims","","","","","","","","-20,-10,0,10,20","media/audio/stims/spherical_300cm_s20_c20_cd-full_matched_a20.wav","spherical","20","20","full","matched","20","10","1121"
"echo-presentation","40","405913","0.0-40.0","5e5d8f748627aa0a7ddf756c","5fef55e628823a0076ec12ee","60200e1976e6d65a69b5a16d","Mozilla/5.0 (Windows NT 10.0; Win64; x64) AppleWebKit/537.36 (KHTML, like Gecko) Chrome/88.0.4324.146 Safari/537.36","v1-up-stims","","","","","","","","-20,-10,0,10,20","media/audio/stims/spherical_300cm_s20_c20_cd-full_matched_a-20.wav","spherical","20","20","full","matched","-20","-20","1432"
"echo-presentation","41","407815","0.0-41.0","5e5d8f748627aa0a7ddf756c","5fef55e628823a0076ec12ee","60200e1976e6d65a69b5a16d","Mozilla/5.0 (Windows NT 10.0; Win64; x64) AppleWebKit/537.36 (KHTML, like Gecko) Chrome/88.0.4324.146 Safari/537.36","v1-up-stims","","","","","","","","-20,-10,0,10,20","media/audio/stims/spherical_300cm_s20_c20_cd-full_matched_a10.wav","spherical","20","20","full","matched","10","10","1122"
"echo-presentation","42","409651","0.0-42.0","5e5d8f748627aa0a7ddf756c","5fef55e628823a0076ec12ee","60200e1976e6d65a69b5a16d","Mozilla/5.0 (Windows NT 10.0; Win64; x64) AppleWebKit/537.36 (KHTML, like Gecko) Chrome/88.0.4324.146 Safari/537.36","v1-up-stims","","","","","","","","-20,-10,0,10,20","media/audio/stims/spherical_300cm_s20_c20_cd-full_matched_a-10.wav","spherical","20","20","full","matched","-10","-10","1056"
"echo-presentation","43","411603","0.0-43.0","5e5d8f748627aa0a7ddf756c","5fef55e628823a0076ec12ee","60200e1976e6d65a69b5a16d","Mozilla/5.0 (Windows NT 10.0; Win64; x64) AppleWebKit/537.36 (KHTML, like Gecko) Chrome/88.0.4324.146 Safari/537.36","v1-up-stims","","","","","","","","-20,-10,0,10,20","media/audio/stims/spherical_300cm_s20_c20_cd-full_matched_a-20.wav","spherical","20","20","full","matched","-20","-10","1029"
"echo-presentation","44","413990","0.0-44.0","5e5d8f748627aa0a7ddf756c","5fef55e628823a0076ec12ee","60200e1976e6d65a69b5a16d","Mozilla/5.0 (Windows NT 10.0; Win64; x64) AppleWebKit/537.36 (KHTML, like Gecko) Chrome/88.0.4324.146 Safari/537.36","v1-up-stims","","","","","","","","-20,-10,0,10,20","media/audio/stims/spherical_300cm_s20_c20_cd-full_matched_a-20.wav","spherical","20","20","full","matched","-20","-20","1513"
"echo-presentation","45","416972","0.0-45.0","5e5d8f748627aa0a7ddf756c","5fef55e628823a0076ec12ee","60200e1976e6d65a69b5a16d","Mozilla/5.0 (Windows NT 10.0; Win64; x64) AppleWebKit/537.36 (KHTML, like Gecko) Chrome/88.0.4324.146 Safari/537.36","v1-up-stims","","","","","","","","-20,-10,0,10,20","media/audio/stims/spherical_300cm_s20_c20_cd-full_matched_a0.wav","spherical","20","20","full","matched","0","-10","2093"
"echo-presentation","46","418991","0.0-46.0","5e5d8f748627aa0a7ddf756c","5fef55e628823a0076ec12ee","60200e1976e6d65a69b5a16d","Mozilla/5.0 (Windows NT 10.0; Win64; x64) AppleWebKit/537.36 (KHTML, like Gecko) Chrome/88.0.4324.146 Safari/537.36","v1-up-stims","","","","","","","","-20,-10,0,10,20","media/audio/stims/spherical_300cm_s20_c20_cd-full_matched_a-10.wav","spherical","20","20","full","matched","-10","-20","1272"
"echo-presentation","47","420952","0.0-47.0","5e5d8f748627aa0a7ddf756c","5fef55e628823a0076ec12ee","60200e1976e6d65a69b5a16d","Mozilla/5.0 (Windows NT 10.0; Win64; x64) AppleWebKit/537.36 (KHTML, like Gecko) Chrome/88.0.4324.146 Safari/537.36","v1-up-stims","","","","","","","","-20,-10,0,10,20","media/audio/stims/spherical_300cm_s20_c20_cd-full_matched_a20.wav","spherical","20","20","full","matched","20","10","1248"
"echo-presentation","48","424904","0.0-48.0","5e5d8f748627aa0a7ddf756c","5fef55e628823a0076ec12ee","60200e1976e6d65a69b5a16d","Mozilla/5.0 (Windows NT 10.0; Win64; x64) AppleWebKit/537.36 (KHTML, like Gecko) Chrome/88.0.4324.146 Safari/537.36","v1-up-stims","","","","","","","","-20,-10,0,10,20","media/audio/stims/spherical_300cm_s20_c20_cd-full_matched_a-10.wav","spherical","20","20","full","matched","-10","0","3108"
"echo-presentation","49","427770","0.0-49.0","5e5d8f748627aa0a7ddf756c","5fef55e628823a0076ec12ee","60200e1976e6d65a69b5a16d","Mozilla/5.0 (Windows NT 10.0; Win64; x64) AppleWebKit/537.36 (KHTML, like Gecko) Chrome/88.0.4324.146 Safari/537.36","v1-up-stims","","","","","","","","-20,-10,0,10,20","media/audio/stims/spherical_300cm_s20_c20_cd-full_matched_a10.wav","spherical","20","20","full","matched","10","0","1726"
"block-bookend","50","429221","0.0-50.0","5e5d8f748627aa0a7ddf756c","5fef55e628823a0076ec12ee","60200e1976e6d65a69b5a16d","Mozilla/5.0 (Windows NT 10.0; Win64; x64) AppleWebKit/537.36 (KHTML, like Gecko) Chrome/88.0.4324.146 Safari/537.36","v1-up-stims","","","","","","","","","","","","","","","","",""
"block-bookend","51","442004","0.0-51.0","5e5d8f748627aa0a7ddf756c","5fef55e628823a0076ec12ee","60200e1976e6d65a69b5a16d","Mozilla/5.0 (Windows NT 10.0; Win64; x64) AppleWebKit/537.36 (KHTML, like Gecko) Chrome/88.0.4324.146 Safari/537.36","v1-up-stims","","","","","","","","","","","","","","","","",""
"echo-presentation","52","444648","0.0-52.0","5e5d8f748627aa0a7ddf756c","5fef55e628823a0076ec12ee","60200e1976e6d65a69b5a16d","Mozilla/5.0 (Windows NT 10.0; Win64; x64) AppleWebKit/537.36 (KHTML, like Gecko) Chrome/88.0.4324.146 Safari/537.36","v1-up-stims","","","","","","","","40,50,60,70,80","media/audio/stims/spherical_300cm_s20_c20_cd-full_matched_a50.wav","spherical","20","20","full","matched","50","80","1580"
"echo-presentation","53","448319","0.0-53.0","5e5d8f748627aa0a7ddf756c","5fef55e628823a0076ec12ee","60200e1976e6d65a69b5a16d","Mozilla/5.0 (Windows NT 10.0; Win64; x64) AppleWebKit/537.36 (KHTML, like Gecko) Chrome/88.0.4324.146 Safari/537.36","v1-up-stims","","","","","","","","40,50,60,70,80","media/audio/stims/spherical_300cm_s20_c20_cd-full_matched_a60.wav","spherical","20","20","full","matched","60","80","1433"
"echo-presentation","54","451494","0.0-54.0","5e5d8f748627aa0a7ddf756c","5fef55e628823a0076ec12ee","60200e1976e6d65a69b5a16d","Mozilla/5.0 (Windows NT 10.0; Win64; x64) AppleWebKit/537.36 (KHTML, like Gecko) Chrome/88.0.4324.146 Safari/537.36","v1-up-stims","","","","","","","","40,50,60,70,80","media/audio/stims/spherical_300cm_s20_c20_cd-full_matched_a50.wav","spherical","20","20","full","matched","50","80","1931"
"echo-presentation","55","455130","0.0-55.0","5e5d8f748627aa0a7ddf756c","5fef55e628823a0076ec12ee","60200e1976e6d65a69b5a16d","Mozilla/5.0 (Windows NT 10.0; Win64; x64) AppleWebKit/537.36 (KHTML, like Gecko) Chrome/88.0.4324.146 Safari/537.36","v1-up-stims","","","","","","","","40,50,60,70,80","media/audio/stims/spherical_300cm_s20_c20_cd-full_matched_a50.wav","spherical","20","20","full","matched","50","80","2563"
"echo-presentation","56","458162","0.0-56.0","5e5d8f748627aa0a7ddf756c","5fef55e628823a0076ec12ee","60200e1976e6d65a69b5a16d","Mozilla/5.0 (Windows NT 10.0; Win64; x64) AppleWebKit/537.36 (KHTML, like Gecko) Chrome/88.0.4324.146 Safari/537.36","v1-up-stims","","","","","","","","40,50,60,70,80","media/audio/stims/spherical_300cm_s20_c20_cd-full_matched_a60.wav","spherical","20","20","full","matched","60","80","1954"
"echo-presentation","57","463543","0.0-57.0","5e5d8f748627aa0a7ddf756c","5fef55e628823a0076ec12ee","60200e1976e6d65a69b5a16d","Mozilla/5.0 (Windows NT 10.0; Win64; x64) AppleWebKit/537.36 (KHTML, like Gecko) Chrome/88.0.4324.146 Safari/537.36","v1-up-stims","","","","","","","","40,50,60,70,80","media/audio/stims/spherical_300cm_s20_c20_cd-full_matched_a70.wav","spherical","20","20","full","matched","70","80","3580"
"echo-presentation","58","468187","0.0-58.0","5e5d8f748627aa0a7ddf756c","5fef55e628823a0076ec12ee","60200e1976e6d65a69b5a16d","Mozilla/5.0 (Windows NT 10.0; Win64; x64) AppleWebKit/537.36 (KHTML, like Gecko) Chrome/88.0.4324.146 Safari/537.36","v1-up-stims","","","","","","","","40,50,60,70,80","media/audio/stims/spherical_300cm_s20_c20_cd-full_matched_a80.wav","spherical","20","20","full","matched","80","70","3153"
"echo-presentation","59","470806","0.0-59.0","5e5d8f748627aa0a7ddf756c","5fef55e628823a0076ec12ee","60200e1976e6d65a69b5a16d","Mozilla/5.0 (Windows NT 10.0; Win64; x64) AppleWebKit/537.36 (KHTML, like Gecko) Chrome/88.0.4324.146 Safari/537.36","v1-up-stims","","","","","","","","40,50,60,70,80","media/audio/stims/spherical_300cm_s20_c20_cd-full_matched_a60.wav","spherical","20","20","full","matched","60","70","1814"
"echo-presentation","60","473528","0.0-60.0","5e5d8f748627aa0a7ddf756c","5fef55e628823a0076ec12ee","60200e1976e6d65a69b5a16d","Mozilla/5.0 (Windows NT 10.0; Win64; x64) AppleWebKit/537.36 (KHTML, like Gecko) Chrome/88.0.4324.146 Safari/537.36","v1-up-stims","","","","","","","","40,50,60,70,80","media/audio/stims/spherical_300cm_s20_c20_cd-full_matched_a40.wav","spherical","20","20","full","matched","40","80","1891"
"echo-presentation","61","475781","0.0-61.0","5e5d8f748627aa0a7ddf756c","5fef55e628823a0076ec12ee","60200e1976e6d65a69b5a16d","Mozilla/5.0 (Windows NT 10.0; Win64; x64) AppleWebKit/537.36 (KHTML, like Gecko) Chrome/88.0.4324.146 Safari/537.36","v1-up-stims","","","","","","","","40,50,60,70,80","media/audio/stims/spherical_300cm_s20_c20_cd-full_matched_a40.wav","spherical","20","20","full","matched","40","80","1454"
"echo-presentation","62","478253","0.0-62.0","5e5d8f748627aa0a7ddf756c","5fef55e628823a0076ec12ee","60200e1976e6d65a69b5a16d","Mozilla/5.0 (Windows NT 10.0; Win64; x64) AppleWebKit/537.36 (KHTML, like Gecko) Chrome/88.0.4324.146 Safari/537.36","v1-up-stims","","","","","","","","40,50,60,70,80","media/audio/stims/spherical_300cm_s20_c20_cd-full_matched_a40.wav","spherical","20","20","full","matched","40","80","1661"
"echo-presentation","63","480443","0.0-63.0","5e5d8f748627aa0a7ddf756c","5fef55e628823a0076ec12ee","60200e1976e6d65a69b5a16d","Mozilla/5.0 (Windows NT 10.0; Win64; x64) AppleWebKit/537.36 (KHTML, like Gecko) Chrome/88.0.4324.146 Safari/537.36","v1-up-stims","","","","","","","","40,50,60,70,80","media/audio/stims/spherical_300cm_s20_c20_cd-full_matched_a70.wav","spherical","20","20","full","matched","70","70","1271"
"echo-presentation","64","486169","0.0-64.0","5e5d8f748627aa0a7ddf756c","5fef55e628823a0076ec12ee","60200e1976e6d65a69b5a16d","Mozilla/5.0 (Windows NT 10.0; Win64; x64) AppleWebKit/537.36 (KHTML, like Gecko) Chrome/88.0.4324.146 Safari/537.36","v1-up-stims","","","","","","","","40,50,60,70,80","media/audio/stims/spherical_300cm_s20_c20_cd-full_matched_a50.wav","spherical","20","20","full","matched","50","80","4361"
"echo-presentation","65","489504","0.0-65.0","5e5d8f748627aa0a7ddf756c","5fef55e628823a0076ec12ee","60200e1976e6d65a69b5a16d","Mozilla/5.0 (Windows NT 10.0; Win64; x64) AppleWebKit/537.36 (KHTML, like Gecko) Chrome/88.0.4324.146 Safari/537.36","v1-up-stims","","","","","","","","40,50,60,70,80","media/audio/stims/spherical_300cm_s20_c20_cd-full_matched_a40.wav","spherical","20","20","full","matched","40","80","2266"
"echo-presentation","66","491595","0.0-66.0","5e5d8f748627aa0a7ddf756c","5fef55e628823a0076ec12ee","60200e1976e6d65a69b5a16d","Mozilla/5.0 (Windows NT 10.0; Win64; x64) AppleWebKit/537.36 (KHTML, like Gecko) Chrome/88.0.4324.146 Safari/537.36","v1-up-stims","","","","","","","","40,50,60,70,80","media/audio/stims/spherical_300cm_s20_c20_cd-full_matched_a70.wav","spherical","20","20","full","matched","70","60","1321"
"echo-presentation","67","494584","0.0-67.0","5e5d8f748627aa0a7ddf756c","5fef55e628823a0076ec12ee","60200e1976e6d65a69b5a16d","Mozilla/5.0 (Windows NT 10.0; Win64; x64) AppleWebKit/537.36 (KHTML, like Gecko) Chrome/88.0.4324.146 Safari/537.36","v1-up-stims","","","","","","","","40,50,60,70,80","media/audio/stims/spherical_300cm_s20_c20_cd-full_matched_a80.wav","spherical","20","20","full","matched","80","70","2024"
"echo-presentation","68","498223","0.0-68.0","5e5d8f748627aa0a7ddf756c","5fef55e628823a0076ec12ee","60200e1976e6d65a69b5a16d","Mozilla/5.0 (Windows NT 10.0; Win64; x64) AppleWebKit/537.36 (KHTML, like Gecko) Chrome/88.0.4324.146 Safari/537.36","v1-up-stims","","","","","","","","40,50,60,70,80","media/audio/stims/spherical_300cm_s20_c20_cd-full_matched_a80.wav","spherical","20","20","full","matched","80","70","2828"
"echo-presentation","69","500290","0.0-69.0","5e5d8f748627aa0a7ddf756c","5fef55e628823a0076ec12ee","60200e1976e6d65a69b5a16d","Mozilla/5.0 (Windows NT 10.0; Win64; x64) AppleWebKit/537.36 (KHTML, like Gecko) Chrome/88.0.4324.146 Safari/537.36","v1-up-stims","","","","","","","","40,50,60,70,80","media/audio/stims/spherical_300cm_s20_c20_cd-full_matched_a60.wav","spherical","20","20","full","matched","60","80","1187"
"echo-presentation","70","502574","0.0-70.0","5e5d8f748627aa0a7ddf756c","5fef55e628823a0076ec12ee","60200e1976e6d65a69b5a16d","Mozilla/5.0 (Windows NT 10.0; Win64; x64) AppleWebKit/537.36 (KHTML, like Gecko) Chrome/88.0.4324.146 Safari/537.36","v1-up-stims","","","","","","","","40,50,60,70,80","media/audio/stims/spherical_300cm_s20_c20_cd-full_matched_a80.wav","spherical","20","20","full","matched","80","80","1234"
"echo-presentation","71","504508","0.0-71.0","5e5d8f748627aa0a7ddf756c","5fef55e628823a0076ec12ee","60200e1976e6d65a69b5a16d","Mozilla/5.0 (Windows NT 10.0; Win64; x64) AppleWebKit/537.36 (KHTML, like Gecko) Chrome/88.0.4324.146 Safari/537.36","v1-up-stims","","","","","","","","40,50,60,70,80","media/audio/stims/spherical_300cm_s20_c20_cd-full_matched_a70.wav","spherical","20","20","full","matched","70","80","1170"
"block-bookend","72","505674","0.0-72.0","5e5d8f748627aa0a7ddf756c","5fef55e628823a0076ec12ee","60200e1976e6d65a69b5a16d","Mozilla/5.0 (Windows NT 10.0; Win64; x64) AppleWebKit/537.36 (KHTML, like Gecko) Chrome/88.0.4324.146 Safari/537.36","v1-up-stims","","","","","","","","","","","","","","","","",""
"block-bookend","73","520312","0.0-73.0","5e5d8f748627aa0a7ddf756c","5fef55e628823a0076ec12ee","60200e1976e6d65a69b5a16d","Mozilla/5.0 (Windows NT 10.0; Win64; x64) AppleWebKit/537.36 (KHTML, like Gecko) Chrome/88.0.4324.146 Safari/537.36","v1-up-stims","","","","","","","","","","","","","","","","",""
"echo-presentation","74","523187","0.0-74.0","5e5d8f748627aa0a7ddf756c","5fef55e628823a0076ec12ee","60200e1976e6d65a69b5a16d","Mozilla/5.0 (Windows NT 10.0; Win64; x64) AppleWebKit/537.36 (KHTML, like Gecko) Chrome/88.0.4324.146 Safari/537.36","v1-up-stims","","","","","","","","40,50,60,70,80","media/audio/stims/spherical_300cm_s20_c20_cd-full_matched_a80.wav","spherical","20","20","full","matched","80","80","1471"
"echo-presentation","75","525410","0.0-75.0","5e5d8f748627aa0a7ddf756c","5fef55e628823a0076ec12ee","60200e1976e6d65a69b5a16d","Mozilla/5.0 (Windows NT 10.0; Win64; x64) AppleWebKit/537.36 (KHTML, like Gecko) Chrome/88.0.4324.146 Safari/537.36","v1-up-stims","","","","","","","","40,50,60,70,80","media/audio/stims/spherical_300cm_s20_c20_cd-full_matched_a60.wav","spherical","20","20","full","matched","60","70","1247"
"echo-presentation","76","528289","0.0-76.0","5e5d8f748627aa0a7ddf756c","5fef55e628823a0076ec12ee","60200e1976e6d65a69b5a16d","Mozilla/5.0 (Windows NT 10.0; Win64; x64) AppleWebKit/537.36 (KHTML, like Gecko) Chrome/88.0.4324.146 Safari/537.36","v1-up-stims","","","","","","","","40,50,60,70,80","media/audio/stims/spherical_300cm_s20_c20_cd-full_matched_a60.wav","spherical","20","20","full","matched","60","70","1753"
"echo-presentation","77","531093","0.0-77.0","5e5d8f748627aa0a7ddf756c","5fef55e628823a0076ec12ee","60200e1976e6d65a69b5a16d","Mozilla/5.0 (Windows NT 10.0; Win64; x64) AppleWebKit/537.36 (KHTML, like Gecko) Chrome/88.0.4324.146 Safari/537.36","v1-up-stims","","","","","","","","40,50,60,70,80","media/audio/stims/spherical_300cm_s20_c20_cd-full_matched_a50.wav","spherical","20","20","full","matched","50","60","1860"
"echo-presentation","78","533227","0.0-78.0","5e5d8f748627aa0a7ddf756c","5fef55e628823a0076ec12ee","60200e1976e6d65a69b5a16d","Mozilla/5.0 (Windows NT 10.0; Win64; x64) AppleWebKit/537.36 (KHTML, like Gecko) Chrome/88.0.4324.146 Safari/537.36","v1-up-stims","","","","","","","","40,50,60,70,80","media/audio/stims/spherical_300cm_s20_c20_cd-full_matched_a70.wav","spherical","20","20","full","matched","70","70","1377"
"echo-presentation","79","535103","0.0-79.0","5e5d8f748627aa0a7ddf756c","5fef55e628823a0076ec12ee","60200e1976e6d65a69b5a16d","Mozilla/5.0 (Windows NT 10.0; Win64; x64) AppleWebKit/537.36 (KHTML, like Gecko) Chrome/88.0.4324.146 Safari/537.36","v1-up-stims","","","","","","","","40,50,60,70,80","media/audio/stims/spherical_300cm_s20_c20_cd-full_matched_a80.wav","spherical","20","20","full","matched","80","80","1137"
"echo-presentation","80","536914","0.0-80.0","5e5d8f748627aa0a7ddf756c","5fef55e628823a0076ec12ee","60200e1976e6d65a69b5a16d","Mozilla/5.0 (Windows NT 10.0; Win64; x64) AppleWebKit/537.36 (KHTML, like Gecko) Chrome/88.0.4324.146 Safari/537.36","v1-up-stims","","","","","","","","40,50,60,70,80","media/audio/stims/spherical_300cm_s20_c20_cd-full_matched_a80.wav","spherical","20","20","full","matched","80","80","1033"
"echo-presentation","81","540794","0.0-81.0","5e5d8f748627aa0a7ddf756c","5fef55e628823a0076ec12ee","60200e1976e6d65a69b5a16d","Mozilla/5.0 (Windows NT 10.0; Win64; x64) AppleWebKit/537.36 (KHTML, like Gecko) Chrome/88.0.4324.146 Safari/537.36","v1-up-stims","","","","","","","","40,50,60,70,80","media/audio/stims/spherical_300cm_s20_c20_cd-full_matched_a50.wav","spherical","20","20","full","matched","50","70","3118"
"echo-presentation","82","542764","0.0-82.0","5e5d8f748627aa0a7ddf756c","5fef55e628823a0076ec12ee","60200e1976e6d65a69b5a16d","Mozilla/5.0 (Windows NT 10.0; Win64; x64) AppleWebKit/537.36 (KHTML, like Gecko) Chrome/88.0.4324.146 Safari/537.36","v1-up-stims","","","","","","","","40,50,60,70,80","media/audio/stims/spherical_300cm_s20_c20_cd-full_matched_a60.wav","spherical","20","20","full","matched","60","70","1212"
"echo-presentation","83","544901","0.0-83.0","5e5d8f748627aa0a7ddf756c","5fef55e628823a0076ec12ee","60200e1976e6d65a69b5a16d","Mozilla/5.0 (Windows NT 10.0; Win64; x64) AppleWebKit/537.36 (KHTML, like Gecko) Chrome/88.0.4324.146 Safari/537.36","v1-up-stims","","","","","","","","40,50,60,70,80","media/audio/stims/spherical_300cm_s20_c20_cd-full_matched_a70.wav","spherical","20","20","full","matched","70","70","1393"
"echo-presentation","84","546785","0.0-84.0","5e5d8f748627aa0a7ddf756c","5fef55e628823a0076ec12ee","60200e1976e6d65a69b5a16d","Mozilla/5.0 (Windows NT 10.0; Win64; x64) AppleWebKit/537.36 (KHTML, like Gecko) Chrome/88.0.4324.146 Safari/537.36","v1-up-stims","","","","","","","","40,50,60,70,80","media/audio/stims/spherical_300cm_s20_c20_cd-full_matched_a80.wav","spherical","20","20","full","matched","80","80","1125"
"echo-presentation","85","549627","0.0-85.0","5e5d8f748627aa0a7ddf756c","5fef55e628823a0076ec12ee","60200e1976e6d65a69b5a16d","Mozilla/5.0 (Windows NT 10.0; Win64; x64) AppleWebKit/537.36 (KHTML, like Gecko) Chrome/88.0.4324.146 Safari/537.36","v1-up-stims","","","","","","","","40,50,60,70,80","media/audio/stims/spherical_300cm_s20_c20_cd-full_matched_a60.wav","spherical","20","20","full","matched","60","60","1992"
"echo-presentation","86","551986","0.0-86.0","5e5d8f748627aa0a7ddf756c","5fef55e628823a0076ec12ee","60200e1976e6d65a69b5a16d","Mozilla/5.0 (Windows NT 10.0; Win64; x64) AppleWebKit/537.36 (KHTML, like Gecko) Chrome/88.0.4324.146 Safari/537.36","v1-up-stims","","","","","","","","40,50,60,70,80","media/audio/stims/spherical_300cm_s20_c20_cd-full_matched_a70.wav","spherical","20","20","full","matched","70","70","1601"
"echo-presentation","87","554787","0.0-87.0","5e5d8f748627aa0a7ddf756c","5fef55e628823a0076ec12ee","60200e1976e6d65a69b5a16d","Mozilla/5.0 (Windows NT 10.0; Win64; x64) AppleWebKit/537.36 (KHTML, like Gecko) Chrome/88.0.4324.146 Safari/537.36","v1-up-stims","","","","","","","","40,50,60,70,80","media/audio/stims/spherical_300cm_s20_c20_cd-full_matched_a40.wav","spherical","20","20","full","matched","40","50","2036"
"echo-presentation","88","557399","0.0-88.0","5e5d8f748627aa0a7ddf756c","5fef55e628823a0076ec12ee","60200e1976e6d65a69b5a16d","Mozilla/5.0 (Windows NT 10.0; Win64; x64) AppleWebKit/537.36 (KHTML, like Gecko) Chrome/88.0.4324.146 Safari/537.36","v1-up-stims","","","","","","","","40,50,60,70,80","media/audio/stims/spherical_300cm_s20_c20_cd-full_matched_a50.wav","spherical","20","20","full","matched","50","50","1815"
"echo-presentation","89","559464","0.0-89.0","5e5d8f748627aa0a7ddf756c","5fef55e628823a0076ec12ee","60200e1976e6d65a69b5a16d","Mozilla/5.0 (Windows NT 10.0; Win64; x64) AppleWebKit/537.36 (KHTML, like Gecko) Chrome/88.0.4324.146 Safari/537.36","v1-up-stims","","","","","","","","40,50,60,70,80","media/audio/stims/spherical_300cm_s20_c20_cd-full_matched_a40.wav","spherical","20","20","full","matched","40","60","1237"
"echo-presentation","90","561511","0.0-90.0","5e5d8f748627aa0a7ddf756c","5fef55e628823a0076ec12ee","60200e1976e6d65a69b5a16d","Mozilla/5.0 (Windows NT 10.0; Win64; x64) AppleWebKit/537.36 (KHTML, like Gecko) Chrome/88.0.4324.146 Safari/537.36","v1-up-stims","","","","","","","","40,50,60,70,80","media/audio/stims/spherical_300cm_s20_c20_cd-full_matched_a50.wav","spherical","20","20","full","matched","50","50","1276"
"echo-presentation","91","564046","0.0-91.0","5e5d8f748627aa0a7ddf756c","5fef55e628823a0076ec12ee","60200e1976e6d65a69b5a16d","Mozilla/5.0 (Windows NT 10.0; Win64; x64) AppleWebKit/537.36 (KHTML, like Gecko) Chrome/88.0.4324.146 Safari/537.36","v1-up-stims","","","","","","","","40,50,60,70,80","media/audio/stims/spherical_300cm_s20_c20_cd-full_matched_a40.wav","spherical","20","20","full","matched","40","40","1632"
"echo-presentation","92","566170","0.0-92.0","5e5d8f748627aa0a7ddf756c","5fef55e628823a0076ec12ee","60200e1976e6d65a69b5a16d","Mozilla/5.0 (Windows NT 10.0; Win64; x64) AppleWebKit/537.36 (KHTML, like Gecko) Chrome/88.0.4324.146 Safari/537.36","v1-up-stims","","","","","","","","40,50,60,70,80","media/audio/stims/spherical_300cm_s20_c20_cd-full_matched_a40.wav","spherical","20","20","full","matched","40","50","1262"
"echo-presentation","93","568439","0.0-93.0","5e5d8f748627aa0a7ddf756c","5fef55e628823a0076ec12ee","60200e1976e6d65a69b5a16d","Mozilla/5.0 (Windows NT 10.0; Win64; x64) AppleWebKit/537.36 (KHTML, like Gecko) Chrome/88.0.4324.146 Safari/537.36","v1-up-stims","","","","","","","","40,50,60,70,80","media/audio/stims/spherical_300cm_s20_c20_cd-full_matched_a70.wav","spherical","20","20","full","matched","70","60","1251"
"block-bookend","94","570350","0.0-94.0","5e5d8f748627aa0a7ddf756c","5fef55e628823a0076ec12ee","60200e1976e6d65a69b5a16d","Mozilla/5.0 (Windows NT 10.0; Win64; x64) AppleWebKit/537.36 (KHTML, like Gecko) Chrome/88.0.4324.146 Safari/537.36","v1-up-stims","","","","","","","","","","","","","","","","",""
"block-bookend","95","577368","0.0-95.0","5e5d8f748627aa0a7ddf756c","5fef55e628823a0076ec12ee","60200e1976e6d65a69b5a16d","Mozilla/5.0 (Windows NT 10.0; Win64; x64) AppleWebKit/537.36 (KHTML, like Gecko) Chrome/88.0.4324.146 Safari/537.36","v1-up-stims","","","","","","","","","","","","","","","","",""
"echo-presentation","96","582277","0.0-96.0","5e5d8f748627aa0a7ddf756c","5fef55e628823a0076ec12ee","60200e1976e6d65a69b5a16d","Mozilla/5.0 (Windows NT 10.0; Win64; x64) AppleWebKit/537.36 (KHTML, like Gecko) Chrome/88.0.4324.146 Safari/537.36","v1-up-stims","","","","","","","","-80,-70,-60,-50,-40","media/audio/stims/spherical_300cm_s20_c20_cd-full_matched_a-60.wav","spherical","20","20","full","matched","-60","-50","3500"
"echo-presentation","97","585032","0.0-97.0","5e5d8f748627aa0a7ddf756c","5fef55e628823a0076ec12ee","60200e1976e6d65a69b5a16d","Mozilla/5.0 (Windows NT 10.0; Win64; x64) AppleWebKit/537.36 (KHTML, like Gecko) Chrome/88.0.4324.146 Safari/537.36","v1-up-stims","","","","","","","","-80,-70,-60,-50,-40","media/audio/stims/spherical_300cm_s20_c20_cd-full_matched_a-70.wav","spherical","20","20","full","matched","-70","-60","1784"
"echo-presentation","98","587316","0.0-98.0","5e5d8f748627aa0a7ddf756c","5fef55e628823a0076ec12ee","60200e1976e6d65a69b5a16d","Mozilla/5.0 (Windows NT 10.0; Win64; x64) AppleWebKit/537.36 (KHTML, like Gecko) Chrome/88.0.4324.146 Safari/537.36","v1-up-stims","","","","","","","","-80,-70,-60,-50,-40","media/audio/stims/spherical_300cm_s20_c20_cd-full_matched_a-50.wav","spherical","20","20","full","matched","-50","-40","1486"
"echo-presentation","99","590011","0.0-99.0","5e5d8f748627aa0a7ddf756c","5fef55e628823a0076ec12ee","60200e1976e6d65a69b5a16d","Mozilla/5.0 (Windows NT 10.0; Win64; x64) AppleWebKit/537.36 (KHTML, like Gecko) Chrome/88.0.4324.146 Safari/537.36","v1-up-stims","","","","","","","","-80,-70,-60,-50,-40","media/audio/stims/spherical_300cm_s20_c20_cd-full_matched_a-70.wav","spherical","20","20","full","matched","-70","-60","1786"
"echo-presentation","100","591943","0.0-100.0","5e5d8f748627aa0a7ddf756c","5fef55e628823a0076ec12ee","60200e1976e6d65a69b5a16d","Mozilla/5.0 (Windows NT 10.0; Win64; x64) AppleWebKit/537.36 (KHTML, like Gecko) Chrome/88.0.4324.146 Safari/537.36","v1-up-stims","","","","","","","","-80,-70,-60,-50,-40","media/audio/stims/spherical_300cm_s20_c20_cd-full_matched_a-60.wav","spherical","20","20","full","matched","-60","-60","1228"
"echo-presentation","101","594433","0.0-101.0","5e5d8f748627aa0a7ddf756c","5fef55e628823a0076ec12ee","60200e1976e6d65a69b5a16d","Mozilla/5.0 (Windows NT 10.0; Win64; x64) AppleWebKit/537.36 (KHTML, like Gecko) Chrome/88.0.4324.146 Safari/537.36","v1-up-stims","","","","","","","","-80,-70,-60,-50,-40","media/audio/stims/spherical_300cm_s20_c20_cd-full_matched_a-70.wav","spherical","20","20","full","matched","-70","-50","1714"
"echo-presentation","102","597218","0.0-102.0","5e5d8f748627aa0a7ddf756c","5fef55e628823a0076ec12ee","60200e1976e6d65a69b5a16d","Mozilla/5.0 (Windows NT 10.0; Win64; x64) AppleWebKit/537.36 (KHTML, like Gecko) Chrome/88.0.4324.146 Safari/537.36","v1-up-stims","","","","","","","","-80,-70,-60,-50,-40","media/audio/stims/spherical_300cm_s20_c20_cd-full_matched_a-80.wav","spherical","20","20","full","matched","-80","-80","1432"
"echo-presentation","103","599099","0.0-103.0","5e5d8f748627aa0a7ddf756c","5fef55e628823a0076ec12ee","60200e1976e6d65a69b5a16d","Mozilla/5.0 (Windows NT 10.0; Win64; x64) AppleWebKit/537.36 (KHTML, like Gecko) Chrome/88.0.4324.146 Safari/537.36","v1-up-stims","","","","","","","","-80,-70,-60,-50,-40","media/audio/stims/spherical_300cm_s20_c20_cd-full_matched_a-80.wav","spherical","20","20","full","matched","-80","-80","986"
"echo-presentation","104","601811","0.0-104.0","5e5d8f748627aa0a7ddf756c","5fef55e628823a0076ec12ee","60200e1976e6d65a69b5a16d","Mozilla/5.0 (Windows NT 10.0; Win64; x64) AppleWebKit/537.36 (KHTML, like Gecko) Chrome/88.0.4324.146 Safari/537.36","v1-up-stims","","","","","","","","-80,-70,-60,-50,-40","media/audio/stims/spherical_300cm_s20_c20_cd-full_matched_a-40.wav","spherical","20","20","full","matched","-40","-40","1844"
"echo-presentation","105","604111","0.0-105.0","5e5d8f748627aa0a7ddf756c","5fef55e628823a0076ec12ee","60200e1976e6d65a69b5a16d","Mozilla/5.0 (Windows NT 10.0; Win64; x64) AppleWebKit/537.36 (KHTML, like Gecko) Chrome/88.0.4324.146 Safari/537.36","v1-up-stims","","","","","","","","-80,-70,-60,-50,-40","media/audio/stims/spherical_300cm_s20_c20_cd-full_matched_a-50.wav","spherical","20","20","full","matched","-50","-50","1525"
"echo-presentation","106","606239","0.0-106.0","5e5d8f748627aa0a7ddf756c","5fef55e628823a0076ec12ee","60200e1976e6d65a69b5a16d","Mozilla/5.0 (Windows NT 10.0; Win64; x64) AppleWebKit/537.36 (KHTML, like Gecko) Chrome/88.0.4324.146 Safari/537.36","v1-up-stims","","","","","","","","-80,-70,-60,-50,-40","media/audio/stims/spherical_300cm_s20_c20_cd-full_matched_a-80.wav","spherical","20","20","full","matched","-80","-70","1143"
"echo-presentation","107","609077","0.0-107.0","5e5d8f748627aa0a7ddf756c","5fef55e628823a0076ec12ee","60200e1976e6d65a69b5a16d","Mozilla/5.0 (Windows NT 10.0; Win64; x64) AppleWebKit/537.36 (KHTML, like Gecko) Chrome/88.0.4324.146 Safari/537.36","v1-up-stims","","","","","","","","-80,-70,-60,-50,-40","media/audio/stims/spherical_300cm_s20_c20_cd-full_matched_a-40.wav","spherical","20","20","full","matched","-40","-40","1853"
"echo-presentation","108","611757","0.0-108.0","5e5d8f748627aa0a7ddf756c","5fef55e628823a0076ec12ee","60200e1976e6d65a69b5a16d","Mozilla/5.0 (Windows NT 10.0; Win64; x64) AppleWebKit/537.36 (KHTML, like Gecko) Chrome/88.0.4324.146 Safari/537.36","v1-up-stims","","","","","","","","-80,-70,-60,-50,-40","media/audio/stims/spherical_300cm_s20_c20_cd-full_matched_a-50.wav","spherical","20","20","full","matched","-50","-50","1773"
"echo-presentation","109","614439","0.0-109.0","5e5d8f748627aa0a7ddf756c","5fef55e628823a0076ec12ee","60200e1976e6d65a69b5a16d","Mozilla/5.0 (Windows NT 10.0; Win64; x64) AppleWebKit/537.36 (KHTML, like Gecko) Chrome/88.0.4324.146 Safari/537.36","v1-up-stims","","","","","","","","-80,-70,-60,-50,-40","media/audio/stims/spherical_300cm_s20_c20_cd-full_matched_a-40.wav","spherical","20","20","full","matched","-40","-50","1583"
"echo-presentation","110","617066","0.0-110.0","5e5d8f748627aa0a7ddf756c","5fef55e628823a0076ec12ee","60200e1976e6d65a69b5a16d","Mozilla/5.0 (Windows NT 10.0; Win64; x64) AppleWebKit/537.36 (KHTML, like Gecko) Chrome/88.0.4324.146 Safari/537.36","v1-up-stims","","","","","","","","-80,-70,-60,-50,-40","media/audio/stims/spherical_300cm_s20_c20_cd-full_matched_a-60.wav","spherical","20","20","full","matched","-60","-50","1457"
"echo-presentation","111","619465","0.0-111.0","5e5d8f748627aa0a7ddf756c","5fef55e628823a0076ec12ee","60200e1976e6d65a69b5a16d","Mozilla/5.0 (Windows NT 10.0; Win64; x64) AppleWebKit/537.36 (KHTML, like Gecko) Chrome/88.0.4324.146 Safari/537.36","v1-up-stims","","","","","","","","-80,-70,-60,-50,-40","media/audio/stims/spherical_300cm_s20_c20_cd-full_matched_a-50.wav","spherical","20","20","full","matched","-50","-50","1152"
"echo-presentation","112","621784","0.0-112.0","5e5d8f748627aa0a7ddf756c","5fef55e628823a0076ec12ee","60200e1976e6d65a69b5a16d","Mozilla/5.0 (Windows NT 10.0; Win64; x64) AppleWebKit/537.36 (KHTML, like Gecko) Chrome/88.0.4324.146 Safari/537.36","v1-up-stims","","","","","","","","-80,-70,-60,-50,-40","media/audio/stims/spherical_300cm_s20_c20_cd-full_matched_a-70.wav","spherical","20","20","full","matched","-70","-70","1195"
"echo-presentation","113","625072","0.0-113.0","5e5d8f748627aa0a7ddf756c","5fef55e628823a0076ec12ee","60200e1976e6d65a69b5a16d","Mozilla/5.0 (Windows NT 10.0; Win64; x64) AppleWebKit/537.36 (KHTML, like Gecko) Chrome/88.0.4324.146 Safari/537.36","v1-up-stims","","","","","","","","-80,-70,-60,-50,-40","media/audio/stims/spherical_300cm_s20_c20_cd-full_matched_a-60.wav","spherical","20","20","full","matched","-60","-60","1971"
"echo-presentation","114","627888","0.0-114.0","5e5d8f748627aa0a7ddf756c","5fef55e628823a0076ec12ee","60200e1976e6d65a69b5a16d","Mozilla/5.0 (Windows NT 10.0; Win64; x64) AppleWebKit/537.36 (KHTML, like Gecko) Chrome/88.0.4324.146 Safari/537.36","v1-up-stims","","","","","","","","-80,-70,-60,-50,-40","media/audio/stims/spherical_300cm_s20_c20_cd-full_matched_a-80.wav","spherical","20","20","full","matched","-80","-70","2028"
"echo-presentation","115","630341","0.0-115.0","5e5d8f748627aa0a7ddf756c","5fef55e628823a0076ec12ee","60200e1976e6d65a69b5a16d","Mozilla/5.0 (Windows NT 10.0; Win64; x64) AppleWebKit/537.36 (KHTML, like Gecko) Chrome/88.0.4324.146 Safari/537.36","v1-up-stims","","","","","","","","-80,-70,-60,-50,-40","media/audio/stims/spherical_300cm_s20_c20_cd-full_matched_a-40.wav","spherical","20","20","full","matched","-40","-60","1585"
"block-bookend","116","630997","0.0-116.0","5e5d8f748627aa0a7ddf756c","5fef55e628823a0076ec12ee","60200e1976e6d65a69b5a16d","Mozilla/5.0 (Windows NT 10.0; Win64; x64) AppleWebKit/537.36 (KHTML, like Gecko) Chrome/88.0.4324.146 Safari/537.36","v1-up-stims","","","","","","","","","","","","","","","","",""
"block-bookend","117","635702","0.0-117.0","5e5d8f748627aa0a7ddf756c","5fef55e628823a0076ec12ee","60200e1976e6d65a69b5a16d","Mozilla/5.0 (Windows NT 10.0; Win64; x64) AppleWebKit/537.36 (KHTML, like Gecko) Chrome/88.0.4324.146 Safari/537.36","v1-up-stims","","","","","","","","","","","","","","","","",""
"echo-presentation","118","638862","0.0-118.0","5e5d8f748627aa0a7ddf756c","5fef55e628823a0076ec12ee","60200e1976e6d65a69b5a16d","Mozilla/5.0 (Windows NT 10.0; Win64; x64) AppleWebKit/537.36 (KHTML, like Gecko) Chrome/88.0.4324.146 Safari/537.36","v1-up-stims","","","","","","","","-80,-70,-60,-50,-40","media/audio/stims/spherical_300cm_s20_c20_cd-full_matched_a-80.wav","spherical","20","20","full","matched","-80","-80","1283"
"echo-presentation","119","640776","0.0-119.0","5e5d8f748627aa0a7ddf756c","5fef55e628823a0076ec12ee","60200e1976e6d65a69b5a16d","Mozilla/5.0 (Windows NT 10.0; Win64; x64) AppleWebKit/537.36 (KHTML, like Gecko) Chrome/88.0.4324.146 Safari/537.36","v1-up-stims","","","","","","","","-80,-70,-60,-50,-40","media/audio/stims/spherical_300cm_s20_c20_cd-full_matched_a-80.wav","spherical","20","20","full","matched","-80","-80","1070"
"echo-presentation","120","643534","0.0-120.0","5e5d8f748627aa0a7ddf756c","5fef55e628823a0076ec12ee","60200e1976e6d65a69b5a16d","Mozilla/5.0 (Windows NT 10.0; Win64; x64) AppleWebKit/537.36 (KHTML, like Gecko) Chrome/88.0.4324.146 Safari/537.36","v1-up-stims","","","","","","","","-80,-70,-60,-50,-40","media/audio/stims/spherical_300cm_s20_c20_cd-full_matched_a-70.wav","spherical","20","20","full","matched","-70","-70","1669"
"echo-presentation","121","645533","0.0-121.0","5e5d8f748627aa0a7ddf756c","5fef55e628823a0076ec12ee","60200e1976e6d65a69b5a16d","Mozilla/5.0 (Windows NT 10.0; Win64; x64) AppleWebKit/537.36 (KHTML, like Gecko) Chrome/88.0.4324.146 Safari/537.36","v1-up-stims","","","","","","","","-80,-70,-60,-50,-40","media/audio/stims/spherical_300cm_s20_c20_cd-full_matched_a-80.wav","spherical","20","20","full","matched","-80","-80","1187"
"echo-presentation","122","647592","0.0-122.0","5e5d8f748627aa0a7ddf756c","5fef55e628823a0076ec12ee","60200e1976e6d65a69b5a16d","Mozilla/5.0 (Windows NT 10.0; Win64; x64) AppleWebKit/537.36 (KHTML, like Gecko) Chrome/88.0.4324.146 Safari/537.36","v1-up-stims","","","","","","","","-80,-70,-60,-50,-40","media/audio/stims/spherical_300cm_s20_c20_cd-full_matched_a-50.wav","spherical","20","20","full","matched","-50","-60","1180"
"echo-presentation","123","649510","0.0-123.0","5e5d8f748627aa0a7ddf756c","5fef55e628823a0076ec12ee","60200e1976e6d65a69b5a16d","Mozilla/5.0 (Windows NT 10.0; Win64; x64) AppleWebKit/537.36 (KHTML, like Gecko) Chrome/88.0.4324.146 Safari/537.36","v1-up-stims","","","","","","","","-80,-70,-60,-50,-40","media/audio/stims/spherical_300cm_s20_c20_cd-full_matched_a-60.wav","spherical","20","20","full","matched","-60","-50","1172"
"echo-presentation","124","651877","0.0-124.0","5e5d8f748627aa0a7ddf756c","5fef55e628823a0076ec12ee","60200e1976e6d65a69b5a16d","Mozilla/5.0 (Windows NT 10.0; Win64; x64) AppleWebKit/537.36 (KHTML, like Gecko) Chrome/88.0.4324.146 Safari/537.36","v1-up-stims","","","","","","","","-80,-70,-60,-50,-40","media/audio/stims/spherical_300cm_s20_c20_cd-full_matched_a-40.wav","spherical","20","20","full","matched","-40","-60","1341"
"echo-presentation","125","653909","0.0-125.0","5e5d8f748627aa0a7ddf756c","5fef55e628823a0076ec12ee","60200e1976e6d65a69b5a16d","Mozilla/5.0 (Windows NT 10.0; Win64; x64) AppleWebKit/537.36 (KHTML, like Gecko) Chrome/88.0.4324.146 Safari/537.36","v1-up-stims","","","","","","","","-80,-70,-60,-50,-40","media/audio/stims/spherical_300cm_s20_c20_cd-full_matched_a-40.wav","spherical","20","20","full","matched","-40","-60","1244"
"echo-presentation","126","657108","0.0-126.0","5e5d8f748627aa0a7ddf756c","5fef55e628823a0076ec12ee","60200e1976e6d65a69b5a16d","Mozilla/5.0 (Windows NT 10.0; Win64; x64) AppleWebKit/537.36 (KHTML, like Gecko) Chrome/88.0.4324.146 Safari/537.36","v1-up-stims","","","","","","","","-80,-70,-60,-50,-40","media/audio/stims/spherical_300cm_s20_c20_cd-full_matched_a-40.wav","spherical","20","20","full","matched","-40","-60","2086"
"echo-presentation","127","659095","0.0-127.0","5e5d8f748627aa0a7ddf756c","5fef55e628823a0076ec12ee","60200e1976e6d65a69b5a16d","Mozilla/5.0 (Windows NT 10.0; Win64; x64) AppleWebKit/537.36 (KHTML, like Gecko) Chrome/88.0.4324.146 Safari/537.36","v1-up-stims","","","","","","","","-80,-70,-60,-50,-40","media/audio/stims/spherical_300cm_s20_c20_cd-full_matched_a-50.wav","spherical","20","20","full","matched","-50","-70","1112"
"echo-presentation","128","661149","0.0-128.0","5e5d8f748627aa0a7ddf756c","5fef55e628823a0076ec12ee","60200e1976e6d65a69b5a16d","Mozilla/5.0 (Windows NT 10.0; Win64; x64) AppleWebKit/537.36 (KHTML, like Gecko) Chrome/88.0.4324.146 Safari/537.36","v1-up-stims","","","","","","","","-80,-70,-60,-50,-40","media/audio/stims/spherical_300cm_s20_c20_cd-full_matched_a-70.wav","spherical","20","20","full","matched","-70","-80","1038"
"echo-presentation","129","663504","0.0-129.0","5e5d8f748627aa0a7ddf756c","5fef55e628823a0076ec12ee","60200e1976e6d65a69b5a16d","Mozilla/5.0 (Windows NT 10.0; Win64; x64) AppleWebKit/537.36 (KHTML, like Gecko) Chrome/88.0.4324.146 Safari/537.36","v1-up-stims","","","","","","","","-80,-70,-60,-50,-40","media/audio/stims/spherical_300cm_s20_c20_cd-full_matched_a-70.wav","spherical","20","20","full","matched","-70","-80","1097"
"echo-presentation","130","665955","0.0-130.0","5e5d8f748627aa0a7ddf756c","5fef55e628823a0076ec12ee","60200e1976e6d65a69b5a16d","Mozilla/5.0 (Windows NT 10.0; Win64; x64) AppleWebKit/537.36 (KHTML, like Gecko) Chrome/88.0.4324.146 Safari/537.36","v1-up-stims","","","","","","","","-80,-70,-60,-50,-40","media/audio/stims/spherical_300cm_s20_c20_cd-full_matched_a-50.wav","spherical","20","20","full","matched","-50","-70","1252"
"echo-presentation","131","668138","0.0-131.0","5e5d8f748627aa0a7ddf756c","5fef55e628823a0076ec12ee","60200e1976e6d65a69b5a16d","Mozilla/5.0 (Windows NT 10.0; Win64; x64) AppleWebKit/537.36 (KHTML, like Gecko) Chrome/88.0.4324.146 Safari/537.36","v1-up-stims","","","","","","","","-80,-70,-60,-50,-40","media/audio/stims/spherical_300cm_s20_c20_cd-full_matched_a-80.wav","spherical","20","20","full","matched","-80","-80","1072"
"echo-presentation","132","670690","0.0-132.0","5e5d8f748627aa0a7ddf756c","5fef55e628823a0076ec12ee","60200e1976e6d65a69b5a16d","Mozilla/5.0 (Windows NT 10.0; Win64; x64) AppleWebKit/537.36 (KHTML, like Gecko) Chrome/88.0.4324.146 Safari/537.36","v1-up-stims","","","","","","","","-80,-70,-60,-50,-40","media/audio/stims/spherical_300cm_s20_c20_cd-full_matched_a-60.wav","spherical","20","20","full","matched","-60","-80","1253"
"echo-presentation","133","672909","0.0-133.0","5e5d8f748627aa0a7ddf756c","5fef55e628823a0076ec12ee","60200e1976e6d65a69b5a16d","Mozilla/5.0 (Windows NT 10.0; Win64; x64) AppleWebKit/537.36 (KHTML, like Gecko) Chrome/88.0.4324.146 Safari/537.36","v1-up-stims","","","","","","","","-80,-70,-60,-50,-40","media/audio/stims/spherical_300cm_s20_c20_cd-full_matched_a-60.wav","spherical","20","20","full","matched","-60","-70","1119"
"echo-presentation","134","675214","0.0-134.0","5e5d8f748627aa0a7ddf756c","5fef55e628823a0076ec12ee","60200e1976e6d65a69b5a16d","Mozilla/5.0 (Windows NT 10.0; Win64; x64) AppleWebKit/537.36 (KHTML, like Gecko) Chrome/88.0.4324.146 Safari/537.36","v1-up-stims","","","","","","","","-80,-70,-60,-50,-40","media/audio/stims/spherical_300cm_s20_c20_cd-full_matched_a-70.wav","spherical","20","20","full","matched","-70","-80","1088"
"echo-presentation","135","678572","0.0-135.0","5e5d8f748627aa0a7ddf756c","5fef55e628823a0076ec12ee","60200e1976e6d65a69b5a16d","Mozilla/5.0 (Windows NT 10.0; Win64; x64) AppleWebKit/537.36 (KHTML, like Gecko) Chrome/88.0.4324.146 Safari/537.36","v1-up-stims","","","","","","","","-80,-70,-60,-50,-40","media/audio/stims/spherical_300cm_s20_c20_cd-full_matched_a-50.wav","spherical","20","20","full","matched","-50","-60","2127"
"echo-presentation","136","680979","0.0-136.0","5e5d8f748627aa0a7ddf756c","5fef55e628823a0076ec12ee","60200e1976e6d65a69b5a16d","Mozilla/5.0 (Windows NT 10.0; Win64; x64) AppleWebKit/537.36 (KHTML, like Gecko) Chrome/88.0.4324.146 Safari/537.36","v1-up-stims","","","","","","","","-80,-70,-60,-50,-40","media/audio/stims/spherical_300cm_s20_c20_cd-full_matched_a-60.wav","spherical","20","20","full","matched","-60","-70","1306"
"echo-presentation","137","684038","0.0-137.0","5e5d8f748627aa0a7ddf756c","5fef55e628823a0076ec12ee","60200e1976e6d65a69b5a16d","Mozilla/5.0 (Windows NT 10.0; Win64; x64) AppleWebKit/537.36 (KHTML, like Gecko) Chrome/88.0.4324.146 Safari/537.36","v1-up-stims","","","","","","","","-80,-70,-60,-50,-40","media/audio/stims/spherical_300cm_s20_c20_cd-full_matched_a-40.wav","spherical","20","20","full","matched","-40","-60","1850"
"block-bookend","138","685963","0.0-138.0","5e5d8f748627aa0a7ddf756c","5fef55e628823a0076ec12ee","60200e1976e6d65a69b5a16d","Mozilla/5.0 (Windows NT 10.0; Win64; x64) AppleWebKit/537.36 (KHTML, like Gecko) Chrome/88.0.4324.146 Safari/537.36","v1-up-stims","","","","","","","","","","","","","","","","",""
