"trial_type","trial_index","time_elapsed","internal_node_id","prolificPid","studyId","sessionId","userAgent","version","rt","stimulus","key_press","chosenKeyset","failureCount","testIndex","globalVolume","choices","filename","modelName","slowdown","compensation","compensationDescriptor","receiverOrientationType","azimuth","responseAzimuth","responseDelay"
"pavlovia","0","3","0.0-0.0","5fb7aa66e80f073651b36132","60201dea606b8d5e5aa9e528","60201ebe3eb6e25d72273836","Mozilla/5.0 (Windows NT 10.0; Win64; x64) AppleWebKit/537.36 (KHTML, like Gecko) Chrome/88.0.4324.146 Safari/537.36","v1-up-stims","","","","","","","","","","","","","","","","",""
"html-keyboard-response","1","11685","0.0-1.0","5fb7aa66e80f073651b36132","60201dea606b8d5e5aa9e528","60201ebe3eb6e25d72273836","Mozilla/5.0 (Windows NT 10.0; Win64; x64) AppleWebKit/537.36 (KHTML, like Gecko) Chrome/88.0.4324.146 Safari/537.36","v1-up-stims","11681.404999981169","<div><h1>Welcome!</h1><p>Press any key to continue.</p></div>","13","","","","","","","","","","","","","",""
"consent-form","2","18265","0.0-2.0","5fb7aa66e80f073651b36132","60201dea606b8d5e5aa9e528","60201ebe3eb6e25d72273836","Mozilla/5.0 (Windows NT 10.0; Win64; x64) AppleWebKit/537.36 (KHTML, like Gecko) Chrome/88.0.4324.146 Safari/537.36","v1-up-stims","","","","","","","","","","","","","","","","",""
"keyset-select","3","47299","0.0-3.0","5fb7aa66e80f073651b36132","60201dea606b8d5e5aa9e528","60201ebe3eb6e25d72273836","Mozilla/5.0 (Windows NT 10.0; Win64; x64) AppleWebKit/537.36 (KHTML, like Gecko) Chrome/88.0.4324.146 Safari/537.36","v1-up-stims","","","","left-hand","","","","","","","","","","","","",""
"headphone-check","4","125581","0.0-4.0","5fb7aa66e80f073651b36132","60201dea606b8d5e5aa9e528","60201ebe3eb6e25d72273836","Mozilla/5.0 (Windows NT 10.0; Win64; x64) AppleWebKit/537.36 (KHTML, like Gecko) Chrome/88.0.4324.146 Safari/537.36","v1-up-stims","","","","","0","6","0.3","","","","","","","","","",""
"headphone-backwards-check","5","133345","0.0-5.0","5fb7aa66e80f073651b36132","60201dea606b8d5e5aa9e528","60201ebe3eb6e25d72273836","Mozilla/5.0 (Windows NT 10.0; Win64; x64) AppleWebKit/537.36 (KHTML, like Gecko) Chrome/88.0.4324.146 Safari/537.36","v1-up-stims","","","","","0","","","","","","","","","","","",""
"training","6","248602","0.0-6.0","5fb7aa66e80f073651b36132","60201dea606b8d5e5aa9e528","60201ebe3eb6e25d72273836","Mozilla/5.0 (Windows NT 10.0; Win64; x64) AppleWebKit/537.36 (KHTML, like Gecko) Chrome/88.0.4324.146 Safari/537.36","v1-up-stims","","","","","","","","","","","","","","","","",""
"block-bookend","7","265802","0.0-7.0","5fb7aa66e80f073651b36132","60201dea606b8d5e5aa9e528","60201ebe3eb6e25d72273836","Mozilla/5.0 (Windows NT 10.0; Win64; x64) AppleWebKit/537.36 (KHTML, like Gecko) Chrome/88.0.4324.146 Safari/537.36","v1-up-stims","","","","","","","","","","","","","","","","",""
"echo-presentation","8","285120","0.0-8.0","5fb7aa66e80f073651b36132","60201dea606b8d5e5aa9e528","60201ebe3eb6e25d72273836","Mozilla/5.0 (Windows NT 10.0; Win64; x64) AppleWebKit/537.36 (KHTML, like Gecko) Chrome/88.0.4324.146 Safari/537.36","v1-up-stims","","","","","","","","-80,-70,-60,-50,-40","media/audio/stims/spherical_300cm_s20_c1_cd-1_matched_a-40.wav","spherical","20","1","1","matched","-40","-40","12920"
"echo-presentation","9","290462","0.0-9.0","5fb7aa66e80f073651b36132","60201dea606b8d5e5aa9e528","60201ebe3eb6e25d72273836","Mozilla/5.0 (Windows NT 10.0; Win64; x64) AppleWebKit/537.36 (KHTML, like Gecko) Chrome/88.0.4324.146 Safari/537.36","v1-up-stims","","","","","","","","-80,-70,-60,-50,-40","media/audio/stims/spherical_300cm_s20_c1_cd-1_matched_a-80.wav","spherical","20","1","1","matched","-80","-80","1868"
"echo-presentation","10","294127","0.0-10.0","5fb7aa66e80f073651b36132","60201dea606b8d5e5aa9e528","60201ebe3eb6e25d72273836","Mozilla/5.0 (Windows NT 10.0; Win64; x64) AppleWebKit/537.36 (KHTML, like Gecko) Chrome/88.0.4324.146 Safari/537.36","v1-up-stims","","","","","","","","-80,-70,-60,-50,-40","media/audio/stims/spherical_300cm_s20_c1_cd-1_matched_a-70.wav","spherical","20","1","1","matched","-70","-80","2115"
"echo-presentation","11","296704","0.0-11.0","5fb7aa66e80f073651b36132","60201dea606b8d5e5aa9e528","60201ebe3eb6e25d72273836","Mozilla/5.0 (Windows NT 10.0; Win64; x64) AppleWebKit/537.36 (KHTML, like Gecko) Chrome/88.0.4324.146 Safari/537.36","v1-up-stims","","","","","","","","-80,-70,-60,-50,-40","media/audio/stims/spherical_300cm_s20_c1_cd-1_matched_a-60.wav","spherical","20","1","1","matched","-60","-80","1298"
"echo-presentation","12","299271","0.0-12.0","5fb7aa66e80f073651b36132","60201dea606b8d5e5aa9e528","60201ebe3eb6e25d72273836","Mozilla/5.0 (Windows NT 10.0; Win64; x64) AppleWebKit/537.36 (KHTML, like Gecko) Chrome/88.0.4324.146 Safari/537.36","v1-up-stims","","","","","","","","-80,-70,-60,-50,-40","media/audio/stims/spherical_300cm_s20_c1_cd-1_matched_a-40.wav","spherical","20","1","1","matched","-40","-80","1186"
"echo-presentation","13","301366","0.0-13.0","5fb7aa66e80f073651b36132","60201dea606b8d5e5aa9e528","60201ebe3eb6e25d72273836","Mozilla/5.0 (Windows NT 10.0; Win64; x64) AppleWebKit/537.36 (KHTML, like Gecko) Chrome/88.0.4324.146 Safari/537.36","v1-up-stims","","","","","","","","-80,-70,-60,-50,-40","media/audio/stims/spherical_300cm_s20_c1_cd-1_matched_a-70.wav","spherical","20","1","1","matched","-70","-80","1017"
"echo-presentation","14","304351","0.0-14.0","5fb7aa66e80f073651b36132","60201dea606b8d5e5aa9e528","60201ebe3eb6e25d72273836","Mozilla/5.0 (Windows NT 10.0; Win64; x64) AppleWebKit/537.36 (KHTML, like Gecko) Chrome/88.0.4324.146 Safari/537.36","v1-up-stims","","","","","","","","-80,-70,-60,-50,-40","media/audio/stims/spherical_300cm_s20_c1_cd-1_matched_a-50.wav","spherical","20","1","1","matched","-50","-80","1026"
"echo-presentation","15","306884","0.0-15.0","5fb7aa66e80f073651b36132","60201dea606b8d5e5aa9e528","60201ebe3eb6e25d72273836","Mozilla/5.0 (Windows NT 10.0; Win64; x64) AppleWebKit/537.36 (KHTML, like Gecko) Chrome/88.0.4324.146 Safari/537.36","v1-up-stims","","","","","","","","-80,-70,-60,-50,-40","media/audio/stims/spherical_300cm_s20_c1_cd-1_matched_a-70.wav","spherical","20","1","1","matched","-70","-80","1063"
"echo-presentation","16","309685","0.0-16.0","5fb7aa66e80f073651b36132","60201dea606b8d5e5aa9e528","60201ebe3eb6e25d72273836","Mozilla/5.0 (Windows NT 10.0; Win64; x64) AppleWebKit/537.36 (KHTML, like Gecko) Chrome/88.0.4324.146 Safari/537.36","v1-up-stims","","","","","","","","-80,-70,-60,-50,-40","media/audio/stims/spherical_300cm_s20_c1_cd-1_matched_a-80.wav","spherical","20","1","1","matched","-80","-80","1243"
"echo-presentation","17","312658","0.0-17.0","5fb7aa66e80f073651b36132","60201dea606b8d5e5aa9e528","60201ebe3eb6e25d72273836","Mozilla/5.0 (Windows NT 10.0; Win64; x64) AppleWebKit/537.36 (KHTML, like Gecko) Chrome/88.0.4324.146 Safari/537.36","v1-up-stims","","","","","","","","-80,-70,-60,-50,-40","media/audio/stims/spherical_300cm_s20_c1_cd-1_matched_a-40.wav","spherical","20","1","1","matched","-40","-80","1157"
"echo-presentation","18","317175","0.0-18.0","5fb7aa66e80f073651b36132","60201dea606b8d5e5aa9e528","60201ebe3eb6e25d72273836","Mozilla/5.0 (Windows NT 10.0; Win64; x64) AppleWebKit/537.36 (KHTML, like Gecko) Chrome/88.0.4324.146 Safari/537.36","v1-up-stims","","","","","","","","-80,-70,-60,-50,-40","media/audio/stims/spherical_300cm_s20_c1_cd-1_matched_a-80.wav","spherical","20","1","1","matched","-80","-80","2973"
"echo-presentation","19","319634","0.0-19.0","5fb7aa66e80f073651b36132","60201dea606b8d5e5aa9e528","60201ebe3eb6e25d72273836","Mozilla/5.0 (Windows NT 10.0; Win64; x64) AppleWebKit/537.36 (KHTML, like Gecko) Chrome/88.0.4324.146 Safari/537.36","v1-up-stims","","","","","","","","-80,-70,-60,-50,-40","media/audio/stims/spherical_300cm_s20_c1_cd-1_matched_a-50.wav","spherical","20","1","1","matched","-50","-80","1101"
"echo-presentation","20","321908","0.0-20.0","5fb7aa66e80f073651b36132","60201dea606b8d5e5aa9e528","60201ebe3eb6e25d72273836","Mozilla/5.0 (Windows NT 10.0; Win64; x64) AppleWebKit/537.36 (KHTML, like Gecko) Chrome/88.0.4324.146 Safari/537.36","v1-up-stims","","","","","","","","-80,-70,-60,-50,-40","media/audio/stims/spherical_300cm_s20_c1_cd-1_matched_a-70.wav","spherical","20","1","1","matched","-70","-80","979"
"echo-presentation","21","323754","0.0-21.0","5fb7aa66e80f073651b36132","60201dea606b8d5e5aa9e528","60201ebe3eb6e25d72273836","Mozilla/5.0 (Windows NT 10.0; Win64; x64) AppleWebKit/537.36 (KHTML, like Gecko) Chrome/88.0.4324.146 Safari/537.36","v1-up-stims","","","","","","","","-80,-70,-60,-50,-40","media/audio/stims/spherical_300cm_s20_c1_cd-1_matched_a-40.wav","spherical","20","1","1","matched","-40","-80","956"
"echo-presentation","22","325441","0.0-22.0","5fb7aa66e80f073651b36132","60201dea606b8d5e5aa9e528","60201ebe3eb6e25d72273836","Mozilla/5.0 (Windows NT 10.0; Win64; x64) AppleWebKit/537.36 (KHTML, like Gecko) Chrome/88.0.4324.146 Safari/537.36","v1-up-stims","","","","","","","","-80,-70,-60,-50,-40","media/audio/stims/spherical_300cm_s20_c1_cd-1_matched_a-50.wav","spherical","20","1","1","matched","-50","-80","824"
"echo-presentation","23","327201","0.0-23.0","5fb7aa66e80f073651b36132","60201dea606b8d5e5aa9e528","60201ebe3eb6e25d72273836","Mozilla/5.0 (Windows NT 10.0; Win64; x64) AppleWebKit/537.36 (KHTML, like Gecko) Chrome/88.0.4324.146 Safari/537.36","v1-up-stims","","","","","","","","-80,-70,-60,-50,-40","media/audio/stims/spherical_300cm_s20_c1_cd-1_matched_a-80.wav","spherical","20","1","1","matched","-80","-80","895"
"echo-presentation","24","329017","0.0-24.0","5fb7aa66e80f073651b36132","60201dea606b8d5e5aa9e528","60201ebe3eb6e25d72273836","Mozilla/5.0 (Windows NT 10.0; Win64; x64) AppleWebKit/537.36 (KHTML, like Gecko) Chrome/88.0.4324.146 Safari/537.36","v1-up-stims","","","","","","","","-80,-70,-60,-50,-40","media/audio/stims/spherical_300cm_s20_c1_cd-1_matched_a-60.wav","spherical","20","1","1","matched","-60","-80","908"
"echo-presentation","25","330895","0.0-25.0","5fb7aa66e80f073651b36132","60201dea606b8d5e5aa9e528","60201ebe3eb6e25d72273836","Mozilla/5.0 (Windows NT 10.0; Win64; x64) AppleWebKit/537.36 (KHTML, like Gecko) Chrome/88.0.4324.146 Safari/537.36","v1-up-stims","","","","","","","","-80,-70,-60,-50,-40","media/audio/stims/spherical_300cm_s20_c1_cd-1_matched_a-60.wav","spherical","20","1","1","matched","-60","-80","964"
"echo-presentation","26","332992","0.0-26.0","5fb7aa66e80f073651b36132","60201dea606b8d5e5aa9e528","60201ebe3eb6e25d72273836","Mozilla/5.0 (Windows NT 10.0; Win64; x64) AppleWebKit/537.36 (KHTML, like Gecko) Chrome/88.0.4324.146 Safari/537.36","v1-up-stims","","","","","","","","-80,-70,-60,-50,-40","media/audio/stims/spherical_300cm_s20_c1_cd-1_matched_a-60.wav","spherical","20","1","1","matched","-60","-80","963"
"echo-presentation","27","335335","0.0-27.0","5fb7aa66e80f073651b36132","60201dea606b8d5e5aa9e528","60201ebe3eb6e25d72273836","Mozilla/5.0 (Windows NT 10.0; Win64; x64) AppleWebKit/537.36 (KHTML, like Gecko) Chrome/88.0.4324.146 Safari/537.36","v1-up-stims","","","","","","","","-80,-70,-60,-50,-40","media/audio/stims/spherical_300cm_s20_c1_cd-1_matched_a-50.wav","spherical","20","1","1","matched","-50","-80","1166"
"block-bookend","28","340664","0.0-28.0","5fb7aa66e80f073651b36132","60201dea606b8d5e5aa9e528","60201ebe3eb6e25d72273836","Mozilla/5.0 (Windows NT 10.0; Win64; x64) AppleWebKit/537.36 (KHTML, like Gecko) Chrome/88.0.4324.146 Safari/537.36","v1-up-stims","","","","","","","","","","","","","","","","",""
"block-bookend","29","349324","0.0-29.0","5fb7aa66e80f073651b36132","60201dea606b8d5e5aa9e528","60201ebe3eb6e25d72273836","Mozilla/5.0 (Windows NT 10.0; Win64; x64) AppleWebKit/537.36 (KHTML, like Gecko) Chrome/88.0.4324.146 Safari/537.36","v1-up-stims","","","","","","","","","","","","","","","","",""
"echo-presentation","30","353535","0.0-30.0","5fb7aa66e80f073651b36132","60201dea606b8d5e5aa9e528","60201ebe3eb6e25d72273836","Mozilla/5.0 (Windows NT 10.0; Win64; x64) AppleWebKit/537.36 (KHTML, like Gecko) Chrome/88.0.4324.146 Safari/537.36","v1-up-stims","","","","","","","","-80,-70,-60,-50,-40","media/audio/stims/spherical_300cm_s20_c1_cd-1_matched_a-80.wav","spherical","20","1","1","matched","-80","-80","1073"
"echo-presentation","31","355839","0.0-31.0","5fb7aa66e80f073651b36132","60201dea606b8d5e5aa9e528","60201ebe3eb6e25d72273836","Mozilla/5.0 (Windows NT 10.0; Win64; x64) AppleWebKit/537.36 (KHTML, like Gecko) Chrome/88.0.4324.146 Safari/537.36","v1-up-stims","","","","","","","","-80,-70,-60,-50,-40","media/audio/stims/spherical_300cm_s20_c1_cd-1_matched_a-40.wav","spherical","20","1","1","matched","-40","-80","1081"
"echo-presentation","32","358383","0.0-32.0","5fb7aa66e80f073651b36132","60201dea606b8d5e5aa9e528","60201ebe3eb6e25d72273836","Mozilla/5.0 (Windows NT 10.0; Win64; x64) AppleWebKit/537.36 (KHTML, like Gecko) Chrome/88.0.4324.146 Safari/537.36","v1-up-stims","","","","","","","","-80,-70,-60,-50,-40","media/audio/stims/spherical_300cm_s20_c1_cd-1_matched_a-80.wav","spherical","20","1","1","matched","-80","-80","945"
"echo-presentation","33","360622","0.0-33.0","5fb7aa66e80f073651b36132","60201dea606b8d5e5aa9e528","60201ebe3eb6e25d72273836","Mozilla/5.0 (Windows NT 10.0; Win64; x64) AppleWebKit/537.36 (KHTML, like Gecko) Chrome/88.0.4324.146 Safari/537.36","v1-up-stims","","","","","","","","-80,-70,-60,-50,-40","media/audio/stims/spherical_300cm_s20_c1_cd-1_matched_a-50.wav","spherical","20","1","1","matched","-50","-80","832"
"echo-presentation","34","362645","0.0-34.0","5fb7aa66e80f073651b36132","60201dea606b8d5e5aa9e528","60201ebe3eb6e25d72273836","Mozilla/5.0 (Windows NT 10.0; Win64; x64) AppleWebKit/537.36 (KHTML, like Gecko) Chrome/88.0.4324.146 Safari/537.36","v1-up-stims","","","","","","","","-80,-70,-60,-50,-40","media/audio/stims/spherical_300cm_s20_c1_cd-1_matched_a-40.wav","spherical","20","1","1","matched","-40","-80","943"
"echo-presentation","35","364534","0.0-35.0","5fb7aa66e80f073651b36132","60201dea606b8d5e5aa9e528","60201ebe3eb6e25d72273836","Mozilla/5.0 (Windows NT 10.0; Win64; x64) AppleWebKit/537.36 (KHTML, like Gecko) Chrome/88.0.4324.146 Safari/537.36","v1-up-stims","","","","","","","","-80,-70,-60,-50,-40","media/audio/stims/spherical_300cm_s20_c1_cd-1_matched_a-70.wav","spherical","20","1","1","matched","-70","-80","878"
"echo-presentation","36","366677","0.0-36.0","5fb7aa66e80f073651b36132","60201dea606b8d5e5aa9e528","60201ebe3eb6e25d72273836","Mozilla/5.0 (Windows NT 10.0; Win64; x64) AppleWebKit/537.36 (KHTML, like Gecko) Chrome/88.0.4324.146 Safari/537.36","v1-up-stims","","","","","","","","-80,-70,-60,-50,-40","media/audio/stims/spherical_300cm_s20_c1_cd-1_matched_a-70.wav","spherical","20","1","1","matched","-70","-80","895"
"echo-presentation","37","368679","0.0-37.0","5fb7aa66e80f073651b36132","60201dea606b8d5e5aa9e528","60201ebe3eb6e25d72273836","Mozilla/5.0 (Windows NT 10.0; Win64; x64) AppleWebKit/537.36 (KHTML, like Gecko) Chrome/88.0.4324.146 Safari/537.36","v1-up-stims","","","","","","","","-80,-70,-60,-50,-40","media/audio/stims/spherical_300cm_s20_c1_cd-1_matched_a-60.wav","spherical","20","1","1","matched","-60","-80","924"
"echo-presentation","38","375588","0.0-38.0","5fb7aa66e80f073651b36132","60201dea606b8d5e5aa9e528","60201ebe3eb6e25d72273836","Mozilla/5.0 (Windows NT 10.0; Win64; x64) AppleWebKit/537.36 (KHTML, like Gecko) Chrome/88.0.4324.146 Safari/537.36","v1-up-stims","","","","","","","","-80,-70,-60,-50,-40","media/audio/stims/spherical_300cm_s20_c1_cd-1_matched_a-60.wav","spherical","20","1","1","matched","-60","-80","5825"
"echo-presentation","39","377783","0.0-39.0","5fb7aa66e80f073651b36132","60201dea606b8d5e5aa9e528","60201ebe3eb6e25d72273836","Mozilla/5.0 (Windows NT 10.0; Win64; x64) AppleWebKit/537.36 (KHTML, like Gecko) Chrome/88.0.4324.146 Safari/537.36","v1-up-stims","","","","","","","","-80,-70,-60,-50,-40","media/audio/stims/spherical_300cm_s20_c1_cd-1_matched_a-60.wav","spherical","20","1","1","matched","-60","-80","825"
"echo-presentation","40","379395","0.0-40.0","5fb7aa66e80f073651b36132","60201dea606b8d5e5aa9e528","60201ebe3eb6e25d72273836","Mozilla/5.0 (Windows NT 10.0; Win64; x64) AppleWebKit/537.36 (KHTML, like Gecko) Chrome/88.0.4324.146 Safari/537.36","v1-up-stims","","","","","","","","-80,-70,-60,-50,-40","media/audio/stims/spherical_300cm_s20_c1_cd-1_matched_a-50.wav","spherical","20","1","1","matched","-50","-80","780"
"echo-presentation","41","380980","0.0-41.0","5fb7aa66e80f073651b36132","60201dea606b8d5e5aa9e528","60201ebe3eb6e25d72273836","Mozilla/5.0 (Windows NT 10.0; Win64; x64) AppleWebKit/537.36 (KHTML, like Gecko) Chrome/88.0.4324.146 Safari/537.36","v1-up-stims","","","","","","","","-80,-70,-60,-50,-40","media/audio/stims/spherical_300cm_s20_c1_cd-1_matched_a-50.wav","spherical","20","1","1","matched","-50","-80","814"
"echo-presentation","42","382484","0.0-42.0","5fb7aa66e80f073651b36132","60201dea606b8d5e5aa9e528","60201ebe3eb6e25d72273836","Mozilla/5.0 (Windows NT 10.0; Win64; x64) AppleWebKit/537.36 (KHTML, like Gecko) Chrome/88.0.4324.146 Safari/537.36","v1-up-stims","","","","","","","","-80,-70,-60,-50,-40","media/audio/stims/spherical_300cm_s20_c1_cd-1_matched_a-40.wav","spherical","20","1","1","matched","-40","-80","789"
"echo-presentation","43","383892","0.0-43.0","5fb7aa66e80f073651b36132","60201dea606b8d5e5aa9e528","60201ebe3eb6e25d72273836","Mozilla/5.0 (Windows NT 10.0; Win64; x64) AppleWebKit/537.36 (KHTML, like Gecko) Chrome/88.0.4324.146 Safari/537.36","v1-up-stims","","","","","","","","-80,-70,-60,-50,-40","media/audio/stims/spherical_300cm_s20_c1_cd-1_matched_a-80.wav","spherical","20","1","1","matched","-80","-80","783"
"echo-presentation","44","385409","0.0-44.0","5fb7aa66e80f073651b36132","60201dea606b8d5e5aa9e528","60201ebe3eb6e25d72273836","Mozilla/5.0 (Windows NT 10.0; Win64; x64) AppleWebKit/537.36 (KHTML, like Gecko) Chrome/88.0.4324.146 Safari/537.36","v1-up-stims","","","","","","","","-80,-70,-60,-50,-40","media/audio/stims/spherical_300cm_s20_c1_cd-1_matched_a-70.wav","spherical","20","1","1","matched","-70","-80","844"
"echo-presentation","45","386830","0.0-45.0","5fb7aa66e80f073651b36132","60201dea606b8d5e5aa9e528","60201ebe3eb6e25d72273836","Mozilla/5.0 (Windows NT 10.0; Win64; x64) AppleWebKit/537.36 (KHTML, like Gecko) Chrome/88.0.4324.146 Safari/537.36","v1-up-stims","","","","","","","","-80,-70,-60,-50,-40","media/audio/stims/spherical_300cm_s20_c1_cd-1_matched_a-40.wav","spherical","20","1","1","matched","-40","-80","775"
"echo-presentation","46","388374","0.0-46.0","5fb7aa66e80f073651b36132","60201dea606b8d5e5aa9e528","60201ebe3eb6e25d72273836","Mozilla/5.0 (Windows NT 10.0; Win64; x64) AppleWebKit/537.36 (KHTML, like Gecko) Chrome/88.0.4324.146 Safari/537.36","v1-up-stims","","","","","","","","-80,-70,-60,-50,-40","media/audio/stims/spherical_300cm_s20_c1_cd-1_matched_a-60.wav","spherical","20","1","1","matched","-60","-80","870"
"echo-presentation","47","389717","0.0-47.0","5fb7aa66e80f073651b36132","60201dea606b8d5e5aa9e528","60201ebe3eb6e25d72273836","Mozilla/5.0 (Windows NT 10.0; Win64; x64) AppleWebKit/537.36 (KHTML, like Gecko) Chrome/88.0.4324.146 Safari/537.36","v1-up-stims","","","","","","","","-80,-70,-60,-50,-40","media/audio/stims/spherical_300cm_s20_c1_cd-1_matched_a-80.wav","spherical","20","1","1","matched","-80","-80","794"
"echo-presentation","48","391322","0.0-48.0","5fb7aa66e80f073651b36132","60201dea606b8d5e5aa9e528","60201ebe3eb6e25d72273836","Mozilla/5.0 (Windows NT 10.0; Win64; x64) AppleWebKit/537.36 (KHTML, like Gecko) Chrome/88.0.4324.146 Safari/537.36","v1-up-stims","","","","","","","","-80,-70,-60,-50,-40","media/audio/stims/spherical_300cm_s20_c1_cd-1_matched_a-50.wav","spherical","20","1","1","matched","-50","-80","863"
"echo-presentation","49","393276","0.0-49.0","5fb7aa66e80f073651b36132","60201dea606b8d5e5aa9e528","60201ebe3eb6e25d72273836","Mozilla/5.0 (Windows NT 10.0; Win64; x64) AppleWebKit/537.36 (KHTML, like Gecko) Chrome/88.0.4324.146 Safari/537.36","v1-up-stims","","","","","","","","-80,-70,-60,-50,-40","media/audio/stims/spherical_300cm_s20_c1_cd-1_matched_a-70.wav","spherical","20","1","1","matched","-70","-80","831"
"block-bookend","50","398180","0.0-50.0","5fb7aa66e80f073651b36132","60201dea606b8d5e5aa9e528","60201ebe3eb6e25d72273836","Mozilla/5.0 (Windows NT 10.0; Win64; x64) AppleWebKit/537.36 (KHTML, like Gecko) Chrome/88.0.4324.146 Safari/537.36","v1-up-stims","","","","","","","","","","","","","","","","",""
"block-bookend","51","431760","0.0-51.0","5fb7aa66e80f073651b36132","60201dea606b8d5e5aa9e528","60201ebe3eb6e25d72273836","Mozilla/5.0 (Windows NT 10.0; Win64; x64) AppleWebKit/537.36 (KHTML, like Gecko) Chrome/88.0.4324.146 Safari/537.36","v1-up-stims","","","","","","","","","","","","","","","","",""
"echo-presentation","52","435676","0.0-52.0","5fb7aa66e80f073651b36132","60201dea606b8d5e5aa9e528","60201ebe3eb6e25d72273836","Mozilla/5.0 (Windows NT 10.0; Win64; x64) AppleWebKit/537.36 (KHTML, like Gecko) Chrome/88.0.4324.146 Safari/537.36","v1-up-stims","","","","","","","","40,50,60,70,80","media/audio/stims/spherical_300cm_s20_c1_cd-1_matched_a40.wav","spherical","20","1","1","matched","40","70","1543"
"echo-presentation","53","437710","0.0-53.0","5fb7aa66e80f073651b36132","60201dea606b8d5e5aa9e528","60201ebe3eb6e25d72273836","Mozilla/5.0 (Windows NT 10.0; Win64; x64) AppleWebKit/537.36 (KHTML, like Gecko) Chrome/88.0.4324.146 Safari/537.36","v1-up-stims","","","","","","","","40,50,60,70,80","media/audio/stims/spherical_300cm_s20_c1_cd-1_matched_a50.wav","spherical","20","1","1","matched","50","70","915"
"echo-presentation","54","439508","0.0-54.0","5fb7aa66e80f073651b36132","60201dea606b8d5e5aa9e528","60201ebe3eb6e25d72273836","Mozilla/5.0 (Windows NT 10.0; Win64; x64) AppleWebKit/537.36 (KHTML, like Gecko) Chrome/88.0.4324.146 Safari/537.36","v1-up-stims","","","","","","","","40,50,60,70,80","media/audio/stims/spherical_300cm_s20_c1_cd-1_matched_a80.wav","spherical","20","1","1","matched","80","70","849"
"echo-presentation","55","440847","0.0-55.0","5fb7aa66e80f073651b36132","60201dea606b8d5e5aa9e528","60201ebe3eb6e25d72273836","Mozilla/5.0 (Windows NT 10.0; Win64; x64) AppleWebKit/537.36 (KHTML, like Gecko) Chrome/88.0.4324.146 Safari/537.36","v1-up-stims","","","","","","","","40,50,60,70,80","media/audio/stims/spherical_300cm_s20_c1_cd-1_matched_a60.wav","spherical","20","1","1","matched","60","70","608"
"echo-presentation","56","442158","0.0-56.0","5fb7aa66e80f073651b36132","60201dea606b8d5e5aa9e528","60201ebe3eb6e25d72273836","Mozilla/5.0 (Windows NT 10.0; Win64; x64) AppleWebKit/537.36 (KHTML, like Gecko) Chrome/88.0.4324.146 Safari/537.36","v1-up-stims","","","","","","","","40,50,60,70,80","media/audio/stims/spherical_300cm_s20_c1_cd-1_matched_a70.wav","spherical","20","1","1","matched","70","70","573"
"echo-presentation","57","443495","0.0-57.0","5fb7aa66e80f073651b36132","60201dea606b8d5e5aa9e528","60201ebe3eb6e25d72273836","Mozilla/5.0 (Windows NT 10.0; Win64; x64) AppleWebKit/537.36 (KHTML, like Gecko) Chrome/88.0.4324.146 Safari/537.36","v1-up-stims","","","","","","","","40,50,60,70,80","media/audio/stims/spherical_300cm_s20_c1_cd-1_matched_a40.wav","spherical","20","1","1","matched","40","70","617"
"echo-presentation","58","444912","0.0-58.0","5fb7aa66e80f073651b36132","60201dea606b8d5e5aa9e528","60201ebe3eb6e25d72273836","Mozilla/5.0 (Windows NT 10.0; Win64; x64) AppleWebKit/537.36 (KHTML, like Gecko) Chrome/88.0.4324.146 Safari/537.36","v1-up-stims","","","","","","","","40,50,60,70,80","media/audio/stims/spherical_300cm_s20_c1_cd-1_matched_a50.wav","spherical","20","1","1","matched","50","70","676"
"echo-presentation","59","446264","0.0-59.0","5fb7aa66e80f073651b36132","60201dea606b8d5e5aa9e528","60201ebe3eb6e25d72273836","Mozilla/5.0 (Windows NT 10.0; Win64; x64) AppleWebKit/537.36 (KHTML, like Gecko) Chrome/88.0.4324.146 Safari/537.36","v1-up-stims","","","","","","","","40,50,60,70,80","media/audio/stims/spherical_300cm_s20_c1_cd-1_matched_a40.wav","spherical","20","1","1","matched","40","70","666"
"echo-presentation","60","447748","0.0-60.0","5fb7aa66e80f073651b36132","60201dea606b8d5e5aa9e528","60201ebe3eb6e25d72273836","Mozilla/5.0 (Windows NT 10.0; Win64; x64) AppleWebKit/537.36 (KHTML, like Gecko) Chrome/88.0.4324.146 Safari/537.36","v1-up-stims","","","","","","","","40,50,60,70,80","media/audio/stims/spherical_300cm_s20_c1_cd-1_matched_a80.wav","spherical","20","1","1","matched","80","70","723"
"echo-presentation","61","449171","0.0-61.0","5fb7aa66e80f073651b36132","60201dea606b8d5e5aa9e528","60201ebe3eb6e25d72273836","Mozilla/5.0 (Windows NT 10.0; Win64; x64) AppleWebKit/537.36 (KHTML, like Gecko) Chrome/88.0.4324.146 Safari/537.36","v1-up-stims","","","","","","","","40,50,60,70,80","media/audio/stims/spherical_300cm_s20_c1_cd-1_matched_a40.wav","spherical","20","1","1","matched","40","70","745"
"echo-presentation","62","450569","0.0-62.0","5fb7aa66e80f073651b36132","60201dea606b8d5e5aa9e528","60201ebe3eb6e25d72273836","Mozilla/5.0 (Windows NT 10.0; Win64; x64) AppleWebKit/537.36 (KHTML, like Gecko) Chrome/88.0.4324.146 Safari/537.36","v1-up-stims","","","","","","","","40,50,60,70,80","media/audio/stims/spherical_300cm_s20_c1_cd-1_matched_a80.wav","spherical","20","1","1","matched","80","70","676"
"echo-presentation","63","451856","0.0-63.0","5fb7aa66e80f073651b36132","60201dea606b8d5e5aa9e528","60201ebe3eb6e25d72273836","Mozilla/5.0 (Windows NT 10.0; Win64; x64) AppleWebKit/537.36 (KHTML, like Gecko) Chrome/88.0.4324.146 Safari/537.36","v1-up-stims","","","","","","","","40,50,60,70,80","media/audio/stims/spherical_300cm_s20_c1_cd-1_matched_a60.wav","spherical","20","1","1","matched","60","70","613"
"echo-presentation","64","453168","0.0-64.0","5fb7aa66e80f073651b36132","60201dea606b8d5e5aa9e528","60201ebe3eb6e25d72273836","Mozilla/5.0 (Windows NT 10.0; Win64; x64) AppleWebKit/537.36 (KHTML, like Gecko) Chrome/88.0.4324.146 Safari/537.36","v1-up-stims","","","","","","","","40,50,60,70,80","media/audio/stims/spherical_300cm_s20_c1_cd-1_matched_a70.wav","spherical","20","1","1","matched","70","70","622"
"echo-presentation","65","454678","0.0-65.0","5fb7aa66e80f073651b36132","60201dea606b8d5e5aa9e528","60201ebe3eb6e25d72273836","Mozilla/5.0 (Windows NT 10.0; Win64; x64) AppleWebKit/537.36 (KHTML, like Gecko) Chrome/88.0.4324.146 Safari/537.36","v1-up-stims","","","","","","","","40,50,60,70,80","media/audio/stims/spherical_300cm_s20_c1_cd-1_matched_a60.wav","spherical","20","1","1","matched","60","70","758"
"echo-presentation","66","456904","0.0-66.0","5fb7aa66e80f073651b36132","60201dea606b8d5e5aa9e528","60201ebe3eb6e25d72273836","Mozilla/5.0 (Windows NT 10.0; Win64; x64) AppleWebKit/537.36 (KHTML, like Gecko) Chrome/88.0.4324.146 Safari/537.36","v1-up-stims","","","","","","","","40,50,60,70,80","media/audio/stims/spherical_300cm_s20_c1_cd-1_matched_a50.wav","spherical","20","1","1","matched","50","70","767"
"echo-presentation","67","458353","0.0-67.0","5fb7aa66e80f073651b36132","60201dea606b8d5e5aa9e528","60201ebe3eb6e25d72273836","Mozilla/5.0 (Windows NT 10.0; Win64; x64) AppleWebKit/537.36 (KHTML, like Gecko) Chrome/88.0.4324.146 Safari/537.36","v1-up-stims","","","","","","","","40,50,60,70,80","media/audio/stims/spherical_300cm_s20_c1_cd-1_matched_a50.wav","spherical","20","1","1","matched","50","70","652"
"echo-presentation","68","459725","0.0-68.0","5fb7aa66e80f073651b36132","60201dea606b8d5e5aa9e528","60201ebe3eb6e25d72273836","Mozilla/5.0 (Windows NT 10.0; Win64; x64) AppleWebKit/537.36 (KHTML, like Gecko) Chrome/88.0.4324.146 Safari/537.36","v1-up-stims","","","","","","","","40,50,60,70,80","media/audio/stims/spherical_300cm_s20_c1_cd-1_matched_a70.wav","spherical","20","1","1","matched","70","70","685"
"echo-presentation","69","461215","0.0-69.0","5fb7aa66e80f073651b36132","60201dea606b8d5e5aa9e528","60201ebe3eb6e25d72273836","Mozilla/5.0 (Windows NT 10.0; Win64; x64) AppleWebKit/537.36 (KHTML, like Gecko) Chrome/88.0.4324.146 Safari/537.36","v1-up-stims","","","","","","","","40,50,60,70,80","media/audio/stims/spherical_300cm_s20_c1_cd-1_matched_a60.wav","spherical","20","1","1","matched","60","70","779"
"echo-presentation","70","462958","0.0-70.0","5fb7aa66e80f073651b36132","60201dea606b8d5e5aa9e528","60201ebe3eb6e25d72273836","Mozilla/5.0 (Windows NT 10.0; Win64; x64) AppleWebKit/537.36 (KHTML, like Gecko) Chrome/88.0.4324.146 Safari/537.36","v1-up-stims","","","","","","","","40,50,60,70,80","media/audio/stims/spherical_300cm_s20_c1_cd-1_matched_a70.wav","spherical","20","1","1","matched","70","70","749"
"echo-presentation","71","464642","0.0-71.0","5fb7aa66e80f073651b36132","60201dea606b8d5e5aa9e528","60201ebe3eb6e25d72273836","Mozilla/5.0 (Windows NT 10.0; Win64; x64) AppleWebKit/537.36 (KHTML, like Gecko) Chrome/88.0.4324.146 Safari/537.36","v1-up-stims","","","","","","","","40,50,60,70,80","media/audio/stims/spherical_300cm_s20_c1_cd-1_matched_a80.wav","spherical","20","1","1","matched","80","70","825"
"block-bookend","72","467590","0.0-72.0","5fb7aa66e80f073651b36132","60201dea606b8d5e5aa9e528","60201ebe3eb6e25d72273836","Mozilla/5.0 (Windows NT 10.0; Win64; x64) AppleWebKit/537.36 (KHTML, like Gecko) Chrome/88.0.4324.146 Safari/537.36","v1-up-stims","","","","","","","","","","","","","","","","",""
"block-bookend","73","473835","0.0-73.0","5fb7aa66e80f073651b36132","60201dea606b8d5e5aa9e528","60201ebe3eb6e25d72273836","Mozilla/5.0 (Windows NT 10.0; Win64; x64) AppleWebKit/537.36 (KHTML, like Gecko) Chrome/88.0.4324.146 Safari/537.36","v1-up-stims","","","","","","","","","","","","","","","","",""
"echo-presentation","74","477035","0.0-74.0","5fb7aa66e80f073651b36132","60201dea606b8d5e5aa9e528","60201ebe3eb6e25d72273836","Mozilla/5.0 (Windows NT 10.0; Win64; x64) AppleWebKit/537.36 (KHTML, like Gecko) Chrome/88.0.4324.146 Safari/537.36","v1-up-stims","","","","","","","","40,50,60,70,80","media/audio/stims/spherical_300cm_s20_c1_cd-1_matched_a60.wav","spherical","20","1","1","matched","60","70","986"
"echo-presentation","75","479076","0.0-75.0","5fb7aa66e80f073651b36132","60201dea606b8d5e5aa9e528","60201ebe3eb6e25d72273836","Mozilla/5.0 (Windows NT 10.0; Win64; x64) AppleWebKit/537.36 (KHTML, like Gecko) Chrome/88.0.4324.146 Safari/537.36","v1-up-stims","","","","","","","","40,50,60,70,80","media/audio/stims/spherical_300cm_s20_c1_cd-1_matched_a70.wav","spherical","20","1","1","matched","70","70","1033"
"echo-presentation","76","480611","0.0-76.0","5fb7aa66e80f073651b36132","60201dea606b8d5e5aa9e528","60201ebe3eb6e25d72273836","Mozilla/5.0 (Windows NT 10.0; Win64; x64) AppleWebKit/537.36 (KHTML, like Gecko) Chrome/88.0.4324.146 Safari/537.36","v1-up-stims","","","","","","","","40,50,60,70,80","media/audio/stims/spherical_300cm_s20_c1_cd-1_matched_a80.wav","spherical","20","1","1","matched","80","70","805"
"echo-presentation","77","483068","0.0-77.0","5fb7aa66e80f073651b36132","60201dea606b8d5e5aa9e528","60201ebe3eb6e25d72273836","Mozilla/5.0 (Windows NT 10.0; Win64; x64) AppleWebKit/537.36 (KHTML, like Gecko) Chrome/88.0.4324.146 Safari/537.36","v1-up-stims","","","","","","","","40,50,60,70,80","media/audio/stims/spherical_300cm_s20_c1_cd-1_matched_a70.wav","spherical","20","1","1","matched","70","70","800"
"echo-presentation","78","484563","0.0-78.0","5fb7aa66e80f073651b36132","60201dea606b8d5e5aa9e528","60201ebe3eb6e25d72273836","Mozilla/5.0 (Windows NT 10.0; Win64; x64) AppleWebKit/537.36 (KHTML, like Gecko) Chrome/88.0.4324.146 Safari/537.36","v1-up-stims","","","","","","","","40,50,60,70,80","media/audio/stims/spherical_300cm_s20_c1_cd-1_matched_a50.wav","spherical","20","1","1","matched","50","70","754"
"echo-presentation","79","486058","0.0-79.0","5fb7aa66e80f073651b36132","60201dea606b8d5e5aa9e528","60201ebe3eb6e25d72273836","Mozilla/5.0 (Windows NT 10.0; Win64; x64) AppleWebKit/537.36 (KHTML, like Gecko) Chrome/88.0.4324.146 Safari/537.36","v1-up-stims","","","","","","","","40,50,60,70,80","media/audio/stims/spherical_300cm_s20_c1_cd-1_matched_a80.wav","spherical","20","1","1","matched","80","70","836"
"echo-presentation","80","487708","0.0-80.0","5fb7aa66e80f073651b36132","60201dea606b8d5e5aa9e528","60201ebe3eb6e25d72273836","Mozilla/5.0 (Windows NT 10.0; Win64; x64) AppleWebKit/537.36 (KHTML, like Gecko) Chrome/88.0.4324.146 Safari/537.36","v1-up-stims","","","","","","","","40,50,60,70,80","media/audio/stims/spherical_300cm_s20_c1_cd-1_matched_a40.wav","spherical","20","1","1","matched","40","70","902"
"echo-presentation","81","489269","0.0-81.0","5fb7aa66e80f073651b36132","60201dea606b8d5e5aa9e528","60201ebe3eb6e25d72273836","Mozilla/5.0 (Windows NT 10.0; Win64; x64) AppleWebKit/537.36 (KHTML, like Gecko) Chrome/88.0.4324.146 Safari/537.36","v1-up-stims","","","","","","","","40,50,60,70,80","media/audio/stims/spherical_300cm_s20_c1_cd-1_matched_a70.wav","spherical","20","1","1","matched","70","70","811"
"echo-presentation","82","490776","0.0-82.0","5fb7aa66e80f073651b36132","60201dea606b8d5e5aa9e528","60201ebe3eb6e25d72273836","Mozilla/5.0 (Windows NT 10.0; Win64; x64) AppleWebKit/537.36 (KHTML, like Gecko) Chrome/88.0.4324.146 Safari/537.36","v1-up-stims","","","","","","","","40,50,60,70,80","media/audio/stims/spherical_300cm_s20_c1_cd-1_matched_a60.wav","spherical","20","1","1","matched","60","70","802"
"echo-presentation","83","492244","0.0-83.0","5fb7aa66e80f073651b36132","60201dea606b8d5e5aa9e528","60201ebe3eb6e25d72273836","Mozilla/5.0 (Windows NT 10.0; Win64; x64) AppleWebKit/537.36 (KHTML, like Gecko) Chrome/88.0.4324.146 Safari/537.36","v1-up-stims","","","","","","","","40,50,60,70,80","media/audio/stims/spherical_300cm_s20_c1_cd-1_matched_a60.wav","spherical","20","1","1","matched","60","70","763"
"echo-presentation","84","493591","0.0-84.0","5fb7aa66e80f073651b36132","60201dea606b8d5e5aa9e528","60201ebe3eb6e25d72273836","Mozilla/5.0 (Windows NT 10.0; Win64; x64) AppleWebKit/537.36 (KHTML, like Gecko) Chrome/88.0.4324.146 Safari/537.36","v1-up-stims","","","","","","","","40,50,60,70,80","media/audio/stims/spherical_300cm_s20_c1_cd-1_matched_a70.wav","spherical","20","1","1","matched","70","70","776"
"echo-presentation","85","494977","0.0-85.0","5fb7aa66e80f073651b36132","60201dea606b8d5e5aa9e528","60201ebe3eb6e25d72273836","Mozilla/5.0 (Windows NT 10.0; Win64; x64) AppleWebKit/537.36 (KHTML, like Gecko) Chrome/88.0.4324.146 Safari/537.36","v1-up-stims","","","","","","","","40,50,60,70,80","media/audio/stims/spherical_300cm_s20_c1_cd-1_matched_a40.wav","spherical","20","1","1","matched","40","70","671"
"echo-presentation","86","496404","0.0-86.0","5fb7aa66e80f073651b36132","60201dea606b8d5e5aa9e528","60201ebe3eb6e25d72273836","Mozilla/5.0 (Windows NT 10.0; Win64; x64) AppleWebKit/537.36 (KHTML, like Gecko) Chrome/88.0.4324.146 Safari/537.36","v1-up-stims","","","","","","","","40,50,60,70,80","media/audio/stims/spherical_300cm_s20_c1_cd-1_matched_a80.wav","spherical","20","1","1","matched","80","70","686"
"echo-presentation","87","497694","0.0-87.0","5fb7aa66e80f073651b36132","60201dea606b8d5e5aa9e528","60201ebe3eb6e25d72273836","Mozilla/5.0 (Windows NT 10.0; Win64; x64) AppleWebKit/537.36 (KHTML, like Gecko) Chrome/88.0.4324.146 Safari/537.36","v1-up-stims","","","","","","","","40,50,60,70,80","media/audio/stims/spherical_300cm_s20_c1_cd-1_matched_a60.wav","spherical","20","1","1","matched","60","70","612"
"echo-presentation","88","499068","0.0-88.0","5fb7aa66e80f073651b36132","60201dea606b8d5e5aa9e528","60201ebe3eb6e25d72273836","Mozilla/5.0 (Windows NT 10.0; Win64; x64) AppleWebKit/537.36 (KHTML, like Gecko) Chrome/88.0.4324.146 Safari/537.36","v1-up-stims","","","","","","","","40,50,60,70,80","media/audio/stims/spherical_300cm_s20_c1_cd-1_matched_a40.wav","spherical","20","1","1","matched","40","70","697"
"echo-presentation","89","500414","0.0-89.0","5fb7aa66e80f073651b36132","60201dea606b8d5e5aa9e528","60201ebe3eb6e25d72273836","Mozilla/5.0 (Windows NT 10.0; Win64; x64) AppleWebKit/537.36 (KHTML, like Gecko) Chrome/88.0.4324.146 Safari/537.36","v1-up-stims","","","","","","","","40,50,60,70,80","media/audio/stims/spherical_300cm_s20_c1_cd-1_matched_a50.wav","spherical","20","1","1","matched","50","70","715"
"echo-presentation","90","501707","0.0-90.0","5fb7aa66e80f073651b36132","60201dea606b8d5e5aa9e528","60201ebe3eb6e25d72273836","Mozilla/5.0 (Windows NT 10.0; Win64; x64) AppleWebKit/537.36 (KHTML, like Gecko) Chrome/88.0.4324.146 Safari/537.36","v1-up-stims","","","","","","","","40,50,60,70,80","media/audio/stims/spherical_300cm_s20_c1_cd-1_matched_a50.wav","spherical","20","1","1","matched","50","70","657"
"echo-presentation","91","502970","0.0-91.0","5fb7aa66e80f073651b36132","60201dea606b8d5e5aa9e528","60201ebe3eb6e25d72273836","Mozilla/5.0 (Windows NT 10.0; Win64; x64) AppleWebKit/537.36 (KHTML, like Gecko) Chrome/88.0.4324.146 Safari/537.36","v1-up-stims","","","","","","","","40,50,60,70,80","media/audio/stims/spherical_300cm_s20_c1_cd-1_matched_a50.wav","spherical","20","1","1","matched","50","70","716"
"echo-presentation","92","504207","0.0-92.0","5fb7aa66e80f073651b36132","60201dea606b8d5e5aa9e528","60201ebe3eb6e25d72273836","Mozilla/5.0 (Windows NT 10.0; Win64; x64) AppleWebKit/537.36 (KHTML, like Gecko) Chrome/88.0.4324.146 Safari/537.36","v1-up-stims","","","","","","","","40,50,60,70,80","media/audio/stims/spherical_300cm_s20_c1_cd-1_matched_a40.wav","spherical","20","1","1","matched","40","70","672"
"echo-presentation","93","506682","0.0-93.0","5fb7aa66e80f073651b36132","60201dea606b8d5e5aa9e528","60201ebe3eb6e25d72273836","Mozilla/5.0 (Windows NT 10.0; Win64; x64) AppleWebKit/537.36 (KHTML, like Gecko) Chrome/88.0.4324.146 Safari/537.36","v1-up-stims","","","","","","","","40,50,60,70,80","media/audio/stims/spherical_300cm_s20_c1_cd-1_matched_a80.wav","spherical","20","1","1","matched","80","70","1164"
"block-bookend","94","510347","0.0-94.0","5fb7aa66e80f073651b36132","60201dea606b8d5e5aa9e528","60201ebe3eb6e25d72273836","Mozilla/5.0 (Windows NT 10.0; Win64; x64) AppleWebKit/537.36 (KHTML, like Gecko) Chrome/88.0.4324.146 Safari/537.36","v1-up-stims","","","","","","","","","","","","","","","","",""
"block-bookend","95","518378","0.0-95.0","5fb7aa66e80f073651b36132","60201dea606b8d5e5aa9e528","60201ebe3eb6e25d72273836","Mozilla/5.0 (Windows NT 10.0; Win64; x64) AppleWebKit/537.36 (KHTML, like Gecko) Chrome/88.0.4324.146 Safari/537.36","v1-up-stims","","","","","","","","","","","","","","","","",""
"echo-presentation","96","523058","0.0-96.0","5fb7aa66e80f073651b36132","60201dea606b8d5e5aa9e528","60201ebe3eb6e25d72273836","Mozilla/5.0 (Windows NT 10.0; Win64; x64) AppleWebKit/537.36 (KHTML, like Gecko) Chrome/88.0.4324.146 Safari/537.36","v1-up-stims","","","","","","","","-20,-10,0,10,20","media/audio/stims/spherical_300cm_s20_c1_cd-1_matched_a20.wav","spherical","20","1","1","matched","20","0","1916"
"echo-presentation","97","525957","0.0-97.0","5fb7aa66e80f073651b36132","60201dea606b8d5e5aa9e528","60201ebe3eb6e25d72273836","Mozilla/5.0 (Windows NT 10.0; Win64; x64) AppleWebKit/537.36 (KHTML, like Gecko) Chrome/88.0.4324.146 Safari/537.36","v1-up-stims","","","","","","","","-20,-10,0,10,20","media/audio/stims/spherical_300cm_s20_c1_cd-1_matched_a-10.wav","spherical","20","1","1","matched","-10","0","821"
"echo-presentation","98","528631","0.0-98.0","5fb7aa66e80f073651b36132","60201dea606b8d5e5aa9e528","60201ebe3eb6e25d72273836","Mozilla/5.0 (Windows NT 10.0; Win64; x64) AppleWebKit/537.36 (KHTML, like Gecko) Chrome/88.0.4324.146 Safari/537.36","v1-up-stims","","","","","","","","-20,-10,0,10,20","media/audio/stims/spherical_300cm_s20_c1_cd-1_matched_a20.wav","spherical","20","1","1","matched","20","0","1660"
"echo-presentation","99","530574","0.0-99.0","5fb7aa66e80f073651b36132","60201dea606b8d5e5aa9e528","60201ebe3eb6e25d72273836","Mozilla/5.0 (Windows NT 10.0; Win64; x64) AppleWebKit/537.36 (KHTML, like Gecko) Chrome/88.0.4324.146 Safari/537.36","v1-up-stims","","","","","","","","-20,-10,0,10,20","media/audio/stims/spherical_300cm_s20_c1_cd-1_matched_a0.wav","spherical","20","1","1","matched","0","0","924"
"echo-presentation","100","532317","0.0-100.0","5fb7aa66e80f073651b36132","60201dea606b8d5e5aa9e528","60201ebe3eb6e25d72273836","Mozilla/5.0 (Windows NT 10.0; Win64; x64) AppleWebKit/537.36 (KHTML, like Gecko) Chrome/88.0.4324.146 Safari/537.36","v1-up-stims","","","","","","","","-20,-10,0,10,20","media/audio/stims/spherical_300cm_s20_c1_cd-1_matched_a-20.wav","spherical","20","1","1","matched","-20","0","850"
"echo-presentation","101","533760","0.0-101.0","5fb7aa66e80f073651b36132","60201dea606b8d5e5aa9e528","60201ebe3eb6e25d72273836","Mozilla/5.0 (Windows NT 10.0; Win64; x64) AppleWebKit/537.36 (KHTML, like Gecko) Chrome/88.0.4324.146 Safari/537.36","v1-up-stims","","","","","","","","-20,-10,0,10,20","media/audio/stims/spherical_300cm_s20_c1_cd-1_matched_a20.wav","spherical","20","1","1","matched","20","0","611"
"echo-presentation","102","535326","0.0-102.0","5fb7aa66e80f073651b36132","60201dea606b8d5e5aa9e528","60201ebe3eb6e25d72273836","Mozilla/5.0 (Windows NT 10.0; Win64; x64) AppleWebKit/537.36 (KHTML, like Gecko) Chrome/88.0.4324.146 Safari/537.36","v1-up-stims","","","","","","","","-20,-10,0,10,20","media/audio/stims/spherical_300cm_s20_c1_cd-1_matched_a10.wav","spherical","20","1","1","matched","10","0","743"
"echo-presentation","103","537181","0.0-103.0","5fb7aa66e80f073651b36132","60201dea606b8d5e5aa9e528","60201ebe3eb6e25d72273836","Mozilla/5.0 (Windows NT 10.0; Win64; x64) AppleWebKit/537.36 (KHTML, like Gecko) Chrome/88.0.4324.146 Safari/537.36","v1-up-stims","","","","","","","","-20,-10,0,10,20","media/audio/stims/spherical_300cm_s20_c1_cd-1_matched_a20.wav","spherical","20","1","1","matched","20","0","1105"
"echo-presentation","104","539312","0.0-104.0","5fb7aa66e80f073651b36132","60201dea606b8d5e5aa9e528","60201ebe3eb6e25d72273836","Mozilla/5.0 (Windows NT 10.0; Win64; x64) AppleWebKit/537.36 (KHTML, like Gecko) Chrome/88.0.4324.146 Safari/537.36","v1-up-stims","","","","","","","","-20,-10,0,10,20","media/audio/stims/spherical_300cm_s20_c1_cd-1_matched_a-20.wav","spherical","20","1","1","matched","-20","0","635"
"echo-presentation","105","540743","0.0-105.0","5fb7aa66e80f073651b36132","60201dea606b8d5e5aa9e528","60201ebe3eb6e25d72273836","Mozilla/5.0 (Windows NT 10.0; Win64; x64) AppleWebKit/537.36 (KHTML, like Gecko) Chrome/88.0.4324.146 Safari/537.36","v1-up-stims","","","","","","","","-20,-10,0,10,20","media/audio/stims/spherical_300cm_s20_c1_cd-1_matched_a0.wav","spherical","20","1","1","matched","0","0","652"
"echo-presentation","106","542136","0.0-106.0","5fb7aa66e80f073651b36132","60201dea606b8d5e5aa9e528","60201ebe3eb6e25d72273836","Mozilla/5.0 (Windows NT 10.0; Win64; x64) AppleWebKit/537.36 (KHTML, like Gecko) Chrome/88.0.4324.146 Safari/537.36","v1-up-stims","","","","","","","","-20,-10,0,10,20","media/audio/stims/spherical_300cm_s20_c1_cd-1_matched_a-10.wav","spherical","20","1","1","matched","-10","0","622"
"echo-presentation","107","543553","0.0-107.0","5fb7aa66e80f073651b36132","60201dea606b8d5e5aa9e528","60201ebe3eb6e25d72273836","Mozilla/5.0 (Windows NT 10.0; Win64; x64) AppleWebKit/537.36 (KHTML, like Gecko) Chrome/88.0.4324.146 Safari/537.36","v1-up-stims","","","","","","","","-20,-10,0,10,20","media/audio/stims/spherical_300cm_s20_c1_cd-1_matched_a10.wav","spherical","20","1","1","matched","10","0","732"
"echo-presentation","108","546029","0.0-108.0","5fb7aa66e80f073651b36132","60201dea606b8d5e5aa9e528","60201ebe3eb6e25d72273836","Mozilla/5.0 (Windows NT 10.0; Win64; x64) AppleWebKit/537.36 (KHTML, like Gecko) Chrome/88.0.4324.146 Safari/537.36","v1-up-stims","","","","","","","","-20,-10,0,10,20","media/audio/stims/spherical_300cm_s20_c1_cd-1_matched_a10.wav","spherical","20","1","1","matched","10","0","964"
"echo-presentation","109","547435","0.0-109.0","5fb7aa66e80f073651b36132","60201dea606b8d5e5aa9e528","60201ebe3eb6e25d72273836","Mozilla/5.0 (Windows NT 10.0; Win64; x64) AppleWebKit/537.36 (KHTML, like Gecko) Chrome/88.0.4324.146 Safari/537.36","v1-up-stims","","","","","","","","-20,-10,0,10,20","media/audio/stims/spherical_300cm_s20_c1_cd-1_matched_a-20.wav","spherical","20","1","1","matched","-20","0","669"
"echo-presentation","110","548987","0.0-110.0","5fb7aa66e80f073651b36132","60201dea606b8d5e5aa9e528","60201ebe3eb6e25d72273836","Mozilla/5.0 (Windows NT 10.0; Win64; x64) AppleWebKit/537.36 (KHTML, like Gecko) Chrome/88.0.4324.146 Safari/537.36","v1-up-stims","","","","","","","","-20,-10,0,10,20","media/audio/stims/spherical_300cm_s20_c1_cd-1_matched_a-10.wav","spherical","20","1","1","matched","-10","0","632"
"echo-presentation","111","550385","0.0-111.0","5fb7aa66e80f073651b36132","60201dea606b8d5e5aa9e528","60201ebe3eb6e25d72273836","Mozilla/5.0 (Windows NT 10.0; Win64; x64) AppleWebKit/537.36 (KHTML, like Gecko) Chrome/88.0.4324.146 Safari/537.36","v1-up-stims","","","","","","","","-20,-10,0,10,20","media/audio/stims/spherical_300cm_s20_c1_cd-1_matched_a0.wav","spherical","20","1","1","matched","0","0","667"
"echo-presentation","112","552374","0.0-112.0","5fb7aa66e80f073651b36132","60201dea606b8d5e5aa9e528","60201ebe3eb6e25d72273836","Mozilla/5.0 (Windows NT 10.0; Win64; x64) AppleWebKit/537.36 (KHTML, like Gecko) Chrome/88.0.4324.146 Safari/537.36","v1-up-stims","","","","","","","","-20,-10,0,10,20","media/audio/stims/spherical_300cm_s20_c1_cd-1_matched_a-10.wav","spherical","20","1","1","matched","-10","0","578"
"echo-presentation","113","566700","0.0-113.0","5fb7aa66e80f073651b36132","60201dea606b8d5e5aa9e528","60201ebe3eb6e25d72273836","Mozilla/5.0 (Windows NT 10.0; Win64; x64) AppleWebKit/537.36 (KHTML, like Gecko) Chrome/88.0.4324.146 Safari/537.36","v1-up-stims","","","","","","","","-20,-10,0,10,20","media/audio/stims/spherical_300cm_s20_c1_cd-1_matched_a10.wav","spherical","20","1","1","matched","10","0","11729"
"echo-presentation","114","568689","0.0-114.0","5fb7aa66e80f073651b36132","60201dea606b8d5e5aa9e528","60201ebe3eb6e25d72273836","Mozilla/5.0 (Windows NT 10.0; Win64; x64) AppleWebKit/537.36 (KHTML, like Gecko) Chrome/88.0.4324.146 Safari/537.36","v1-up-stims","","","","","","","","-20,-10,0,10,20","media/audio/stims/spherical_300cm_s20_c1_cd-1_matched_a-20.wav","spherical","20","1","1","matched","-20","0","875"
"echo-presentation","115","571040","0.0-115.0","5fb7aa66e80f073651b36132","60201dea606b8d5e5aa9e528","60201ebe3eb6e25d72273836","Mozilla/5.0 (Windows NT 10.0; Win64; x64) AppleWebKit/537.36 (KHTML, like Gecko) Chrome/88.0.4324.146 Safari/537.36","v1-up-stims","","","","","","","","-20,-10,0,10,20","media/audio/stims/spherical_300cm_s20_c1_cd-1_matched_a0.wav","spherical","20","1","1","matched","0","0","1512"
"block-bookend","116","571990","0.0-116.0","5fb7aa66e80f073651b36132","60201dea606b8d5e5aa9e528","60201ebe3eb6e25d72273836","Mozilla/5.0 (Windows NT 10.0; Win64; x64) AppleWebKit/537.36 (KHTML, like Gecko) Chrome/88.0.4324.146 Safari/537.36","v1-up-stims","","","","","","","","","","","","","","","","",""
"block-bookend","117","577521","0.0-117.0","5fb7aa66e80f073651b36132","60201dea606b8d5e5aa9e528","60201ebe3eb6e25d72273836","Mozilla/5.0 (Windows NT 10.0; Win64; x64) AppleWebKit/537.36 (KHTML, like Gecko) Chrome/88.0.4324.146 Safari/537.36","v1-up-stims","","","","","","","","","","","","","","","","",""
"echo-presentation","118","580587","0.0-118.0","5fb7aa66e80f073651b36132","60201dea606b8d5e5aa9e528","60201ebe3eb6e25d72273836","Mozilla/5.0 (Windows NT 10.0; Win64; x64) AppleWebKit/537.36 (KHTML, like Gecko) Chrome/88.0.4324.146 Safari/537.36","v1-up-stims","","","","","","","","-20,-10,0,10,20","media/audio/stims/spherical_300cm_s20_c1_cd-1_matched_a-10.wav","spherical","20","1","1","matched","-10","0","893"
"echo-presentation","119","582073","0.0-119.0","5fb7aa66e80f073651b36132","60201dea606b8d5e5aa9e528","60201ebe3eb6e25d72273836","Mozilla/5.0 (Windows NT 10.0; Win64; x64) AppleWebKit/537.36 (KHTML, like Gecko) Chrome/88.0.4324.146 Safari/537.36","v1-up-stims","","","","","","","","-20,-10,0,10,20","media/audio/stims/spherical_300cm_s20_c1_cd-1_matched_a20.wav","spherical","20","1","1","matched","20","0","776"
"echo-presentation","120","584136","0.0-120.0","5fb7aa66e80f073651b36132","60201dea606b8d5e5aa9e528","60201ebe3eb6e25d72273836","Mozilla/5.0 (Windows NT 10.0; Win64; x64) AppleWebKit/537.36 (KHTML, like Gecko) Chrome/88.0.4324.146 Safari/537.36","v1-up-stims","","","","","","","","-20,-10,0,10,20","media/audio/stims/spherical_300cm_s20_c1_cd-1_matched_a0.wav","spherical","20","1","1","matched","0","0","1293"
"echo-presentation","121","585947","0.0-121.0","5fb7aa66e80f073651b36132","60201dea606b8d5e5aa9e528","60201ebe3eb6e25d72273836","Mozilla/5.0 (Windows NT 10.0; Win64; x64) AppleWebKit/537.36 (KHTML, like Gecko) Chrome/88.0.4324.146 Safari/537.36","v1-up-stims","","","","","","","","-20,-10,0,10,20","media/audio/stims/spherical_300cm_s20_c1_cd-1_matched_a-20.wav","spherical","20","1","1","matched","-20","0","732"
"echo-presentation","122","587382","0.0-122.0","5fb7aa66e80f073651b36132","60201dea606b8d5e5aa9e528","60201ebe3eb6e25d72273836","Mozilla/5.0 (Windows NT 10.0; Win64; x64) AppleWebKit/537.36 (KHTML, like Gecko) Chrome/88.0.4324.146 Safari/537.36","v1-up-stims","","","","","","","","-20,-10,0,10,20","media/audio/stims/spherical_300cm_s20_c1_cd-1_matched_a-10.wav","spherical","20","1","1","matched","-10","0","809"
"echo-presentation","123","588821","0.0-123.0","5fb7aa66e80f073651b36132","60201dea606b8d5e5aa9e528","60201ebe3eb6e25d72273836","Mozilla/5.0 (Windows NT 10.0; Win64; x64) AppleWebKit/537.36 (KHTML, like Gecko) Chrome/88.0.4324.146 Safari/537.36","v1-up-stims","","","","","","","","-20,-10,0,10,20","media/audio/stims/spherical_300cm_s20_c1_cd-1_matched_a20.wav","spherical","20","1","1","matched","20","0","843"
"echo-presentation","124","590239","0.0-124.0","5fb7aa66e80f073651b36132","60201dea606b8d5e5aa9e528","60201ebe3eb6e25d72273836","Mozilla/5.0 (Windows NT 10.0; Win64; x64) AppleWebKit/537.36 (KHTML, like Gecko) Chrome/88.0.4324.146 Safari/537.36","v1-up-stims","","","","","","","","-20,-10,0,10,20","media/audio/stims/spherical_300cm_s20_c1_cd-1_matched_a-20.wav","spherical","20","1","1","matched","-20","0","828"
"echo-presentation","125","591632","0.0-125.0","5fb7aa66e80f073651b36132","60201dea606b8d5e5aa9e528","60201ebe3eb6e25d72273836","Mozilla/5.0 (Windows NT 10.0; Win64; x64) AppleWebKit/537.36 (KHTML, like Gecko) Chrome/88.0.4324.146 Safari/537.36","v1-up-stims","","","","","","","","-20,-10,0,10,20","media/audio/stims/spherical_300cm_s20_c1_cd-1_matched_a-20.wav","spherical","20","1","1","matched","-20","0","750"
"echo-presentation","126","592848","0.0-126.0","5fb7aa66e80f073651b36132","60201dea606b8d5e5aa9e528","60201ebe3eb6e25d72273836","Mozilla/5.0 (Windows NT 10.0; Win64; x64) AppleWebKit/537.36 (KHTML, like Gecko) Chrome/88.0.4324.146 Safari/537.36","v1-up-stims","","","","","","","","-20,-10,0,10,20","media/audio/stims/spherical_300cm_s20_c1_cd-1_matched_a-10.wav","spherical","20","1","1","matched","-10","0","684"
"echo-presentation","127","594119","0.0-127.0","5fb7aa66e80f073651b36132","60201dea606b8d5e5aa9e528","60201ebe3eb6e25d72273836","Mozilla/5.0 (Windows NT 10.0; Win64; x64) AppleWebKit/537.36 (KHTML, like Gecko) Chrome/88.0.4324.146 Safari/537.36","v1-up-stims","","","","","","","","-20,-10,0,10,20","media/audio/stims/spherical_300cm_s20_c1_cd-1_matched_a20.wav","spherical","20","1","1","matched","20","0","767"
"echo-presentation","128","596577","0.0-128.0","5fb7aa66e80f073651b36132","60201dea606b8d5e5aa9e528","60201ebe3eb6e25d72273836","Mozilla/5.0 (Windows NT 10.0; Win64; x64) AppleWebKit/537.36 (KHTML, like Gecko) Chrome/88.0.4324.146 Safari/537.36","v1-up-stims","","","","","","","","-20,-10,0,10,20","media/audio/stims/spherical_300cm_s20_c1_cd-1_matched_a0.wav","spherical","20","1","1","matched","0","0","791"
"echo-presentation","129","598064","0.0-129.0","5fb7aa66e80f073651b36132","60201dea606b8d5e5aa9e528","60201ebe3eb6e25d72273836","Mozilla/5.0 (Windows NT 10.0; Win64; x64) AppleWebKit/537.36 (KHTML, like Gecko) Chrome/88.0.4324.146 Safari/537.36","v1-up-stims","","","","","","","","-20,-10,0,10,20","media/audio/stims/spherical_300cm_s20_c1_cd-1_matched_a10.wav","spherical","20","1","1","matched","10","0","692"
"echo-presentation","130","599862","0.0-130.0","5fb7aa66e80f073651b36132","60201dea606b8d5e5aa9e528","60201ebe3eb6e25d72273836","Mozilla/5.0 (Windows NT 10.0; Win64; x64) AppleWebKit/537.36 (KHTML, like Gecko) Chrome/88.0.4324.146 Safari/537.36","v1-up-stims","","","","","","","","-20,-10,0,10,20","media/audio/stims/spherical_300cm_s20_c1_cd-1_matched_a-10.wav","spherical","20","1","1","matched","-10","0","820"
"echo-presentation","131","601345","0.0-131.0","5fb7aa66e80f073651b36132","60201dea606b8d5e5aa9e528","60201ebe3eb6e25d72273836","Mozilla/5.0 (Windows NT 10.0; Win64; x64) AppleWebKit/537.36 (KHTML, like Gecko) Chrome/88.0.4324.146 Safari/537.36","v1-up-stims","","","","","","","","-20,-10,0,10,20","media/audio/stims/spherical_300cm_s20_c1_cd-1_matched_a10.wav","spherical","20","1","1","matched","10","0","701"
"echo-presentation","132","602629","0.0-132.0","5fb7aa66e80f073651b36132","60201dea606b8d5e5aa9e528","60201ebe3eb6e25d72273836","Mozilla/5.0 (Windows NT 10.0; Win64; x64) AppleWebKit/537.36 (KHTML, like Gecko) Chrome/88.0.4324.146 Safari/537.36","v1-up-stims","","","","","","","","-20,-10,0,10,20","media/audio/stims/spherical_300cm_s20_c1_cd-1_matched_a0.wav","spherical","20","1","1","matched","0","0","638"
"echo-presentation","133","603815","0.0-133.0","5fb7aa66e80f073651b36132","60201dea606b8d5e5aa9e528","60201ebe3eb6e25d72273836","Mozilla/5.0 (Windows NT 10.0; Win64; x64) AppleWebKit/537.36 (KHTML, like Gecko) Chrome/88.0.4324.146 Safari/537.36","v1-up-stims","","","","","","","","-20,-10,0,10,20","media/audio/stims/spherical_300cm_s20_c1_cd-1_matched_a-20.wav","spherical","20","1","1","matched","-20","0","636"
"echo-presentation","134","605273","0.0-134.0","5fb7aa66e80f073651b36132","60201dea606b8d5e5aa9e528","60201ebe3eb6e25d72273836","Mozilla/5.0 (Windows NT 10.0; Win64; x64) AppleWebKit/537.36 (KHTML, like Gecko) Chrome/88.0.4324.146 Safari/537.36","v1-up-stims","","","","","","","","-20,-10,0,10,20","media/audio/stims/spherical_300cm_s20_c1_cd-1_matched_a20.wav","spherical","20","1","1","matched","20","0","899"
"echo-presentation","135","606724","0.0-135.0","5fb7aa66e80f073651b36132","60201dea606b8d5e5aa9e528","60201ebe3eb6e25d72273836","Mozilla/5.0 (Windows NT 10.0; Win64; x64) AppleWebKit/537.36 (KHTML, like Gecko) Chrome/88.0.4324.146 Safari/537.36","v1-up-stims","","","","","","","","-20,-10,0,10,20","media/audio/stims/spherical_300cm_s20_c1_cd-1_matched_a10.wav","spherical","20","1","1","matched","10","0","836"
"echo-presentation","136","607844","0.0-136.0","5fb7aa66e80f073651b36132","60201dea606b8d5e5aa9e528","60201ebe3eb6e25d72273836","Mozilla/5.0 (Windows NT 10.0; Win64; x64) AppleWebKit/537.36 (KHTML, like Gecko) Chrome/88.0.4324.146 Safari/537.36","v1-up-stims","","","","","","","","-20,-10,0,10,20","media/audio/stims/spherical_300cm_s20_c1_cd-1_matched_a0.wav","spherical","20","1","1","matched","0","0","613"
"echo-presentation","137","609683","0.0-137.0","5fb7aa66e80f073651b36132","60201dea606b8d5e5aa9e528","60201ebe3eb6e25d72273836","Mozilla/5.0 (Windows NT 10.0; Win64; x64) AppleWebKit/537.36 (KHTML, like Gecko) Chrome/88.0.4324.146 Safari/537.36","v1-up-stims","","","","","","","","-20,-10,0,10,20","media/audio/stims/spherical_300cm_s20_c1_cd-1_matched_a10.wav","spherical","20","1","1","matched","10","0","1270"
"block-bookend","138","611460","0.0-138.0","5fb7aa66e80f073651b36132","60201dea606b8d5e5aa9e528","60201ebe3eb6e25d72273836","Mozilla/5.0 (Windows NT 10.0; Win64; x64) AppleWebKit/537.36 (KHTML, like Gecko) Chrome/88.0.4324.146 Safari/537.36","v1-up-stims","","","","","","","","","","","","","","","","",""
