"trial_type","trial_index","time_elapsed","internal_node_id","prolificPid","studyId","sessionId","userAgent","version","rt","stimulus","key_press","chosenKeyset","failureCount","testIndex","globalVolume","choices","filename","modelName","slowdown","compensation","compensationDescriptor","receiverOrientationType","azimuth","responseAzimuth","responseDelay"
"pavlovia","0","2","0.0-0.0","5e171824fb00b6025387f90b","5fef55e628823a0076ec12ee","601f446bec317f4a8e1aa705","Mozilla/5.0 (Windows NT 10.0; Win64; x64) AppleWebKit/537.36 (KHTML, like Gecko) Chrome/88.0.4324.150 Safari/537.36","v1","","","","","","","","","","","","","","","","",""
"html-keyboard-response","1","41656","0.0-1.0","5e171824fb00b6025387f90b","5fef55e628823a0076ec12ee","601f446bec317f4a8e1aa705","Mozilla/5.0 (Windows NT 10.0; Win64; x64) AppleWebKit/537.36 (KHTML, like Gecko) Chrome/88.0.4324.150 Safari/537.36","v1","41653.2850000076","<div><h1>Welcome!</h1><p>Press any key to continue.</p></div>","13","","","","","","","","","","","","","",""
"consent-form","2","85778","0.0-2.0","5e171824fb00b6025387f90b","5fef55e628823a0076ec12ee","601f446bec317f4a8e1aa705","Mozilla/5.0 (Windows NT 10.0; Win64; x64) AppleWebKit/537.36 (KHTML, like Gecko) Chrome/88.0.4324.150 Safari/537.36","v1","","","","","","","","","","","","","","","","",""
"keyset-select","3","114398","0.0-3.0","5e171824fb00b6025387f90b","5fef55e628823a0076ec12ee","601f446bec317f4a8e1aa705","Mozilla/5.0 (Windows NT 10.0; Win64; x64) AppleWebKit/537.36 (KHTML, like Gecko) Chrome/88.0.4324.150 Safari/537.36","v1","","","","left-hand","","","","","","","","","","","","",""
"headphone-check","4","173269","0.0-4.0","5e171824fb00b6025387f90b","5fef55e628823a0076ec12ee","601f446bec317f4a8e1aa705","Mozilla/5.0 (Windows NT 10.0; Win64; x64) AppleWebKit/537.36 (KHTML, like Gecko) Chrome/88.0.4324.150 Safari/537.36","v1","","","","","0","6","1","","","","","","","","","",""
"headphone-backwards-check","5","184228","0.0-5.0","5e171824fb00b6025387f90b","5fef55e628823a0076ec12ee","601f446bec317f4a8e1aa705","Mozilla/5.0 (Windows NT 10.0; Win64; x64) AppleWebKit/537.36 (KHTML, like Gecko) Chrome/88.0.4324.150 Safari/537.36","v1","","","","","0","","","","","","","","","","","",""
"training","6","275788","0.0-6.0","5e171824fb00b6025387f90b","5fef55e628823a0076ec12ee","601f446bec317f4a8e1aa705","Mozilla/5.0 (Windows NT 10.0; Win64; x64) AppleWebKit/537.36 (KHTML, like Gecko) Chrome/88.0.4324.150 Safari/537.36","v1","","","","","","","","","","","","","","","","",""
"block-bookend","7","287529","0.0-7.0","5e171824fb00b6025387f90b","5fef55e628823a0076ec12ee","601f446bec317f4a8e1aa705","Mozilla/5.0 (Windows NT 10.0; Win64; x64) AppleWebKit/537.36 (KHTML, like Gecko) Chrome/88.0.4324.150 Safari/537.36","v1","","","","","","","","","","","","","","","","",""
"echo-presentation","8","302344","0.0-8.0","5e171824fb00b6025387f90b","5fef55e628823a0076ec12ee","601f446bec317f4a8e1aa705","Mozilla/5.0 (Windows NT 10.0; Win64; x64) AppleWebKit/537.36 (KHTML, like Gecko) Chrome/88.0.4324.150 Safari/537.36","v1","","","","","","","","-80,-70,-60,-50,-40","media/audio/stims/spherical_300cm_s20_c20_cd-full_matched_a-80.wav","spherical","20","20","full","matched","-80","-70","9944"
"echo-presentation","9","309813","0.0-9.0","5e171824fb00b6025387f90b","5fef55e628823a0076ec12ee","601f446bec317f4a8e1aa705","Mozilla/5.0 (Windows NT 10.0; Win64; x64) AppleWebKit/537.36 (KHTML, like Gecko) Chrome/88.0.4324.150 Safari/537.36","v1","","","","","","","","-80,-70,-60,-50,-40","media/audio/stims/spherical_300cm_s20_c20_cd-full_matched_a-50.wav","spherical","20","20","full","matched","-50","-80","5910"
"echo-presentation","10","314012","0.0-10.0","5e171824fb00b6025387f90b","5fef55e628823a0076ec12ee","601f446bec317f4a8e1aa705","Mozilla/5.0 (Windows NT 10.0; Win64; x64) AppleWebKit/537.36 (KHTML, like Gecko) Chrome/88.0.4324.150 Safari/537.36","v1","","","","","","","","-80,-70,-60,-50,-40","media/audio/stims/spherical_300cm_s20_c20_cd-full_matched_a-70.wav","spherical","20","20","full","matched","-70","-60","2126"
"echo-presentation","11","316723","0.0-11.0","5e171824fb00b6025387f90b","5fef55e628823a0076ec12ee","601f446bec317f4a8e1aa705","Mozilla/5.0 (Windows NT 10.0; Win64; x64) AppleWebKit/537.36 (KHTML, like Gecko) Chrome/88.0.4324.150 Safari/537.36","v1","","","","","","","","-80,-70,-60,-50,-40","media/audio/stims/spherical_300cm_s20_c20_cd-full_matched_a-70.wav","spherical","20","20","full","matched","-70","-60","1459"
"echo-presentation","12","319652","0.0-12.0","5e171824fb00b6025387f90b","5fef55e628823a0076ec12ee","601f446bec317f4a8e1aa705","Mozilla/5.0 (Windows NT 10.0; Win64; x64) AppleWebKit/537.36 (KHTML, like Gecko) Chrome/88.0.4324.150 Safari/537.36","v1","","","","","","","","-80,-70,-60,-50,-40","media/audio/stims/spherical_300cm_s20_c20_cd-full_matched_a-50.wav","spherical","20","20","full","matched","-50","-70","1754"
"echo-presentation","13","324086","0.0-13.0","5e171824fb00b6025387f90b","5fef55e628823a0076ec12ee","601f446bec317f4a8e1aa705","Mozilla/5.0 (Windows NT 10.0; Win64; x64) AppleWebKit/537.36 (KHTML, like Gecko) Chrome/88.0.4324.150 Safari/537.36","v1","","","","","","","","-80,-70,-60,-50,-40","media/audio/stims/spherical_300cm_s20_c20_cd-full_matched_a-80.wav","spherical","20","20","full","matched","-80","-60","2725"
"echo-presentation","14","326613","0.0-14.0","5e171824fb00b6025387f90b","5fef55e628823a0076ec12ee","601f446bec317f4a8e1aa705","Mozilla/5.0 (Windows NT 10.0; Win64; x64) AppleWebKit/537.36 (KHTML, like Gecko) Chrome/88.0.4324.150 Safari/537.36","v1","","","","","","","","-80,-70,-60,-50,-40","media/audio/stims/spherical_300cm_s20_c20_cd-full_matched_a-60.wav","spherical","20","20","full","matched","-60","-50","1278"
"echo-presentation","15","328815","0.0-15.0","5e171824fb00b6025387f90b","5fef55e628823a0076ec12ee","601f446bec317f4a8e1aa705","Mozilla/5.0 (Windows NT 10.0; Win64; x64) AppleWebKit/537.36 (KHTML, like Gecko) Chrome/88.0.4324.150 Safari/537.36","v1","","","","","","","","-80,-70,-60,-50,-40","media/audio/stims/spherical_300cm_s20_c20_cd-full_matched_a-40.wav","spherical","20","20","full","matched","-40","-40","1000"
"echo-presentation","16","332102","0.0-16.0","5e171824fb00b6025387f90b","5fef55e628823a0076ec12ee","601f446bec317f4a8e1aa705","Mozilla/5.0 (Windows NT 10.0; Win64; x64) AppleWebKit/537.36 (KHTML, like Gecko) Chrome/88.0.4324.150 Safari/537.36","v1","","","","","","","","-80,-70,-60,-50,-40","media/audio/stims/spherical_300cm_s20_c20_cd-full_matched_a-40.wav","spherical","20","20","full","matched","-40","-40","2297"
"echo-presentation","17","334924","0.0-17.0","5e171824fb00b6025387f90b","5fef55e628823a0076ec12ee","601f446bec317f4a8e1aa705","Mozilla/5.0 (Windows NT 10.0; Win64; x64) AppleWebKit/537.36 (KHTML, like Gecko) Chrome/88.0.4324.150 Safari/537.36","v1","","","","","","","","-80,-70,-60,-50,-40","media/audio/stims/spherical_300cm_s20_c20_cd-full_matched_a-40.wav","spherical","20","20","full","matched","-40","-80","1528"
"echo-presentation","18","337374","0.0-18.0","5e171824fb00b6025387f90b","5fef55e628823a0076ec12ee","601f446bec317f4a8e1aa705","Mozilla/5.0 (Windows NT 10.0; Win64; x64) AppleWebKit/537.36 (KHTML, like Gecko) Chrome/88.0.4324.150 Safari/537.36","v1","","","","","","","","-80,-70,-60,-50,-40","media/audio/stims/spherical_300cm_s20_c20_cd-full_matched_a-80.wav","spherical","20","20","full","matched","-80","-70","1388"
"echo-presentation","19","340678","0.0-19.0","5e171824fb00b6025387f90b","5fef55e628823a0076ec12ee","601f446bec317f4a8e1aa705","Mozilla/5.0 (Windows NT 10.0; Win64; x64) AppleWebKit/537.36 (KHTML, like Gecko) Chrome/88.0.4324.150 Safari/537.36","v1","","","","","","","","-80,-70,-60,-50,-40","media/audio/stims/spherical_300cm_s20_c20_cd-full_matched_a-80.wav","spherical","20","20","full","matched","-80","-50","2325"
"echo-presentation","20","343144","0.0-20.0","5e171824fb00b6025387f90b","5fef55e628823a0076ec12ee","601f446bec317f4a8e1aa705","Mozilla/5.0 (Windows NT 10.0; Win64; x64) AppleWebKit/537.36 (KHTML, like Gecko) Chrome/88.0.4324.150 Safari/537.36","v1","","","","","","","","-80,-70,-60,-50,-40","media/audio/stims/spherical_300cm_s20_c20_cd-full_matched_a-70.wav","spherical","20","20","full","matched","-70","-50","1368"
"echo-presentation","21","347096","0.0-21.0","5e171824fb00b6025387f90b","5fef55e628823a0076ec12ee","601f446bec317f4a8e1aa705","Mozilla/5.0 (Windows NT 10.0; Win64; x64) AppleWebKit/537.36 (KHTML, like Gecko) Chrome/88.0.4324.150 Safari/537.36","v1","","","","","","","","-80,-70,-60,-50,-40","media/audio/stims/spherical_300cm_s20_c20_cd-full_matched_a-60.wav","spherical","20","20","full","matched","-60","-40","2824"
"echo-presentation","22","355344","0.0-22.0","5e171824fb00b6025387f90b","5fef55e628823a0076ec12ee","601f446bec317f4a8e1aa705","Mozilla/5.0 (Windows NT 10.0; Win64; x64) AppleWebKit/537.36 (KHTML, like Gecko) Chrome/88.0.4324.150 Safari/537.36","v1","","","","","","","","-80,-70,-60,-50,-40","media/audio/stims/spherical_300cm_s20_c20_cd-full_matched_a-50.wav","spherical","20","20","full","matched","-50","-60","7091"
"echo-presentation","23","360916","0.0-23.0","5e171824fb00b6025387f90b","5fef55e628823a0076ec12ee","601f446bec317f4a8e1aa705","Mozilla/5.0 (Windows NT 10.0; Win64; x64) AppleWebKit/537.36 (KHTML, like Gecko) Chrome/88.0.4324.150 Safari/537.36","v1","","","","","","","","-80,-70,-60,-50,-40","media/audio/stims/spherical_300cm_s20_c20_cd-full_matched_a-60.wav","spherical","20","20","full","matched","-60","-80","1258"
"echo-presentation","24","363871","0.0-24.0","5e171824fb00b6025387f90b","5fef55e628823a0076ec12ee","601f446bec317f4a8e1aa705","Mozilla/5.0 (Windows NT 10.0; Win64; x64) AppleWebKit/537.36 (KHTML, like Gecko) Chrome/88.0.4324.150 Safari/537.36","v1","","","","","","","","-80,-70,-60,-50,-40","media/audio/stims/spherical_300cm_s20_c20_cd-full_matched_a-50.wav","spherical","20","20","full","matched","-50","-50","1931"
"echo-presentation","25","365658","0.0-25.0","5e171824fb00b6025387f90b","5fef55e628823a0076ec12ee","601f446bec317f4a8e1aa705","Mozilla/5.0 (Windows NT 10.0; Win64; x64) AppleWebKit/537.36 (KHTML, like Gecko) Chrome/88.0.4324.150 Safari/537.36","v1","","","","","","","","-80,-70,-60,-50,-40","media/audio/stims/spherical_300cm_s20_c20_cd-full_matched_a-60.wav","spherical","20","20","full","matched","-60","-40","816"
"echo-presentation","26","367368","0.0-26.0","5e171824fb00b6025387f90b","5fef55e628823a0076ec12ee","601f446bec317f4a8e1aa705","Mozilla/5.0 (Windows NT 10.0; Win64; x64) AppleWebKit/537.36 (KHTML, like Gecko) Chrome/88.0.4324.150 Safari/537.36","v1","","","","","","","","-80,-70,-60,-50,-40","media/audio/stims/spherical_300cm_s20_c20_cd-full_matched_a-70.wav","spherical","20","20","full","matched","-70","-40","818"
"echo-presentation","27","369524","0.0-27.0","5e171824fb00b6025387f90b","5fef55e628823a0076ec12ee","601f446bec317f4a8e1aa705","Mozilla/5.0 (Windows NT 10.0; Win64; x64) AppleWebKit/537.36 (KHTML, like Gecko) Chrome/88.0.4324.150 Safari/537.36","v1","","","","","","","","-80,-70,-60,-50,-40","media/audio/stims/spherical_300cm_s20_c20_cd-full_matched_a-40.wav","spherical","20","20","full","matched","-40","-80","1179"
"block-bookend","28","372354","0.0-28.0","5e171824fb00b6025387f90b","5fef55e628823a0076ec12ee","601f446bec317f4a8e1aa705","Mozilla/5.0 (Windows NT 10.0; Win64; x64) AppleWebKit/537.36 (KHTML, like Gecko) Chrome/88.0.4324.150 Safari/537.36","v1","","","","","","","","","","","","","","","","",""
"block-bookend","29","392415","0.0-29.0","5e171824fb00b6025387f90b","5fef55e628823a0076ec12ee","601f446bec317f4a8e1aa705","Mozilla/5.0 (Windows NT 10.0; Win64; x64) AppleWebKit/537.36 (KHTML, like Gecko) Chrome/88.0.4324.150 Safari/537.36","v1","","","","","","","","","","","","","","","","",""
"echo-presentation","30","398609","0.0-30.0","5e171824fb00b6025387f90b","5fef55e628823a0076ec12ee","601f446bec317f4a8e1aa705","Mozilla/5.0 (Windows NT 10.0; Win64; x64) AppleWebKit/537.36 (KHTML, like Gecko) Chrome/88.0.4324.150 Safari/537.36","v1","","","","","","","","-80,-70,-60,-50,-40","media/audio/stims/spherical_300cm_s20_c20_cd-full_matched_a-40.wav","spherical","20","20","full","matched","-40","-40","3964"
"echo-presentation","31","401538","0.0-31.0","5e171824fb00b6025387f90b","5fef55e628823a0076ec12ee","601f446bec317f4a8e1aa705","Mozilla/5.0 (Windows NT 10.0; Win64; x64) AppleWebKit/537.36 (KHTML, like Gecko) Chrome/88.0.4324.150 Safari/537.36","v1","","","","","","","","-80,-70,-60,-50,-40","media/audio/stims/spherical_300cm_s20_c20_cd-full_matched_a-70.wav","spherical","20","20","full","matched","-70","-40","1545"
"echo-presentation","32","407256","0.0-32.0","5e171824fb00b6025387f90b","5fef55e628823a0076ec12ee","601f446bec317f4a8e1aa705","Mozilla/5.0 (Windows NT 10.0; Win64; x64) AppleWebKit/537.36 (KHTML, like Gecko) Chrome/88.0.4324.150 Safari/537.36","v1","","","","","","","","-80,-70,-60,-50,-40","media/audio/stims/spherical_300cm_s20_c20_cd-full_matched_a-80.wav","spherical","20","20","full","matched","-80","-60","4891"
"echo-presentation","33","411327","0.0-33.0","5e171824fb00b6025387f90b","5fef55e628823a0076ec12ee","601f446bec317f4a8e1aa705","Mozilla/5.0 (Windows NT 10.0; Win64; x64) AppleWebKit/537.36 (KHTML, like Gecko) Chrome/88.0.4324.150 Safari/537.36","v1","","","","","","","","-80,-70,-60,-50,-40","media/audio/stims/spherical_300cm_s20_c20_cd-full_matched_a-60.wav","spherical","20","20","full","matched","-60","-70","3030"
"echo-presentation","34","414541","0.0-34.0","5e171824fb00b6025387f90b","5fef55e628823a0076ec12ee","601f446bec317f4a8e1aa705","Mozilla/5.0 (Windows NT 10.0; Win64; x64) AppleWebKit/537.36 (KHTML, like Gecko) Chrome/88.0.4324.150 Safari/537.36","v1","","","","","","","","-80,-70,-60,-50,-40","media/audio/stims/spherical_300cm_s20_c20_cd-full_matched_a-70.wav","spherical","20","20","full","matched","-70","-70","2433"
"echo-presentation","35","417572","0.0-35.0","5e171824fb00b6025387f90b","5fef55e628823a0076ec12ee","601f446bec317f4a8e1aa705","Mozilla/5.0 (Windows NT 10.0; Win64; x64) AppleWebKit/537.36 (KHTML, like Gecko) Chrome/88.0.4324.150 Safari/537.36","v1","","","","","","","","-80,-70,-60,-50,-40","media/audio/stims/spherical_300cm_s20_c20_cd-full_matched_a-60.wav","spherical","20","20","full","matched","-60","-40","2178"
"echo-presentation","36","420742","0.0-36.0","5e171824fb00b6025387f90b","5fef55e628823a0076ec12ee","601f446bec317f4a8e1aa705","Mozilla/5.0 (Windows NT 10.0; Win64; x64) AppleWebKit/537.36 (KHTML, like Gecko) Chrome/88.0.4324.150 Safari/537.36","v1","","","","","","","","-80,-70,-60,-50,-40","media/audio/stims/spherical_300cm_s20_c20_cd-full_matched_a-80.wav","spherical","20","20","full","matched","-80","-60","2386"
"echo-presentation","37","423054","0.0-37.0","5e171824fb00b6025387f90b","5fef55e628823a0076ec12ee","601f446bec317f4a8e1aa705","Mozilla/5.0 (Windows NT 10.0; Win64; x64) AppleWebKit/537.36 (KHTML, like Gecko) Chrome/88.0.4324.150 Safari/537.36","v1","","","","","","","","-80,-70,-60,-50,-40","media/audio/stims/spherical_300cm_s20_c20_cd-full_matched_a-80.wav","spherical","20","20","full","matched","-80","-70","1367"
"echo-presentation","38","426738","0.0-38.0","5e171824fb00b6025387f90b","5fef55e628823a0076ec12ee","601f446bec317f4a8e1aa705","Mozilla/5.0 (Windows NT 10.0; Win64; x64) AppleWebKit/537.36 (KHTML, like Gecko) Chrome/88.0.4324.150 Safari/537.36","v1","","","","","","","","-80,-70,-60,-50,-40","media/audio/stims/spherical_300cm_s20_c20_cd-full_matched_a-50.wav","spherical","20","20","full","matched","-50","-80","2204"
"echo-presentation","39","429112","0.0-39.0","5e171824fb00b6025387f90b","5fef55e628823a0076ec12ee","601f446bec317f4a8e1aa705","Mozilla/5.0 (Windows NT 10.0; Win64; x64) AppleWebKit/537.36 (KHTML, like Gecko) Chrome/88.0.4324.150 Safari/537.36","v1","","","","","","","","-80,-70,-60,-50,-40","media/audio/stims/spherical_300cm_s20_c20_cd-full_matched_a-60.wav","spherical","20","20","full","matched","-60","-70","1449"
"echo-presentation","40","431421","0.0-40.0","5e171824fb00b6025387f90b","5fef55e628823a0076ec12ee","601f446bec317f4a8e1aa705","Mozilla/5.0 (Windows NT 10.0; Win64; x64) AppleWebKit/537.36 (KHTML, like Gecko) Chrome/88.0.4324.150 Safari/537.36","v1","","","","","","","","-80,-70,-60,-50,-40","media/audio/stims/spherical_300cm_s20_c20_cd-full_matched_a-70.wav","spherical","20","20","full","matched","-70","-70","1417"
"echo-presentation","41","433146","0.0-41.0","5e171824fb00b6025387f90b","5fef55e628823a0076ec12ee","601f446bec317f4a8e1aa705","Mozilla/5.0 (Windows NT 10.0; Win64; x64) AppleWebKit/537.36 (KHTML, like Gecko) Chrome/88.0.4324.150 Safari/537.36","v1","","","","","","","","-80,-70,-60,-50,-40","media/audio/stims/spherical_300cm_s20_c20_cd-full_matched_a-40.wav","spherical","20","20","full","matched","-40","-80","933"
"echo-presentation","42","434806","0.0-42.0","5e171824fb00b6025387f90b","5fef55e628823a0076ec12ee","601f446bec317f4a8e1aa705","Mozilla/5.0 (Windows NT 10.0; Win64; x64) AppleWebKit/537.36 (KHTML, like Gecko) Chrome/88.0.4324.150 Safari/537.36","v1","","","","","","","","-80,-70,-60,-50,-40","media/audio/stims/spherical_300cm_s20_c20_cd-full_matched_a-50.wav","spherical","20","20","full","matched","-50","-80","900"
"echo-presentation","43","436899","0.0-43.0","5e171824fb00b6025387f90b","5fef55e628823a0076ec12ee","601f446bec317f4a8e1aa705","Mozilla/5.0 (Windows NT 10.0; Win64; x64) AppleWebKit/537.36 (KHTML, like Gecko) Chrome/88.0.4324.150 Safari/537.36","v1","","","","","","","","-80,-70,-60,-50,-40","media/audio/stims/spherical_300cm_s20_c20_cd-full_matched_a-80.wav","spherical","20","20","full","matched","-80","-70","1289"
"echo-presentation","44","439225","0.0-44.0","5e171824fb00b6025387f90b","5fef55e628823a0076ec12ee","601f446bec317f4a8e1aa705","Mozilla/5.0 (Windows NT 10.0; Win64; x64) AppleWebKit/537.36 (KHTML, like Gecko) Chrome/88.0.4324.150 Safari/537.36","v1","","","","","","","","-80,-70,-60,-50,-40","media/audio/stims/spherical_300cm_s20_c20_cd-full_matched_a-50.wav","spherical","20","20","full","matched","-50","-80","1543"
"echo-presentation","45","441244","0.0-45.0","5e171824fb00b6025387f90b","5fef55e628823a0076ec12ee","601f446bec317f4a8e1aa705","Mozilla/5.0 (Windows NT 10.0; Win64; x64) AppleWebKit/537.36 (KHTML, like Gecko) Chrome/88.0.4324.150 Safari/537.36","v1","","","","","","","","-80,-70,-60,-50,-40","media/audio/stims/spherical_300cm_s20_c20_cd-full_matched_a-40.wav","spherical","20","20","full","matched","-40","-80","971"
"echo-presentation","46","442964","0.0-46.0","5e171824fb00b6025387f90b","5fef55e628823a0076ec12ee","601f446bec317f4a8e1aa705","Mozilla/5.0 (Windows NT 10.0; Win64; x64) AppleWebKit/537.36 (KHTML, like Gecko) Chrome/88.0.4324.150 Safari/537.36","v1","","","","","","","","-80,-70,-60,-50,-40","media/audio/stims/spherical_300cm_s20_c20_cd-full_matched_a-60.wav","spherical","20","20","full","matched","-60","-70","1072"
"echo-presentation","47","446104","0.0-47.0","5e171824fb00b6025387f90b","5fef55e628823a0076ec12ee","601f446bec317f4a8e1aa705","Mozilla/5.0 (Windows NT 10.0; Win64; x64) AppleWebKit/537.36 (KHTML, like Gecko) Chrome/88.0.4324.150 Safari/537.36","v1","","","","","","","","-80,-70,-60,-50,-40","media/audio/stims/spherical_300cm_s20_c20_cd-full_matched_a-70.wav","spherical","20","20","full","matched","-70","-70","1391"
"echo-presentation","48","448077","0.0-48.0","5e171824fb00b6025387f90b","5fef55e628823a0076ec12ee","601f446bec317f4a8e1aa705","Mozilla/5.0 (Windows NT 10.0; Win64; x64) AppleWebKit/537.36 (KHTML, like Gecko) Chrome/88.0.4324.150 Safari/537.36","v1","","","","","","","","-80,-70,-60,-50,-40","media/audio/stims/spherical_300cm_s20_c20_cd-full_matched_a-40.wav","spherical","20","20","full","matched","-40","-70","1073"
"echo-presentation","49","450049","0.0-49.0","5e171824fb00b6025387f90b","5fef55e628823a0076ec12ee","601f446bec317f4a8e1aa705","Mozilla/5.0 (Windows NT 10.0; Win64; x64) AppleWebKit/537.36 (KHTML, like Gecko) Chrome/88.0.4324.150 Safari/537.36","v1","","","","","","","","-80,-70,-60,-50,-40","media/audio/stims/spherical_300cm_s20_c20_cd-full_matched_a-50.wav","spherical","20","20","full","matched","-50","-80","997"
"block-bookend","50","451182","0.0-50.0","5e171824fb00b6025387f90b","5fef55e628823a0076ec12ee","601f446bec317f4a8e1aa705","Mozilla/5.0 (Windows NT 10.0; Win64; x64) AppleWebKit/537.36 (KHTML, like Gecko) Chrome/88.0.4324.150 Safari/537.36","v1","","","","","","","","","","","","","","","","",""
"block-bookend","51","458481","0.0-51.0","5e171824fb00b6025387f90b","5fef55e628823a0076ec12ee","601f446bec317f4a8e1aa705","Mozilla/5.0 (Windows NT 10.0; Win64; x64) AppleWebKit/537.36 (KHTML, like Gecko) Chrome/88.0.4324.150 Safari/537.36","v1","","","","","","","","","","","","","","","","",""
"echo-presentation","52","467368","0.0-52.0","5e171824fb00b6025387f90b","5fef55e628823a0076ec12ee","601f446bec317f4a8e1aa705","Mozilla/5.0 (Windows NT 10.0; Win64; x64) AppleWebKit/537.36 (KHTML, like Gecko) Chrome/88.0.4324.150 Safari/537.36","v1","","","","","","","","40,50,60,70,80","media/audio/stims/spherical_300cm_s20_c20_cd-full_matched_a80.wav","spherical","20","20","full","matched","80","70","6469"
"echo-presentation","53","470110","0.0-53.0","5e171824fb00b6025387f90b","5fef55e628823a0076ec12ee","601f446bec317f4a8e1aa705","Mozilla/5.0 (Windows NT 10.0; Win64; x64) AppleWebKit/537.36 (KHTML, like Gecko) Chrome/88.0.4324.150 Safari/537.36","v1","","","","","","","","40,50,60,70,80","media/audio/stims/spherical_300cm_s20_c20_cd-full_matched_a60.wav","spherical","20","20","full","matched","60","70","1617"
"echo-presentation","54","472204","0.0-54.0","5e171824fb00b6025387f90b","5fef55e628823a0076ec12ee","601f446bec317f4a8e1aa705","Mozilla/5.0 (Windows NT 10.0; Win64; x64) AppleWebKit/537.36 (KHTML, like Gecko) Chrome/88.0.4324.150 Safari/537.36","v1","","","","","","","","40,50,60,70,80","media/audio/stims/spherical_300cm_s20_c20_cd-full_matched_a60.wav","spherical","20","20","full","matched","60","50","1143"
"echo-presentation","55","478687","0.0-55.0","5e171824fb00b6025387f90b","5fef55e628823a0076ec12ee","601f446bec317f4a8e1aa705","Mozilla/5.0 (Windows NT 10.0; Win64; x64) AppleWebKit/537.36 (KHTML, like Gecko) Chrome/88.0.4324.150 Safari/537.36","v1","","","","","","","","40,50,60,70,80","media/audio/stims/spherical_300cm_s20_c20_cd-full_matched_a40.wav","spherical","20","20","full","matched","40","40","5727"
"echo-presentation","56","480381","0.0-56.0","5e171824fb00b6025387f90b","5fef55e628823a0076ec12ee","601f446bec317f4a8e1aa705","Mozilla/5.0 (Windows NT 10.0; Win64; x64) AppleWebKit/537.36 (KHTML, like Gecko) Chrome/88.0.4324.150 Safari/537.36","v1","","","","","","","","40,50,60,70,80","media/audio/stims/spherical_300cm_s20_c20_cd-full_matched_a60.wav","spherical","20","20","full","matched","60","40","872"
"echo-presentation","57","482105","0.0-57.0","5e171824fb00b6025387f90b","5fef55e628823a0076ec12ee","601f446bec317f4a8e1aa705","Mozilla/5.0 (Windows NT 10.0; Win64; x64) AppleWebKit/537.36 (KHTML, like Gecko) Chrome/88.0.4324.150 Safari/537.36","v1","","","","","","","","40,50,60,70,80","media/audio/stims/spherical_300cm_s20_c20_cd-full_matched_a70.wav","spherical","20","20","full","matched","70","70","954"
"echo-presentation","58","483657","0.0-58.0","5e171824fb00b6025387f90b","5fef55e628823a0076ec12ee","601f446bec317f4a8e1aa705","Mozilla/5.0 (Windows NT 10.0; Win64; x64) AppleWebKit/537.36 (KHTML, like Gecko) Chrome/88.0.4324.150 Safari/537.36","v1","","","","","","","","40,50,60,70,80","media/audio/stims/spherical_300cm_s20_c20_cd-full_matched_a40.wav","spherical","20","20","full","matched","40","80","945"
"echo-presentation","59","485515","0.0-59.0","5e171824fb00b6025387f90b","5fef55e628823a0076ec12ee","601f446bec317f4a8e1aa705","Mozilla/5.0 (Windows NT 10.0; Win64; x64) AppleWebKit/537.36 (KHTML, like Gecko) Chrome/88.0.4324.150 Safari/537.36","v1","","","","","","","","40,50,60,70,80","media/audio/stims/spherical_300cm_s20_c20_cd-full_matched_a70.wav","spherical","20","20","full","matched","70","60","1098"
"echo-presentation","60","487036","0.0-60.0","5e171824fb00b6025387f90b","5fef55e628823a0076ec12ee","601f446bec317f4a8e1aa705","Mozilla/5.0 (Windows NT 10.0; Win64; x64) AppleWebKit/537.36 (KHTML, like Gecko) Chrome/88.0.4324.150 Safari/537.36","v1","","","","","","","","40,50,60,70,80","media/audio/stims/spherical_300cm_s20_c20_cd-full_matched_a80.wav","spherical","20","20","full","matched","80","60","799"
"echo-presentation","61","488714","0.0-61.0","5e171824fb00b6025387f90b","5fef55e628823a0076ec12ee","601f446bec317f4a8e1aa705","Mozilla/5.0 (Windows NT 10.0; Win64; x64) AppleWebKit/537.36 (KHTML, like Gecko) Chrome/88.0.4324.150 Safari/537.36","v1","","","","","","","","40,50,60,70,80","media/audio/stims/spherical_300cm_s20_c20_cd-full_matched_a60.wav","spherical","20","20","full","matched","60","60","897"
"echo-presentation","62","490248","0.0-62.0","5e171824fb00b6025387f90b","5fef55e628823a0076ec12ee","601f446bec317f4a8e1aa705","Mozilla/5.0 (Windows NT 10.0; Win64; x64) AppleWebKit/537.36 (KHTML, like Gecko) Chrome/88.0.4324.150 Safari/537.36","v1","","","","","","","","40,50,60,70,80","media/audio/stims/spherical_300cm_s20_c20_cd-full_matched_a50.wav","spherical","20","20","full","matched","50","70","785"
"echo-presentation","63","491682","0.0-63.0","5e171824fb00b6025387f90b","5fef55e628823a0076ec12ee","601f446bec317f4a8e1aa705","Mozilla/5.0 (Windows NT 10.0; Win64; x64) AppleWebKit/537.36 (KHTML, like Gecko) Chrome/88.0.4324.150 Safari/537.36","v1","","","","","","","","40,50,60,70,80","media/audio/stims/spherical_300cm_s20_c20_cd-full_matched_a40.wav","spherical","20","20","full","matched","40","70","806"
"echo-presentation","64","494221","0.0-64.0","5e171824fb00b6025387f90b","5fef55e628823a0076ec12ee","601f446bec317f4a8e1aa705","Mozilla/5.0 (Windows NT 10.0; Win64; x64) AppleWebKit/537.36 (KHTML, like Gecko) Chrome/88.0.4324.150 Safari/537.36","v1","","","","","","","","40,50,60,70,80","media/audio/stims/spherical_300cm_s20_c20_cd-full_matched_a70.wav","spherical","20","20","full","matched","70","80","1122"
"echo-presentation","65","496531","0.0-65.0","5e171824fb00b6025387f90b","5fef55e628823a0076ec12ee","601f446bec317f4a8e1aa705","Mozilla/5.0 (Windows NT 10.0; Win64; x64) AppleWebKit/537.36 (KHTML, like Gecko) Chrome/88.0.4324.150 Safari/537.36","v1","","","","","","","","40,50,60,70,80","media/audio/stims/spherical_300cm_s20_c20_cd-full_matched_a50.wav","spherical","20","20","full","matched","50","80","1543"
"echo-presentation","66","498733","0.0-66.0","5e171824fb00b6025387f90b","5fef55e628823a0076ec12ee","601f446bec317f4a8e1aa705","Mozilla/5.0 (Windows NT 10.0; Win64; x64) AppleWebKit/537.36 (KHTML, like Gecko) Chrome/88.0.4324.150 Safari/537.36","v1","","","","","","","","40,50,60,70,80","media/audio/stims/spherical_300cm_s20_c20_cd-full_matched_a80.wav","spherical","20","20","full","matched","80","80","1192"
"echo-presentation","67","500366","0.0-67.0","5e171824fb00b6025387f90b","5fef55e628823a0076ec12ee","601f446bec317f4a8e1aa705","Mozilla/5.0 (Windows NT 10.0; Win64; x64) AppleWebKit/537.36 (KHTML, like Gecko) Chrome/88.0.4324.150 Safari/537.36","v1","","","","","","","","40,50,60,70,80","media/audio/stims/spherical_300cm_s20_c20_cd-full_matched_a70.wav","spherical","20","20","full","matched","70","60","882"
"echo-presentation","68","502277","0.0-68.0","5e171824fb00b6025387f90b","5fef55e628823a0076ec12ee","601f446bec317f4a8e1aa705","Mozilla/5.0 (Windows NT 10.0; Win64; x64) AppleWebKit/537.36 (KHTML, like Gecko) Chrome/88.0.4324.150 Safari/537.36","v1","","","","","","","","40,50,60,70,80","media/audio/stims/spherical_300cm_s20_c20_cd-full_matched_a50.wav","spherical","20","20","full","matched","50","50","1092"
"echo-presentation","69","504587","0.0-69.0","5e171824fb00b6025387f90b","5fef55e628823a0076ec12ee","601f446bec317f4a8e1aa705","Mozilla/5.0 (Windows NT 10.0; Win64; x64) AppleWebKit/537.36 (KHTML, like Gecko) Chrome/88.0.4324.150 Safari/537.36","v1","","","","","","","","40,50,60,70,80","media/audio/stims/spherical_300cm_s20_c20_cd-full_matched_a80.wav","spherical","20","20","full","matched","80","50","1519"
"echo-presentation","70","506623","0.0-70.0","5e171824fb00b6025387f90b","5fef55e628823a0076ec12ee","601f446bec317f4a8e1aa705","Mozilla/5.0 (Windows NT 10.0; Win64; x64) AppleWebKit/537.36 (KHTML, like Gecko) Chrome/88.0.4324.150 Safari/537.36","v1","","","","","","","","40,50,60,70,80","media/audio/stims/spherical_300cm_s20_c20_cd-full_matched_a50.wav","spherical","20","20","full","matched","50","60","1330"
"echo-presentation","71","509334","0.0-71.0","5e171824fb00b6025387f90b","5fef55e628823a0076ec12ee","601f446bec317f4a8e1aa705","Mozilla/5.0 (Windows NT 10.0; Win64; x64) AppleWebKit/537.36 (KHTML, like Gecko) Chrome/88.0.4324.150 Safari/537.36","v1","","","","","","","","40,50,60,70,80","media/audio/stims/spherical_300cm_s20_c20_cd-full_matched_a40.wav","spherical","20","20","full","matched","40","80","1790"
"block-bookend","72","525933","0.0-72.0","5e171824fb00b6025387f90b","5fef55e628823a0076ec12ee","601f446bec317f4a8e1aa705","Mozilla/5.0 (Windows NT 10.0; Win64; x64) AppleWebKit/537.36 (KHTML, like Gecko) Chrome/88.0.4324.150 Safari/537.36","v1","","","","","","","","","","","","","","","","",""
"block-bookend","73","530659","0.0-73.0","5e171824fb00b6025387f90b","5fef55e628823a0076ec12ee","601f446bec317f4a8e1aa705","Mozilla/5.0 (Windows NT 10.0; Win64; x64) AppleWebKit/537.36 (KHTML, like Gecko) Chrome/88.0.4324.150 Safari/537.36","v1","","","","","","","","","","","","","","","","",""
"echo-presentation","74","540369","0.0-74.0","5e171824fb00b6025387f90b","5fef55e628823a0076ec12ee","601f446bec317f4a8e1aa705","Mozilla/5.0 (Windows NT 10.0; Win64; x64) AppleWebKit/537.36 (KHTML, like Gecko) Chrome/88.0.4324.150 Safari/537.36","v1","","","","","","","","40,50,60,70,80","media/audio/stims/spherical_300cm_s20_c20_cd-full_matched_a70.wav","spherical","20","20","full","matched","70","80","5229"
"echo-presentation","75","544039","0.0-75.0","5e171824fb00b6025387f90b","5fef55e628823a0076ec12ee","601f446bec317f4a8e1aa705","Mozilla/5.0 (Windows NT 10.0; Win64; x64) AppleWebKit/537.36 (KHTML, like Gecko) Chrome/88.0.4324.150 Safari/537.36","v1","","","","","","","","40,50,60,70,80","media/audio/stims/spherical_300cm_s20_c20_cd-full_matched_a40.wav","spherical","20","20","full","matched","40","50","1608"
"echo-presentation","76","546130","0.0-76.0","5e171824fb00b6025387f90b","5fef55e628823a0076ec12ee","601f446bec317f4a8e1aa705","Mozilla/5.0 (Windows NT 10.0; Win64; x64) AppleWebKit/537.36 (KHTML, like Gecko) Chrome/88.0.4324.150 Safari/537.36","v1","","","","","","","","40,50,60,70,80","media/audio/stims/spherical_300cm_s20_c20_cd-full_matched_a70.wav","spherical","20","20","full","matched","70","50","1296"
"echo-presentation","77","547822","0.0-77.0","5e171824fb00b6025387f90b","5fef55e628823a0076ec12ee","601f446bec317f4a8e1aa705","Mozilla/5.0 (Windows NT 10.0; Win64; x64) AppleWebKit/537.36 (KHTML, like Gecko) Chrome/88.0.4324.150 Safari/537.36","v1","","","","","","","","40,50,60,70,80","media/audio/stims/spherical_300cm_s20_c20_cd-full_matched_a80.wav","spherical","20","20","full","matched","80","50","982"
"echo-presentation","78","549778","0.0-78.0","5e171824fb00b6025387f90b","5fef55e628823a0076ec12ee","601f446bec317f4a8e1aa705","Mozilla/5.0 (Windows NT 10.0; Win64; x64) AppleWebKit/537.36 (KHTML, like Gecko) Chrome/88.0.4324.150 Safari/537.36","v1","","","","","","","","40,50,60,70,80","media/audio/stims/spherical_300cm_s20_c20_cd-full_matched_a70.wav","spherical","20","20","full","matched","70","70","899"
"echo-presentation","79","551825","0.0-79.0","5e171824fb00b6025387f90b","5fef55e628823a0076ec12ee","601f446bec317f4a8e1aa705","Mozilla/5.0 (Windows NT 10.0; Win64; x64) AppleWebKit/537.36 (KHTML, like Gecko) Chrome/88.0.4324.150 Safari/537.36","v1","","","","","","","","40,50,60,70,80","media/audio/stims/spherical_300cm_s20_c20_cd-full_matched_a60.wav","spherical","20","20","full","matched","60","60","1254"
"echo-presentation","80","554608","0.0-80.0","5e171824fb00b6025387f90b","5fef55e628823a0076ec12ee","601f446bec317f4a8e1aa705","Mozilla/5.0 (Windows NT 10.0; Win64; x64) AppleWebKit/537.36 (KHTML, like Gecko) Chrome/88.0.4324.150 Safari/537.36","v1","","","","","","","","40,50,60,70,80","media/audio/stims/spherical_300cm_s20_c20_cd-full_matched_a80.wav","spherical","20","20","full","matched","80","60","1987"
"echo-presentation","81","556549","0.0-81.0","5e171824fb00b6025387f90b","5fef55e628823a0076ec12ee","601f446bec317f4a8e1aa705","Mozilla/5.0 (Windows NT 10.0; Win64; x64) AppleWebKit/537.36 (KHTML, like Gecko) Chrome/88.0.4324.150 Safari/537.36","v1","","","","","","","","40,50,60,70,80","media/audio/stims/spherical_300cm_s20_c20_cd-full_matched_a50.wav","spherical","20","20","full","matched","50","80","1115"
"echo-presentation","82","558347","0.0-82.0","5e171824fb00b6025387f90b","5fef55e628823a0076ec12ee","601f446bec317f4a8e1aa705","Mozilla/5.0 (Windows NT 10.0; Win64; x64) AppleWebKit/537.36 (KHTML, like Gecko) Chrome/88.0.4324.150 Safari/537.36","v1","","","","","","","","40,50,60,70,80","media/audio/stims/spherical_300cm_s20_c20_cd-full_matched_a80.wav","spherical","20","20","full","matched","80","40","911"
"echo-presentation","83","560657","0.0-83.0","5e171824fb00b6025387f90b","5fef55e628823a0076ec12ee","601f446bec317f4a8e1aa705","Mozilla/5.0 (Windows NT 10.0; Win64; x64) AppleWebKit/537.36 (KHTML, like Gecko) Chrome/88.0.4324.150 Safari/537.36","v1","","","","","","","","40,50,60,70,80","media/audio/stims/spherical_300cm_s20_c20_cd-full_matched_a50.wav","spherical","20","20","full","matched","50","60","1560"
"echo-presentation","84","562473","0.0-84.0","5e171824fb00b6025387f90b","5fef55e628823a0076ec12ee","601f446bec317f4a8e1aa705","Mozilla/5.0 (Windows NT 10.0; Win64; x64) AppleWebKit/537.36 (KHTML, like Gecko) Chrome/88.0.4324.150 Safari/537.36","v1","","","","","","","","40,50,60,70,80","media/audio/stims/spherical_300cm_s20_c20_cd-full_matched_a60.wav","spherical","20","20","full","matched","60","60","1102"
"echo-presentation","85","563996","0.0-85.0","5e171824fb00b6025387f90b","5fef55e628823a0076ec12ee","601f446bec317f4a8e1aa705","Mozilla/5.0 (Windows NT 10.0; Win64; x64) AppleWebKit/537.36 (KHTML, like Gecko) Chrome/88.0.4324.150 Safari/537.36","v1","","","","","","","","40,50,60,70,80","media/audio/stims/spherical_300cm_s20_c20_cd-full_matched_a70.wav","spherical","20","20","full","matched","70","60","810"
"echo-presentation","86","565507","0.0-86.0","5e171824fb00b6025387f90b","5fef55e628823a0076ec12ee","601f446bec317f4a8e1aa705","Mozilla/5.0 (Windows NT 10.0; Win64; x64) AppleWebKit/537.36 (KHTML, like Gecko) Chrome/88.0.4324.150 Safari/537.36","v1","","","","","","","","40,50,60,70,80","media/audio/stims/spherical_300cm_s20_c20_cd-full_matched_a40.wav","spherical","20","20","full","matched","40","60","772"
"echo-presentation","87","567183","0.0-87.0","5e171824fb00b6025387f90b","5fef55e628823a0076ec12ee","601f446bec317f4a8e1aa705","Mozilla/5.0 (Windows NT 10.0; Win64; x64) AppleWebKit/537.36 (KHTML, like Gecko) Chrome/88.0.4324.150 Safari/537.36","v1","","","","","","","","40,50,60,70,80","media/audio/stims/spherical_300cm_s20_c20_cd-full_matched_a40.wav","spherical","20","20","full","matched","40","60","921"
"echo-presentation","88","570036","0.0-88.0","5e171824fb00b6025387f90b","5fef55e628823a0076ec12ee","601f446bec317f4a8e1aa705","Mozilla/5.0 (Windows NT 10.0; Win64; x64) AppleWebKit/537.36 (KHTML, like Gecko) Chrome/88.0.4324.150 Safari/537.36","v1","","","","","","","","40,50,60,70,80","media/audio/stims/spherical_300cm_s20_c20_cd-full_matched_a40.wav","spherical","20","20","full","matched","40","80","2090"
"echo-presentation","89","572779","0.0-89.0","5e171824fb00b6025387f90b","5fef55e628823a0076ec12ee","601f446bec317f4a8e1aa705","Mozilla/5.0 (Windows NT 10.0; Win64; x64) AppleWebKit/537.36 (KHTML, like Gecko) Chrome/88.0.4324.150 Safari/537.36","v1","","","","","","","","40,50,60,70,80","media/audio/stims/spherical_300cm_s20_c20_cd-full_matched_a80.wav","spherical","20","20","full","matched","80","40","1656"
"echo-presentation","90","577720","0.0-90.0","5e171824fb00b6025387f90b","5fef55e628823a0076ec12ee","601f446bec317f4a8e1aa705","Mozilla/5.0 (Windows NT 10.0; Win64; x64) AppleWebKit/537.36 (KHTML, like Gecko) Chrome/88.0.4324.150 Safari/537.36","v1","","","","","","","","40,50,60,70,80","media/audio/stims/spherical_300cm_s20_c20_cd-full_matched_a50.wav","spherical","20","20","full","matched","50","50","4340"
"echo-presentation","91","580214","0.0-91.0","5e171824fb00b6025387f90b","5fef55e628823a0076ec12ee","601f446bec317f4a8e1aa705","Mozilla/5.0 (Windows NT 10.0; Win64; x64) AppleWebKit/537.36 (KHTML, like Gecko) Chrome/88.0.4324.150 Safari/537.36","v1","","","","","","","","40,50,60,70,80","media/audio/stims/spherical_300cm_s20_c20_cd-full_matched_a60.wav","spherical","20","20","full","matched","60","60","1703"
"echo-presentation","92","583383","0.0-92.0","5e171824fb00b6025387f90b","5fef55e628823a0076ec12ee","601f446bec317f4a8e1aa705","Mozilla/5.0 (Windows NT 10.0; Win64; x64) AppleWebKit/537.36 (KHTML, like Gecko) Chrome/88.0.4324.150 Safari/537.36","v1","","","","","","","","40,50,60,70,80","media/audio/stims/spherical_300cm_s20_c20_cd-full_matched_a50.wav","spherical","20","20","full","matched","50","80","1246"
"echo-presentation","93","586182","0.0-93.0","5e171824fb00b6025387f90b","5fef55e628823a0076ec12ee","601f446bec317f4a8e1aa705","Mozilla/5.0 (Windows NT 10.0; Win64; x64) AppleWebKit/537.36 (KHTML, like Gecko) Chrome/88.0.4324.150 Safari/537.36","v1","","","","","","","","40,50,60,70,80","media/audio/stims/spherical_300cm_s20_c20_cd-full_matched_a60.wav","spherical","20","20","full","matched","60","70","1794"
"block-bookend","94","587704","0.0-94.0","5e171824fb00b6025387f90b","5fef55e628823a0076ec12ee","601f446bec317f4a8e1aa705","Mozilla/5.0 (Windows NT 10.0; Win64; x64) AppleWebKit/537.36 (KHTML, like Gecko) Chrome/88.0.4324.150 Safari/537.36","v1","","","","","","","","","","","","","","","","",""
"block-bookend","95","597998","0.0-95.0","5e171824fb00b6025387f90b","5fef55e628823a0076ec12ee","601f446bec317f4a8e1aa705","Mozilla/5.0 (Windows NT 10.0; Win64; x64) AppleWebKit/537.36 (KHTML, like Gecko) Chrome/88.0.4324.150 Safari/537.36","v1","","","","","","","","","","","","","","","","",""
"echo-presentation","96","602040","0.0-96.0","5e171824fb00b6025387f90b","5fef55e628823a0076ec12ee","601f446bec317f4a8e1aa705","Mozilla/5.0 (Windows NT 10.0; Win64; x64) AppleWebKit/537.36 (KHTML, like Gecko) Chrome/88.0.4324.150 Safari/537.36","v1","","","","","","","","-20,-10,0,10,20","media/audio/stims/spherical_300cm_s20_c20_cd-full_matched_a0.wav","spherical","20","20","full","matched","0","0","1959"
"echo-presentation","97","606116","0.0-97.0","5e171824fb00b6025387f90b","5fef55e628823a0076ec12ee","601f446bec317f4a8e1aa705","Mozilla/5.0 (Windows NT 10.0; Win64; x64) AppleWebKit/537.36 (KHTML, like Gecko) Chrome/88.0.4324.150 Safari/537.36","v1","","","","","","","","-20,-10,0,10,20","media/audio/stims/spherical_300cm_s20_c20_cd-full_matched_a20.wav","spherical","20","20","full","matched","20","0","2749"
"echo-presentation","98","608977","0.0-98.0","5e171824fb00b6025387f90b","5fef55e628823a0076ec12ee","601f446bec317f4a8e1aa705","Mozilla/5.0 (Windows NT 10.0; Win64; x64) AppleWebKit/537.36 (KHTML, like Gecko) Chrome/88.0.4324.150 Safari/537.36","v1","","","","","","","","-20,-10,0,10,20","media/audio/stims/spherical_300cm_s20_c20_cd-full_matched_a0.wav","spherical","20","20","full","matched","0","-10","1782"
"echo-presentation","99","612390","0.0-99.0","5e171824fb00b6025387f90b","5fef55e628823a0076ec12ee","601f446bec317f4a8e1aa705","Mozilla/5.0 (Windows NT 10.0; Win64; x64) AppleWebKit/537.36 (KHTML, like Gecko) Chrome/88.0.4324.150 Safari/537.36","v1","","","","","","","","-20,-10,0,10,20","media/audio/stims/spherical_300cm_s20_c20_cd-full_matched_a20.wav","spherical","20","20","full","matched","20","0","2253"
"echo-presentation","100","615171","0.0-100.0","5e171824fb00b6025387f90b","5fef55e628823a0076ec12ee","601f446bec317f4a8e1aa705","Mozilla/5.0 (Windows NT 10.0; Win64; x64) AppleWebKit/537.36 (KHTML, like Gecko) Chrome/88.0.4324.150 Safari/537.36","v1","","","","","","","","-20,-10,0,10,20","media/audio/stims/spherical_300cm_s20_c20_cd-full_matched_a-10.wav","spherical","20","20","full","matched","-10","-20","1746"
"echo-presentation","101","617863","0.0-101.0","5e171824fb00b6025387f90b","5fef55e628823a0076ec12ee","601f446bec317f4a8e1aa705","Mozilla/5.0 (Windows NT 10.0; Win64; x64) AppleWebKit/537.36 (KHTML, like Gecko) Chrome/88.0.4324.150 Safari/537.36","v1","","","","","","","","-20,-10,0,10,20","media/audio/stims/spherical_300cm_s20_c20_cd-full_matched_a-20.wav","spherical","20","20","full","matched","-20","-20","1325"
"echo-presentation","102","619988","0.0-102.0","5e171824fb00b6025387f90b","5fef55e628823a0076ec12ee","601f446bec317f4a8e1aa705","Mozilla/5.0 (Windows NT 10.0; Win64; x64) AppleWebKit/537.36 (KHTML, like Gecko) Chrome/88.0.4324.150 Safari/537.36","v1","","","","","","","","-20,-10,0,10,20","media/audio/stims/spherical_300cm_s20_c20_cd-full_matched_a0.wav","spherical","20","20","full","matched","0","-20","1374"
"echo-presentation","103","623587","0.0-103.0","5e171824fb00b6025387f90b","5fef55e628823a0076ec12ee","601f446bec317f4a8e1aa705","Mozilla/5.0 (Windows NT 10.0; Win64; x64) AppleWebKit/537.36 (KHTML, like Gecko) Chrome/88.0.4324.150 Safari/537.36","v1","","","","","","","","-20,-10,0,10,20","media/audio/stims/spherical_300cm_s20_c20_cd-full_matched_a10.wav","spherical","20","20","full","matched","10","10","2695"
"echo-presentation","104","626418","0.0-104.0","5e171824fb00b6025387f90b","5fef55e628823a0076ec12ee","601f446bec317f4a8e1aa705","Mozilla/5.0 (Windows NT 10.0; Win64; x64) AppleWebKit/537.36 (KHTML, like Gecko) Chrome/88.0.4324.150 Safari/537.36","v1","","","","","","","","-20,-10,0,10,20","media/audio/stims/spherical_300cm_s20_c20_cd-full_matched_a-10.wav","spherical","20","20","full","matched","-10","0","1959"
"echo-presentation","105","628986","0.0-105.0","5e171824fb00b6025387f90b","5fef55e628823a0076ec12ee","601f446bec317f4a8e1aa705","Mozilla/5.0 (Windows NT 10.0; Win64; x64) AppleWebKit/537.36 (KHTML, like Gecko) Chrome/88.0.4324.150 Safari/537.36","v1","","","","","","","","-20,-10,0,10,20","media/audio/stims/spherical_300cm_s20_c20_cd-full_matched_a-20.wav","spherical","20","20","full","matched","-20","-10","1656"
"echo-presentation","106","631476","0.0-106.0","5e171824fb00b6025387f90b","5fef55e628823a0076ec12ee","601f446bec317f4a8e1aa705","Mozilla/5.0 (Windows NT 10.0; Win64; x64) AppleWebKit/537.36 (KHTML, like Gecko) Chrome/88.0.4324.150 Safari/537.36","v1","","","","","","","","-20,-10,0,10,20","media/audio/stims/spherical_300cm_s20_c20_cd-full_matched_a10.wav","spherical","20","20","full","matched","10","-10","1651"
"echo-presentation","107","634924","0.0-107.0","5e171824fb00b6025387f90b","5fef55e628823a0076ec12ee","601f446bec317f4a8e1aa705","Mozilla/5.0 (Windows NT 10.0; Win64; x64) AppleWebKit/537.36 (KHTML, like Gecko) Chrome/88.0.4324.150 Safari/537.36","v1","","","","","","","","-20,-10,0,10,20","media/audio/stims/spherical_300cm_s20_c20_cd-full_matched_a-10.wav","spherical","20","20","full","matched","-10","-10","1698"
"echo-presentation","108","636711","0.0-108.0","5e171824fb00b6025387f90b","5fef55e628823a0076ec12ee","601f446bec317f4a8e1aa705","Mozilla/5.0 (Windows NT 10.0; Win64; x64) AppleWebKit/537.36 (KHTML, like Gecko) Chrome/88.0.4324.150 Safari/537.36","v1","","","","","","","","-20,-10,0,10,20","media/audio/stims/spherical_300cm_s20_c20_cd-full_matched_a-20.wav","spherical","20","20","full","matched","-20","-20","966"
"echo-presentation","109","639080","0.0-109.0","5e171824fb00b6025387f90b","5fef55e628823a0076ec12ee","601f446bec317f4a8e1aa705","Mozilla/5.0 (Windows NT 10.0; Win64; x64) AppleWebKit/537.36 (KHTML, like Gecko) Chrome/88.0.4324.150 Safari/537.36","v1","","","","","","","","-20,-10,0,10,20","media/audio/stims/spherical_300cm_s20_c20_cd-full_matched_a0.wav","spherical","20","20","full","matched","0","0","1531"
"echo-presentation","110","641004","0.0-110.0","5e171824fb00b6025387f90b","5fef55e628823a0076ec12ee","601f446bec317f4a8e1aa705","Mozilla/5.0 (Windows NT 10.0; Win64; x64) AppleWebKit/537.36 (KHTML, like Gecko) Chrome/88.0.4324.150 Safari/537.36","v1","","","","","","","","-20,-10,0,10,20","media/audio/stims/spherical_300cm_s20_c20_cd-full_matched_a10.wav","spherical","20","20","full","matched","10","10","858"
"echo-presentation","111","643497","0.0-111.0","5e171824fb00b6025387f90b","5fef55e628823a0076ec12ee","601f446bec317f4a8e1aa705","Mozilla/5.0 (Windows NT 10.0; Win64; x64) AppleWebKit/537.36 (KHTML, like Gecko) Chrome/88.0.4324.150 Safari/537.36","v1","","","","","","","","-20,-10,0,10,20","media/audio/stims/spherical_300cm_s20_c20_cd-full_matched_a-20.wav","spherical","20","20","full","matched","-20","0","1842"
"echo-presentation","112","646294","0.0-112.0","5e171824fb00b6025387f90b","5fef55e628823a0076ec12ee","601f446bec317f4a8e1aa705","Mozilla/5.0 (Windows NT 10.0; Win64; x64) AppleWebKit/537.36 (KHTML, like Gecko) Chrome/88.0.4324.150 Safari/537.36","v1","","","","","","","","-20,-10,0,10,20","media/audio/stims/spherical_300cm_s20_c20_cd-full_matched_a20.wav","spherical","20","20","full","matched","20","-10","1994"
"echo-presentation","113","647986","0.0-113.0","5e171824fb00b6025387f90b","5fef55e628823a0076ec12ee","601f446bec317f4a8e1aa705","Mozilla/5.0 (Windows NT 10.0; Win64; x64) AppleWebKit/537.36 (KHTML, like Gecko) Chrome/88.0.4324.150 Safari/537.36","v1","","","","","","","","-20,-10,0,10,20","media/audio/stims/spherical_300cm_s20_c20_cd-full_matched_a10.wav","spherical","20","20","full","matched","10","0","946"
"echo-presentation","114","650432","0.0-114.0","5e171824fb00b6025387f90b","5fef55e628823a0076ec12ee","601f446bec317f4a8e1aa705","Mozilla/5.0 (Windows NT 10.0; Win64; x64) AppleWebKit/537.36 (KHTML, like Gecko) Chrome/88.0.4324.150 Safari/537.36","v1","","","","","","","","-20,-10,0,10,20","media/audio/stims/spherical_300cm_s20_c20_cd-full_matched_a20.wav","spherical","20","20","full","matched","20","10","1616"
"echo-presentation","115","652376","0.0-115.0","5e171824fb00b6025387f90b","5fef55e628823a0076ec12ee","601f446bec317f4a8e1aa705","Mozilla/5.0 (Windows NT 10.0; Win64; x64) AppleWebKit/537.36 (KHTML, like Gecko) Chrome/88.0.4324.150 Safari/537.36","v1","","","","","","","","-20,-10,0,10,20","media/audio/stims/spherical_300cm_s20_c20_cd-full_matched_a-10.wav","spherical","20","20","full","matched","-10","10","1213"
"block-bookend","116","653682","0.0-116.0","5e171824fb00b6025387f90b","5fef55e628823a0076ec12ee","601f446bec317f4a8e1aa705","Mozilla/5.0 (Windows NT 10.0; Win64; x64) AppleWebKit/537.36 (KHTML, like Gecko) Chrome/88.0.4324.150 Safari/537.36","v1","","","","","","","","","","","","","","","","",""
"block-bookend","117","659938","0.0-117.0","5e171824fb00b6025387f90b","5fef55e628823a0076ec12ee","601f446bec317f4a8e1aa705","Mozilla/5.0 (Windows NT 10.0; Win64; x64) AppleWebKit/537.36 (KHTML, like Gecko) Chrome/88.0.4324.150 Safari/537.36","v1","","","","","","","","","","","","","","","","",""
"echo-presentation","118","668800","0.0-118.0","5e171824fb00b6025387f90b","5fef55e628823a0076ec12ee","601f446bec317f4a8e1aa705","Mozilla/5.0 (Windows NT 10.0; Win64; x64) AppleWebKit/537.36 (KHTML, like Gecko) Chrome/88.0.4324.150 Safari/537.36","v1","","","","","","","","-20,-10,0,10,20","media/audio/stims/spherical_300cm_s20_c20_cd-full_matched_a20.wav","spherical","20","20","full","matched","20","10","7183"
"echo-presentation","119","671721","0.0-119.0","5e171824fb00b6025387f90b","5fef55e628823a0076ec12ee","601f446bec317f4a8e1aa705","Mozilla/5.0 (Windows NT 10.0; Win64; x64) AppleWebKit/537.36 (KHTML, like Gecko) Chrome/88.0.4324.150 Safari/537.36","v1","","","","","","","","-20,-10,0,10,20","media/audio/stims/spherical_300cm_s20_c20_cd-full_matched_a10.wav","spherical","20","20","full","matched","10","0","1584"
"echo-presentation","120","675199","0.0-120.0","5e171824fb00b6025387f90b","5fef55e628823a0076ec12ee","601f446bec317f4a8e1aa705","Mozilla/5.0 (Windows NT 10.0; Win64; x64) AppleWebKit/537.36 (KHTML, like Gecko) Chrome/88.0.4324.150 Safari/537.36","v1","","","","","","","","-20,-10,0,10,20","media/audio/stims/spherical_300cm_s20_c20_cd-full_matched_a20.wav","spherical","20","20","full","matched","20","10","2585"
"echo-presentation","121","678401","0.0-121.0","5e171824fb00b6025387f90b","5fef55e628823a0076ec12ee","601f446bec317f4a8e1aa705","Mozilla/5.0 (Windows NT 10.0; Win64; x64) AppleWebKit/537.36 (KHTML, like Gecko) Chrome/88.0.4324.150 Safari/537.36","v1","","","","","","","","-20,-10,0,10,20","media/audio/stims/spherical_300cm_s20_c20_cd-full_matched_a-20.wav","spherical","20","20","full","matched","-20","-20","2229"
"echo-presentation","122","680416","0.0-122.0","5e171824fb00b6025387f90b","5fef55e628823a0076ec12ee","601f446bec317f4a8e1aa705","Mozilla/5.0 (Windows NT 10.0; Win64; x64) AppleWebKit/537.36 (KHTML, like Gecko) Chrome/88.0.4324.150 Safari/537.36","v1","","","","","","","","-20,-10,0,10,20","media/audio/stims/spherical_300cm_s20_c20_cd-full_matched_a-20.wav","spherical","20","20","full","matched","-20","-20","1014"
"echo-presentation","123","681999","0.0-123.0","5e171824fb00b6025387f90b","5fef55e628823a0076ec12ee","601f446bec317f4a8e1aa705","Mozilla/5.0 (Windows NT 10.0; Win64; x64) AppleWebKit/537.36 (KHTML, like Gecko) Chrome/88.0.4324.150 Safari/537.36","v1","","","","","","","","-20,-10,0,10,20","media/audio/stims/spherical_300cm_s20_c20_cd-full_matched_a-10.wav","spherical","20","20","full","matched","-10","-20","833"
"echo-presentation","124","683631","0.0-124.0","5e171824fb00b6025387f90b","5fef55e628823a0076ec12ee","601f446bec317f4a8e1aa705","Mozilla/5.0 (Windows NT 10.0; Win64; x64) AppleWebKit/537.36 (KHTML, like Gecko) Chrome/88.0.4324.150 Safari/537.36","v1","","","","","","","","-20,-10,0,10,20","media/audio/stims/spherical_300cm_s20_c20_cd-full_matched_a-10.wav","spherical","20","20","full","matched","-10","-20","851"
"echo-presentation","125","685448","0.0-125.0","5e171824fb00b6025387f90b","5fef55e628823a0076ec12ee","601f446bec317f4a8e1aa705","Mozilla/5.0 (Windows NT 10.0; Win64; x64) AppleWebKit/537.36 (KHTML, like Gecko) Chrome/88.0.4324.150 Safari/537.36","v1","","","","","","","","-20,-10,0,10,20","media/audio/stims/spherical_300cm_s20_c20_cd-full_matched_a-10.wav","spherical","20","20","full","matched","-10","-10","1204"
"echo-presentation","126","687804","0.0-126.0","5e171824fb00b6025387f90b","5fef55e628823a0076ec12ee","601f446bec317f4a8e1aa705","Mozilla/5.0 (Windows NT 10.0; Win64; x64) AppleWebKit/537.36 (KHTML, like Gecko) Chrome/88.0.4324.150 Safari/537.36","v1","","","","","","","","-20,-10,0,10,20","media/audio/stims/spherical_300cm_s20_c20_cd-full_matched_a10.wav","spherical","20","20","full","matched","10","-10","918"
"echo-presentation","127","690682","0.0-127.0","5e171824fb00b6025387f90b","5fef55e628823a0076ec12ee","601f446bec317f4a8e1aa705","Mozilla/5.0 (Windows NT 10.0; Win64; x64) AppleWebKit/537.36 (KHTML, like Gecko) Chrome/88.0.4324.150 Safari/537.36","v1","","","","","","","","-20,-10,0,10,20","media/audio/stims/spherical_300cm_s20_c20_cd-full_matched_a20.wav","spherical","20","20","full","matched","20","0","2146"
"echo-presentation","128","693326","0.0-128.0","5e171824fb00b6025387f90b","5fef55e628823a0076ec12ee","601f446bec317f4a8e1aa705","Mozilla/5.0 (Windows NT 10.0; Win64; x64) AppleWebKit/537.36 (KHTML, like Gecko) Chrome/88.0.4324.150 Safari/537.36","v1","","","","","","","","-20,-10,0,10,20","media/audio/stims/spherical_300cm_s20_c20_cd-full_matched_a-20.wav","spherical","20","20","full","matched","-20","-10","1835"
"echo-presentation","129","695158","0.0-129.0","5e171824fb00b6025387f90b","5fef55e628823a0076ec12ee","601f446bec317f4a8e1aa705","Mozilla/5.0 (Windows NT 10.0; Win64; x64) AppleWebKit/537.36 (KHTML, like Gecko) Chrome/88.0.4324.150 Safari/537.36","v1","","","","","","","","-20,-10,0,10,20","media/audio/stims/spherical_300cm_s20_c20_cd-full_matched_a-10.wav","spherical","20","20","full","matched","-10","-10","1100"
"echo-presentation","130","697918","0.0-130.0","5e171824fb00b6025387f90b","5fef55e628823a0076ec12ee","601f446bec317f4a8e1aa705","Mozilla/5.0 (Windows NT 10.0; Win64; x64) AppleWebKit/537.36 (KHTML, like Gecko) Chrome/88.0.4324.150 Safari/537.36","v1","","","","","","","","-20,-10,0,10,20","media/audio/stims/spherical_300cm_s20_c20_cd-full_matched_a20.wav","spherical","20","20","full","matched","20","-10","2010"
"echo-presentation","131","699859","0.0-131.0","5e171824fb00b6025387f90b","5fef55e628823a0076ec12ee","601f446bec317f4a8e1aa705","Mozilla/5.0 (Windows NT 10.0; Win64; x64) AppleWebKit/537.36 (KHTML, like Gecko) Chrome/88.0.4324.150 Safari/537.36","v1","","","","","","","","-20,-10,0,10,20","media/audio/stims/spherical_300cm_s20_c20_cd-full_matched_a-20.wav","spherical","20","20","full","matched","-20","-20","1054"
"echo-presentation","132","701757","0.0-132.0","5e171824fb00b6025387f90b","5fef55e628823a0076ec12ee","601f446bec317f4a8e1aa705","Mozilla/5.0 (Windows NT 10.0; Win64; x64) AppleWebKit/537.36 (KHTML, like Gecko) Chrome/88.0.4324.150 Safari/537.36","v1","","","","","","","","-20,-10,0,10,20","media/audio/stims/spherical_300cm_s20_c20_cd-full_matched_a10.wav","spherical","20","20","full","matched","10","0","1065"
"echo-presentation","133","703698","0.0-133.0","5e171824fb00b6025387f90b","5fef55e628823a0076ec12ee","601f446bec317f4a8e1aa705","Mozilla/5.0 (Windows NT 10.0; Win64; x64) AppleWebKit/537.36 (KHTML, like Gecko) Chrome/88.0.4324.150 Safari/537.36","v1","","","","","","","","-20,-10,0,10,20","media/audio/stims/spherical_300cm_s20_c20_cd-full_matched_a0.wav","spherical","20","20","full","matched","0","10","914"
"echo-presentation","134","705655","0.0-134.0","5e171824fb00b6025387f90b","5fef55e628823a0076ec12ee","601f446bec317f4a8e1aa705","Mozilla/5.0 (Windows NT 10.0; Win64; x64) AppleWebKit/537.36 (KHTML, like Gecko) Chrome/88.0.4324.150 Safari/537.36","v1","","","","","","","","-20,-10,0,10,20","media/audio/stims/spherical_300cm_s20_c20_cd-full_matched_a0.wav","spherical","20","20","full","matched","0","10","1233"
"echo-presentation","135","707255","0.0-135.0","5e171824fb00b6025387f90b","5fef55e628823a0076ec12ee","601f446bec317f4a8e1aa705","Mozilla/5.0 (Windows NT 10.0; Win64; x64) AppleWebKit/537.36 (KHTML, like Gecko) Chrome/88.0.4324.150 Safari/537.36","v1","","","","","","","","-20,-10,0,10,20","media/audio/stims/spherical_300cm_s20_c20_cd-full_matched_a0.wav","spherical","20","20","full","matched","0","10","887"
"echo-presentation","136","708843","0.0-136.0","5e171824fb00b6025387f90b","5fef55e628823a0076ec12ee","601f446bec317f4a8e1aa705","Mozilla/5.0 (Windows NT 10.0; Win64; x64) AppleWebKit/537.36 (KHTML, like Gecko) Chrome/88.0.4324.150 Safari/537.36","v1","","","","","","","","-20,-10,0,10,20","media/audio/stims/spherical_300cm_s20_c20_cd-full_matched_a10.wav","spherical","20","20","full","matched","10","20","787"
"echo-presentation","137","711061","0.0-137.0","5e171824fb00b6025387f90b","5fef55e628823a0076ec12ee","601f446bec317f4a8e1aa705","Mozilla/5.0 (Windows NT 10.0; Win64; x64) AppleWebKit/537.36 (KHTML, like Gecko) Chrome/88.0.4324.150 Safari/537.36","v1","","","","","","","","-20,-10,0,10,20","media/audio/stims/spherical_300cm_s20_c20_cd-full_matched_a0.wav","spherical","20","20","full","matched","0","20","1417"
"block-bookend","138","711951","0.0-138.0","5e171824fb00b6025387f90b","5fef55e628823a0076ec12ee","601f446bec317f4a8e1aa705","Mozilla/5.0 (Windows NT 10.0; Win64; x64) AppleWebKit/537.36 (KHTML, like Gecko) Chrome/88.0.4324.150 Safari/537.36","v1","","","","","","","","","","","","","","","","",""
