"trial_type","trial_index","time_elapsed","internal_node_id","prolificPid","studyId","sessionId","userAgent","version","rt","stimulus","key_press","chosenKeyset","failureCount","testIndex","globalVolume","choices","filename","modelName","slowdown","compensation","compensationDescriptor","receiverOrientationType","azimuth","responseAzimuth","responseDelay"
"pavlovia","0","3","0.0-0.0","5e582888ad019803dba551c4","60201dea606b8d5e5aa9e528","60201ea75d4be35b32e91ab8","Mozilla/5.0 (Windows NT 10.0; Win64; x64) AppleWebKit/537.36 (KHTML, like Gecko) Chrome/86.0.4240.198 Safari/537.36 OPR/72.0.3815.487","v1-up-stims","","","","","","","","","","","","","","","","",""
"html-keyboard-response","1","2203","0.0-1.0","5e582888ad019803dba551c4","60201dea606b8d5e5aa9e528","60201ea75d4be35b32e91ab8","Mozilla/5.0 (Windows NT 10.0; Win64; x64) AppleWebKit/537.36 (KHTML, like Gecko) Chrome/86.0.4240.198 Safari/537.36 OPR/72.0.3815.487","v1-up-stims","2200.1800001598895","<div><h1>Welcome!</h1><p>Press any key to continue.</p></div>","32","","","","","","","","","","","","","",""
"consent-form","2","102426","0.0-2.0","5e582888ad019803dba551c4","60201dea606b8d5e5aa9e528","60201ea75d4be35b32e91ab8","Mozilla/5.0 (Windows NT 10.0; Win64; x64) AppleWebKit/537.36 (KHTML, like Gecko) Chrome/86.0.4240.198 Safari/537.36 OPR/72.0.3815.487","v1-up-stims","","","","","","","","","","","","","","","","",""
"keyset-select","3","115500","0.0-3.0","5e582888ad019803dba551c4","60201dea606b8d5e5aa9e528","60201ea75d4be35b32e91ab8","Mozilla/5.0 (Windows NT 10.0; Win64; x64) AppleWebKit/537.36 (KHTML, like Gecko) Chrome/86.0.4240.198 Safari/537.36 OPR/72.0.3815.487","v1-up-stims","","","","left-hand","","","","","","","","","","","","",""
"headphone-check","4","177439","0.0-4.0","5e582888ad019803dba551c4","60201dea606b8d5e5aa9e528","60201ea75d4be35b32e91ab8","Mozilla/5.0 (Windows NT 10.0; Win64; x64) AppleWebKit/537.36 (KHTML, like Gecko) Chrome/86.0.4240.198 Safari/537.36 OPR/72.0.3815.487","v1-up-stims","","","","","0","6","0.3","","","","","","","","","",""
"headphone-backwards-check","5","184367","0.0-5.0","5e582888ad019803dba551c4","60201dea606b8d5e5aa9e528","60201ea75d4be35b32e91ab8","Mozilla/5.0 (Windows NT 10.0; Win64; x64) AppleWebKit/537.36 (KHTML, like Gecko) Chrome/86.0.4240.198 Safari/537.36 OPR/72.0.3815.487","v1-up-stims","","","","","0","","","","","","","","","","","",""
"training","6","274459","0.0-6.0","5e582888ad019803dba551c4","60201dea606b8d5e5aa9e528","60201ea75d4be35b32e91ab8","Mozilla/5.0 (Windows NT 10.0; Win64; x64) AppleWebKit/537.36 (KHTML, like Gecko) Chrome/86.0.4240.198 Safari/537.36 OPR/72.0.3815.487","v1-up-stims","","","","","","","","","","","","","","","","",""
"block-bookend","7","288172","0.0-7.0","5e582888ad019803dba551c4","60201dea606b8d5e5aa9e528","60201ea75d4be35b32e91ab8","Mozilla/5.0 (Windows NT 10.0; Win64; x64) AppleWebKit/537.36 (KHTML, like Gecko) Chrome/86.0.4240.198 Safari/537.36 OPR/72.0.3815.487","v1-up-stims","","","","","","","","","","","","","","","","",""
"echo-presentation","8","292147","0.0-8.0","5e582888ad019803dba551c4","60201dea606b8d5e5aa9e528","60201ea75d4be35b32e91ab8","Mozilla/5.0 (Windows NT 10.0; Win64; x64) AppleWebKit/537.36 (KHTML, like Gecko) Chrome/86.0.4240.198 Safari/537.36 OPR/72.0.3815.487","v1-up-stims","","","","","","","","-80,-70,-60,-50,-40","media/audio/stims/spherical_300cm_s20_c1_cd-1_matched_a-50.wav","spherical","20","1","1","matched","-50","-80","1080"
"echo-presentation","9","295603","0.0-9.0","5e582888ad019803dba551c4","60201dea606b8d5e5aa9e528","60201ea75d4be35b32e91ab8","Mozilla/5.0 (Windows NT 10.0; Win64; x64) AppleWebKit/537.36 (KHTML, like Gecko) Chrome/86.0.4240.198 Safari/537.36 OPR/72.0.3815.487","v1-up-stims","","","","","","","","-80,-70,-60,-50,-40","media/audio/stims/spherical_300cm_s20_c1_cd-1_matched_a-40.wav","spherical","20","1","1","matched","-40","-70","1888"
"echo-presentation","10","298064","0.0-10.0","5e582888ad019803dba551c4","60201dea606b8d5e5aa9e528","60201ea75d4be35b32e91ab8","Mozilla/5.0 (Windows NT 10.0; Win64; x64) AppleWebKit/537.36 (KHTML, like Gecko) Chrome/86.0.4240.198 Safari/537.36 OPR/72.0.3815.487","v1-up-stims","","","","","","","","-80,-70,-60,-50,-40","media/audio/stims/spherical_300cm_s20_c1_cd-1_matched_a-40.wav","spherical","20","1","1","matched","-40","-70","1307"
"echo-presentation","11","300717","0.0-11.0","5e582888ad019803dba551c4","60201dea606b8d5e5aa9e528","60201ea75d4be35b32e91ab8","Mozilla/5.0 (Windows NT 10.0; Win64; x64) AppleWebKit/537.36 (KHTML, like Gecko) Chrome/86.0.4240.198 Safari/537.36 OPR/72.0.3815.487","v1-up-stims","","","","","","","","-80,-70,-60,-50,-40","media/audio/stims/spherical_300cm_s20_c1_cd-1_matched_a-80.wav","spherical","20","1","1","matched","-80","-80","1538"
"echo-presentation","12","303940","0.0-12.0","5e582888ad019803dba551c4","60201dea606b8d5e5aa9e528","60201ea75d4be35b32e91ab8","Mozilla/5.0 (Windows NT 10.0; Win64; x64) AppleWebKit/537.36 (KHTML, like Gecko) Chrome/86.0.4240.198 Safari/537.36 OPR/72.0.3815.487","v1-up-stims","","","","","","","","-80,-70,-60,-50,-40","media/audio/stims/spherical_300cm_s20_c1_cd-1_matched_a-70.wav","spherical","20","1","1","matched","-70","-80","1793"
"echo-presentation","13","306472","0.0-13.0","5e582888ad019803dba551c4","60201dea606b8d5e5aa9e528","60201ea75d4be35b32e91ab8","Mozilla/5.0 (Windows NT 10.0; Win64; x64) AppleWebKit/537.36 (KHTML, like Gecko) Chrome/86.0.4240.198 Safari/537.36 OPR/72.0.3815.487","v1-up-stims","","","","","","","","-80,-70,-60,-50,-40","media/audio/stims/spherical_300cm_s20_c1_cd-1_matched_a-70.wav","spherical","20","1","1","matched","-70","-80","1691"
"echo-presentation","14","308684","0.0-14.0","5e582888ad019803dba551c4","60201dea606b8d5e5aa9e528","60201ea75d4be35b32e91ab8","Mozilla/5.0 (Windows NT 10.0; Win64; x64) AppleWebKit/537.36 (KHTML, like Gecko) Chrome/86.0.4240.198 Safari/537.36 OPR/72.0.3815.487","v1-up-stims","","","","","","","","-80,-70,-60,-50,-40","media/audio/stims/spherical_300cm_s20_c1_cd-1_matched_a-50.wav","spherical","20","1","1","matched","-50","-80","1146"
"echo-presentation","15","311281","0.0-15.0","5e582888ad019803dba551c4","60201dea606b8d5e5aa9e528","60201ea75d4be35b32e91ab8","Mozilla/5.0 (Windows NT 10.0; Win64; x64) AppleWebKit/537.36 (KHTML, like Gecko) Chrome/86.0.4240.198 Safari/537.36 OPR/72.0.3815.487","v1-up-stims","","","","","","","","-80,-70,-60,-50,-40","media/audio/stims/spherical_300cm_s20_c1_cd-1_matched_a-40.wav","spherical","20","1","1","matched","-40","-80","1372"
"echo-presentation","16","315465","0.0-16.0","5e582888ad019803dba551c4","60201dea606b8d5e5aa9e528","60201ea75d4be35b32e91ab8","Mozilla/5.0 (Windows NT 10.0; Win64; x64) AppleWebKit/537.36 (KHTML, like Gecko) Chrome/86.0.4240.198 Safari/537.36 OPR/72.0.3815.487","v1-up-stims","","","","","","","","-80,-70,-60,-50,-40","media/audio/stims/spherical_300cm_s20_c1_cd-1_matched_a-50.wav","spherical","20","1","1","matched","-50","-70","3136"
"echo-presentation","17","319528","0.0-17.0","5e582888ad019803dba551c4","60201dea606b8d5e5aa9e528","60201ea75d4be35b32e91ab8","Mozilla/5.0 (Windows NT 10.0; Win64; x64) AppleWebKit/537.36 (KHTML, like Gecko) Chrome/86.0.4240.198 Safari/537.36 OPR/72.0.3815.487","v1-up-stims","","","","","","","","-80,-70,-60,-50,-40","media/audio/stims/spherical_300cm_s20_c1_cd-1_matched_a-60.wav","spherical","20","1","1","matched","-60","-70","2324"
"echo-presentation","18","321684","0.0-18.0","5e582888ad019803dba551c4","60201dea606b8d5e5aa9e528","60201ea75d4be35b32e91ab8","Mozilla/5.0 (Windows NT 10.0; Win64; x64) AppleWebKit/537.36 (KHTML, like Gecko) Chrome/86.0.4240.198 Safari/537.36 OPR/72.0.3815.487","v1-up-stims","","","","","","","","-80,-70,-60,-50,-40","media/audio/stims/spherical_300cm_s20_c1_cd-1_matched_a-50.wav","spherical","20","1","1","matched","-50","-70","1461"
"echo-presentation","19","323733","0.0-19.0","5e582888ad019803dba551c4","60201dea606b8d5e5aa9e528","60201ea75d4be35b32e91ab8","Mozilla/5.0 (Windows NT 10.0; Win64; x64) AppleWebKit/537.36 (KHTML, like Gecko) Chrome/86.0.4240.198 Safari/537.36 OPR/72.0.3815.487","v1-up-stims","","","","","","","","-80,-70,-60,-50,-40","media/audio/stims/spherical_300cm_s20_c1_cd-1_matched_a-80.wav","spherical","20","1","1","matched","-80","-80","1111"
"echo-presentation","20","326261","0.0-20.0","5e582888ad019803dba551c4","60201dea606b8d5e5aa9e528","60201ea75d4be35b32e91ab8","Mozilla/5.0 (Windows NT 10.0; Win64; x64) AppleWebKit/537.36 (KHTML, like Gecko) Chrome/86.0.4240.198 Safari/537.36 OPR/72.0.3815.487","v1-up-stims","","","","","","","","-80,-70,-60,-50,-40","media/audio/stims/spherical_300cm_s20_c1_cd-1_matched_a-60.wav","spherical","20","1","1","matched","-60","-80","1553"
"echo-presentation","21","331636","0.0-21.0","5e582888ad019803dba551c4","60201dea606b8d5e5aa9e528","60201ea75d4be35b32e91ab8","Mozilla/5.0 (Windows NT 10.0; Win64; x64) AppleWebKit/537.36 (KHTML, like Gecko) Chrome/86.0.4240.198 Safari/537.36 OPR/72.0.3815.487","v1-up-stims","","","","","","","","-80,-70,-60,-50,-40","media/audio/stims/spherical_300cm_s20_c1_cd-1_matched_a-70.wav","spherical","20","1","1","matched","-70","-70","4376"
"echo-presentation","22","336744","0.0-22.0","5e582888ad019803dba551c4","60201dea606b8d5e5aa9e528","60201ea75d4be35b32e91ab8","Mozilla/5.0 (Windows NT 10.0; Win64; x64) AppleWebKit/537.36 (KHTML, like Gecko) Chrome/86.0.4240.198 Safari/537.36 OPR/72.0.3815.487","v1-up-stims","","","","","","","","-80,-70,-60,-50,-40","media/audio/stims/spherical_300cm_s20_c1_cd-1_matched_a-40.wav","spherical","20","1","1","matched","-40","-70","3422"
"echo-presentation","23","339261","0.0-23.0","5e582888ad019803dba551c4","60201dea606b8d5e5aa9e528","60201ea75d4be35b32e91ab8","Mozilla/5.0 (Windows NT 10.0; Win64; x64) AppleWebKit/537.36 (KHTML, like Gecko) Chrome/86.0.4240.198 Safari/537.36 OPR/72.0.3815.487","v1-up-stims","","","","","","","","-80,-70,-60,-50,-40","media/audio/stims/spherical_300cm_s20_c1_cd-1_matched_a-80.wav","spherical","20","1","1","matched","-80","-80","1402"
"echo-presentation","24","342795","0.0-24.0","5e582888ad019803dba551c4","60201dea606b8d5e5aa9e528","60201ea75d4be35b32e91ab8","Mozilla/5.0 (Windows NT 10.0; Win64; x64) AppleWebKit/537.36 (KHTML, like Gecko) Chrome/86.0.4240.198 Safari/537.36 OPR/72.0.3815.487","v1-up-stims","","","","","","","","-80,-70,-60,-50,-40","media/audio/stims/spherical_300cm_s20_c1_cd-1_matched_a-70.wav","spherical","20","1","1","matched","-70","-80","2285"
"echo-presentation","25","345447","0.0-25.0","5e582888ad019803dba551c4","60201dea606b8d5e5aa9e528","60201ea75d4be35b32e91ab8","Mozilla/5.0 (Windows NT 10.0; Win64; x64) AppleWebKit/537.36 (KHTML, like Gecko) Chrome/86.0.4240.198 Safari/537.36 OPR/72.0.3815.487","v1-up-stims","","","","","","","","-80,-70,-60,-50,-40","media/audio/stims/spherical_300cm_s20_c1_cd-1_matched_a-80.wav","spherical","20","1","1","matched","-80","-80","1040"
"echo-presentation","26","348074","0.0-26.0","5e582888ad019803dba551c4","60201dea606b8d5e5aa9e528","60201ea75d4be35b32e91ab8","Mozilla/5.0 (Windows NT 10.0; Win64; x64) AppleWebKit/537.36 (KHTML, like Gecko) Chrome/86.0.4240.198 Safari/537.36 OPR/72.0.3815.487","v1-up-stims","","","","","","","","-80,-70,-60,-50,-40","media/audio/stims/spherical_300cm_s20_c1_cd-1_matched_a-60.wav","spherical","20","1","1","matched","-60","-80","1522"
"echo-presentation","27","351930","0.0-27.0","5e582888ad019803dba551c4","60201dea606b8d5e5aa9e528","60201ea75d4be35b32e91ab8","Mozilla/5.0 (Windows NT 10.0; Win64; x64) AppleWebKit/537.36 (KHTML, like Gecko) Chrome/86.0.4240.198 Safari/537.36 OPR/72.0.3815.487","v1-up-stims","","","","","","","","-80,-70,-60,-50,-40","media/audio/stims/spherical_300cm_s20_c1_cd-1_matched_a-60.wav","spherical","20","1","1","matched","-60","-60","2752"
"block-bookend","28","355119","0.0-28.0","5e582888ad019803dba551c4","60201dea606b8d5e5aa9e528","60201ea75d4be35b32e91ab8","Mozilla/5.0 (Windows NT 10.0; Win64; x64) AppleWebKit/537.36 (KHTML, like Gecko) Chrome/86.0.4240.198 Safari/537.36 OPR/72.0.3815.487","v1-up-stims","","","","","","","","","","","","","","","","",""
"block-bookend","29","364705","0.0-29.0","5e582888ad019803dba551c4","60201dea606b8d5e5aa9e528","60201ea75d4be35b32e91ab8","Mozilla/5.0 (Windows NT 10.0; Win64; x64) AppleWebKit/537.36 (KHTML, like Gecko) Chrome/86.0.4240.198 Safari/537.36 OPR/72.0.3815.487","v1-up-stims","","","","","","","","","","","","","","","","",""
"echo-presentation","30","371874","0.0-30.0","5e582888ad019803dba551c4","60201dea606b8d5e5aa9e528","60201ea75d4be35b32e91ab8","Mozilla/5.0 (Windows NT 10.0; Win64; x64) AppleWebKit/537.36 (KHTML, like Gecko) Chrome/86.0.4240.198 Safari/537.36 OPR/72.0.3815.487","v1-up-stims","","","","","","","","-80,-70,-60,-50,-40","media/audio/stims/spherical_300cm_s20_c1_cd-1_matched_a-80.wav","spherical","20","1","1","matched","-80","-60","5328"
"echo-presentation","31","374777","0.0-31.0","5e582888ad019803dba551c4","60201dea606b8d5e5aa9e528","60201ea75d4be35b32e91ab8","Mozilla/5.0 (Windows NT 10.0; Win64; x64) AppleWebKit/537.36 (KHTML, like Gecko) Chrome/86.0.4240.198 Safari/537.36 OPR/72.0.3815.487","v1-up-stims","","","","","","","","-80,-70,-60,-50,-40","media/audio/stims/spherical_300cm_s20_c1_cd-1_matched_a-40.wav","spherical","20","1","1","matched","-40","-70","1779"
"echo-presentation","32","378413","0.0-32.0","5e582888ad019803dba551c4","60201dea606b8d5e5aa9e528","60201ea75d4be35b32e91ab8","Mozilla/5.0 (Windows NT 10.0; Win64; x64) AppleWebKit/537.36 (KHTML, like Gecko) Chrome/86.0.4240.198 Safari/537.36 OPR/72.0.3815.487","v1-up-stims","","","","","","","","-80,-70,-60,-50,-40","media/audio/stims/spherical_300cm_s20_c1_cd-1_matched_a-50.wav","spherical","20","1","1","matched","-50","-60","2009"
"echo-presentation","33","380727","0.0-33.0","5e582888ad019803dba551c4","60201dea606b8d5e5aa9e528","60201ea75d4be35b32e91ab8","Mozilla/5.0 (Windows NT 10.0; Win64; x64) AppleWebKit/537.36 (KHTML, like Gecko) Chrome/86.0.4240.198 Safari/537.36 OPR/72.0.3815.487","v1-up-stims","","","","","","","","-80,-70,-60,-50,-40","media/audio/stims/spherical_300cm_s20_c1_cd-1_matched_a-70.wav","spherical","20","1","1","matched","-70","-70","1462"
"echo-presentation","34","382678","0.0-34.0","5e582888ad019803dba551c4","60201dea606b8d5e5aa9e528","60201ea75d4be35b32e91ab8","Mozilla/5.0 (Windows NT 10.0; Win64; x64) AppleWebKit/537.36 (KHTML, like Gecko) Chrome/86.0.4240.198 Safari/537.36 OPR/72.0.3815.487","v1-up-stims","","","","","","","","-80,-70,-60,-50,-40","media/audio/stims/spherical_300cm_s20_c1_cd-1_matched_a-50.wav","spherical","20","1","1","matched","-50","-70","1001"
"echo-presentation","35","384638","0.0-35.0","5e582888ad019803dba551c4","60201dea606b8d5e5aa9e528","60201ea75d4be35b32e91ab8","Mozilla/5.0 (Windows NT 10.0; Win64; x64) AppleWebKit/537.36 (KHTML, like Gecko) Chrome/86.0.4240.198 Safari/537.36 OPR/72.0.3815.487","v1-up-stims","","","","","","","","-80,-70,-60,-50,-40","media/audio/stims/spherical_300cm_s20_c1_cd-1_matched_a-40.wav","spherical","20","1","1","matched","-40","-70","990"
"echo-presentation","36","386638","0.0-36.0","5e582888ad019803dba551c4","60201dea606b8d5e5aa9e528","60201ea75d4be35b32e91ab8","Mozilla/5.0 (Windows NT 10.0; Win64; x64) AppleWebKit/537.36 (KHTML, like Gecko) Chrome/86.0.4240.198 Safari/537.36 OPR/72.0.3815.487","v1-up-stims","","","","","","","","-80,-70,-60,-50,-40","media/audio/stims/spherical_300cm_s20_c1_cd-1_matched_a-50.wav","spherical","20","1","1","matched","-50","-70","1051"
"echo-presentation","37","389015","0.0-37.0","5e582888ad019803dba551c4","60201dea606b8d5e5aa9e528","60201ea75d4be35b32e91ab8","Mozilla/5.0 (Windows NT 10.0; Win64; x64) AppleWebKit/537.36 (KHTML, like Gecko) Chrome/86.0.4240.198 Safari/537.36 OPR/72.0.3815.487","v1-up-stims","","","","","","","","-80,-70,-60,-50,-40","media/audio/stims/spherical_300cm_s20_c1_cd-1_matched_a-60.wav","spherical","20","1","1","matched","-60","-80","1217"
"echo-presentation","38","391698","0.0-38.0","5e582888ad019803dba551c4","60201dea606b8d5e5aa9e528","60201ea75d4be35b32e91ab8","Mozilla/5.0 (Windows NT 10.0; Win64; x64) AppleWebKit/537.36 (KHTML, like Gecko) Chrome/86.0.4240.198 Safari/537.36 OPR/72.0.3815.487","v1-up-stims","","","","","","","","-80,-70,-60,-50,-40","media/audio/stims/spherical_300cm_s20_c1_cd-1_matched_a-70.wav","spherical","20","1","1","matched","-70","-80","1773"
"echo-presentation","39","393673","0.0-39.0","5e582888ad019803dba551c4","60201dea606b8d5e5aa9e528","60201ea75d4be35b32e91ab8","Mozilla/5.0 (Windows NT 10.0; Win64; x64) AppleWebKit/537.36 (KHTML, like Gecko) Chrome/86.0.4240.198 Safari/537.36 OPR/72.0.3815.487","v1-up-stims","","","","","","","","-80,-70,-60,-50,-40","media/audio/stims/spherical_300cm_s20_c1_cd-1_matched_a-60.wav","spherical","20","1","1","matched","-60","-80","1106"
"echo-presentation","40","396221","0.0-40.0","5e582888ad019803dba551c4","60201dea606b8d5e5aa9e528","60201ea75d4be35b32e91ab8","Mozilla/5.0 (Windows NT 10.0; Win64; x64) AppleWebKit/537.36 (KHTML, like Gecko) Chrome/86.0.4240.198 Safari/537.36 OPR/72.0.3815.487","v1-up-stims","","","","","","","","-80,-70,-60,-50,-40","media/audio/stims/spherical_300cm_s20_c1_cd-1_matched_a-80.wav","spherical","20","1","1","matched","-80","-80","1707"
"echo-presentation","41","398616","0.0-41.0","5e582888ad019803dba551c4","60201dea606b8d5e5aa9e528","60201ea75d4be35b32e91ab8","Mozilla/5.0 (Windows NT 10.0; Win64; x64) AppleWebKit/537.36 (KHTML, like Gecko) Chrome/86.0.4240.198 Safari/537.36 OPR/72.0.3815.487","v1-up-stims","","","","","","","","-80,-70,-60,-50,-40","media/audio/stims/spherical_300cm_s20_c1_cd-1_matched_a-80.wav","spherical","20","1","1","matched","-80","-80","1678"
"echo-presentation","42","401684","0.0-42.0","5e582888ad019803dba551c4","60201dea606b8d5e5aa9e528","60201ea75d4be35b32e91ab8","Mozilla/5.0 (Windows NT 10.0; Win64; x64) AppleWebKit/537.36 (KHTML, like Gecko) Chrome/86.0.4240.198 Safari/537.36 OPR/72.0.3815.487","v1-up-stims","","","","","","","","-80,-70,-60,-50,-40","media/audio/stims/spherical_300cm_s20_c1_cd-1_matched_a-40.wav","spherical","20","1","1","matched","-40","-60","2223"
"echo-presentation","43","404251","0.0-43.0","5e582888ad019803dba551c4","60201dea606b8d5e5aa9e528","60201ea75d4be35b32e91ab8","Mozilla/5.0 (Windows NT 10.0; Win64; x64) AppleWebKit/537.36 (KHTML, like Gecko) Chrome/86.0.4240.198 Safari/537.36 OPR/72.0.3815.487","v1-up-stims","","","","","","","","-80,-70,-60,-50,-40","media/audio/stims/spherical_300cm_s20_c1_cd-1_matched_a-40.wav","spherical","20","1","1","matched","-40","-70","1327"
"echo-presentation","44","407821","0.0-44.0","5e582888ad019803dba551c4","60201dea606b8d5e5aa9e528","60201ea75d4be35b32e91ab8","Mozilla/5.0 (Windows NT 10.0; Win64; x64) AppleWebKit/537.36 (KHTML, like Gecko) Chrome/86.0.4240.198 Safari/537.36 OPR/72.0.3815.487","v1-up-stims","","","","","","","","-80,-70,-60,-50,-40","media/audio/stims/spherical_300cm_s20_c1_cd-1_matched_a-60.wav","spherical","20","1","1","matched","-60","-60","2486"
"echo-presentation","45","409936","0.0-45.0","5e582888ad019803dba551c4","60201dea606b8d5e5aa9e528","60201ea75d4be35b32e91ab8","Mozilla/5.0 (Windows NT 10.0; Win64; x64) AppleWebKit/537.36 (KHTML, like Gecko) Chrome/86.0.4240.198 Safari/537.36 OPR/72.0.3815.487","v1-up-stims","","","","","","","","-80,-70,-60,-50,-40","media/audio/stims/spherical_300cm_s20_c1_cd-1_matched_a-50.wav","spherical","20","1","1","matched","-50","-80","1375"
"echo-presentation","46","412869","0.0-46.0","5e582888ad019803dba551c4","60201dea606b8d5e5aa9e528","60201ea75d4be35b32e91ab8","Mozilla/5.0 (Windows NT 10.0; Win64; x64) AppleWebKit/537.36 (KHTML, like Gecko) Chrome/86.0.4240.198 Safari/537.36 OPR/72.0.3815.487","v1-up-stims","","","","","","","","-80,-70,-60,-50,-40","media/audio/stims/spherical_300cm_s20_c1_cd-1_matched_a-60.wav","spherical","20","1","1","matched","-60","-70","2024"
"echo-presentation","47","414981","0.0-47.0","5e582888ad019803dba551c4","60201dea606b8d5e5aa9e528","60201ea75d4be35b32e91ab8","Mozilla/5.0 (Windows NT 10.0; Win64; x64) AppleWebKit/537.36 (KHTML, like Gecko) Chrome/86.0.4240.198 Safari/537.36 OPR/72.0.3815.487","v1-up-stims","","","","","","","","-80,-70,-60,-50,-40","media/audio/stims/spherical_300cm_s20_c1_cd-1_matched_a-70.wav","spherical","20","1","1","matched","-70","-80","1212"
"echo-presentation","48","417076","0.0-48.0","5e582888ad019803dba551c4","60201dea606b8d5e5aa9e528","60201ea75d4be35b32e91ab8","Mozilla/5.0 (Windows NT 10.0; Win64; x64) AppleWebKit/537.36 (KHTML, like Gecko) Chrome/86.0.4240.198 Safari/537.36 OPR/72.0.3815.487","v1-up-stims","","","","","","","","-80,-70,-60,-50,-40","media/audio/stims/spherical_300cm_s20_c1_cd-1_matched_a-80.wav","spherical","20","1","1","matched","-80","-80","1276"
"echo-presentation","49","419598","0.0-49.0","5e582888ad019803dba551c4","60201dea606b8d5e5aa9e528","60201ea75d4be35b32e91ab8","Mozilla/5.0 (Windows NT 10.0; Win64; x64) AppleWebKit/537.36 (KHTML, like Gecko) Chrome/86.0.4240.198 Safari/537.36 OPR/72.0.3815.487","v1-up-stims","","","","","","","","-80,-70,-60,-50,-40","media/audio/stims/spherical_300cm_s20_c1_cd-1_matched_a-70.wav","spherical","20","1","1","matched","-70","-80","1222"
"block-bookend","50","420736","0.0-50.0","5e582888ad019803dba551c4","60201dea606b8d5e5aa9e528","60201ea75d4be35b32e91ab8","Mozilla/5.0 (Windows NT 10.0; Win64; x64) AppleWebKit/537.36 (KHTML, like Gecko) Chrome/86.0.4240.198 Safari/537.36 OPR/72.0.3815.487","v1-up-stims","","","","","","","","","","","","","","","","",""
"block-bookend","51","428572","0.0-51.0","5e582888ad019803dba551c4","60201dea606b8d5e5aa9e528","60201ea75d4be35b32e91ab8","Mozilla/5.0 (Windows NT 10.0; Win64; x64) AppleWebKit/537.36 (KHTML, like Gecko) Chrome/86.0.4240.198 Safari/537.36 OPR/72.0.3815.487","v1-up-stims","","","","","","","","","","","","","","","","",""
"echo-presentation","52","431851","0.0-52.0","5e582888ad019803dba551c4","60201dea606b8d5e5aa9e528","60201ea75d4be35b32e91ab8","Mozilla/5.0 (Windows NT 10.0; Win64; x64) AppleWebKit/537.36 (KHTML, like Gecko) Chrome/86.0.4240.198 Safari/537.36 OPR/72.0.3815.487","v1-up-stims","","","","","","","","-20,-10,0,10,20","media/audio/stims/spherical_300cm_s20_c1_cd-1_matched_a0.wav","spherical","20","1","1","matched","0","0","1833"
"echo-presentation","53","434062","0.0-53.0","5e582888ad019803dba551c4","60201dea606b8d5e5aa9e528","60201ea75d4be35b32e91ab8","Mozilla/5.0 (Windows NT 10.0; Win64; x64) AppleWebKit/537.36 (KHTML, like Gecko) Chrome/86.0.4240.198 Safari/537.36 OPR/72.0.3815.487","v1-up-stims","","","","","","","","-20,-10,0,10,20","media/audio/stims/spherical_300cm_s20_c1_cd-1_matched_a20.wav","spherical","20","1","1","matched","20","10","1061"
"echo-presentation","54","436443","0.0-54.0","5e582888ad019803dba551c4","60201dea606b8d5e5aa9e528","60201ea75d4be35b32e91ab8","Mozilla/5.0 (Windows NT 10.0; Win64; x64) AppleWebKit/537.36 (KHTML, like Gecko) Chrome/86.0.4240.198 Safari/537.36 OPR/72.0.3815.487","v1-up-stims","","","","","","","","-20,-10,0,10,20","media/audio/stims/spherical_300cm_s20_c1_cd-1_matched_a0.wav","spherical","20","1","1","matched","0","0","1457"
"echo-presentation","55","439692","0.0-55.0","5e582888ad019803dba551c4","60201dea606b8d5e5aa9e528","60201ea75d4be35b32e91ab8","Mozilla/5.0 (Windows NT 10.0; Win64; x64) AppleWebKit/537.36 (KHTML, like Gecko) Chrome/86.0.4240.198 Safari/537.36 OPR/72.0.3815.487","v1-up-stims","","","","","","","","-20,-10,0,10,20","media/audio/stims/spherical_300cm_s20_c1_cd-1_matched_a-20.wav","spherical","20","1","1","matched","-20","-20","1712"
"echo-presentation","56","442239","0.0-56.0","5e582888ad019803dba551c4","60201dea606b8d5e5aa9e528","60201ea75d4be35b32e91ab8","Mozilla/5.0 (Windows NT 10.0; Win64; x64) AppleWebKit/537.36 (KHTML, like Gecko) Chrome/86.0.4240.198 Safari/537.36 OPR/72.0.3815.487","v1-up-stims","","","","","","","","-20,-10,0,10,20","media/audio/stims/spherical_300cm_s20_c1_cd-1_matched_a20.wav","spherical","20","1","1","matched","20","20","1522"
"echo-presentation","57","444364","0.0-57.0","5e582888ad019803dba551c4","60201dea606b8d5e5aa9e528","60201ea75d4be35b32e91ab8","Mozilla/5.0 (Windows NT 10.0; Win64; x64) AppleWebKit/537.36 (KHTML, like Gecko) Chrome/86.0.4240.198 Safari/537.36 OPR/72.0.3815.487","v1-up-stims","","","","","","","","-20,-10,0,10,20","media/audio/stims/spherical_300cm_s20_c1_cd-1_matched_a-20.wav","spherical","20","1","1","matched","-20","-20","1296"
"echo-presentation","58","448255","0.0-58.0","5e582888ad019803dba551c4","60201dea606b8d5e5aa9e528","60201ea75d4be35b32e91ab8","Mozilla/5.0 (Windows NT 10.0; Win64; x64) AppleWebKit/537.36 (KHTML, like Gecko) Chrome/86.0.4240.198 Safari/537.36 OPR/72.0.3815.487","v1-up-stims","","","","","","","","-20,-10,0,10,20","media/audio/stims/spherical_300cm_s20_c1_cd-1_matched_a0.wav","spherical","20","1","1","matched","0","10","2770"
"echo-presentation","59","450342","0.0-59.0","5e582888ad019803dba551c4","60201dea606b8d5e5aa9e528","60201ea75d4be35b32e91ab8","Mozilla/5.0 (Windows NT 10.0; Win64; x64) AppleWebKit/537.36 (KHTML, like Gecko) Chrome/86.0.4240.198 Safari/537.36 OPR/72.0.3815.487","v1-up-stims","","","","","","","","-20,-10,0,10,20","media/audio/stims/spherical_300cm_s20_c1_cd-1_matched_a-20.wav","spherical","20","1","1","matched","-20","-20","1145"
"echo-presentation","60","452688","0.0-60.0","5e582888ad019803dba551c4","60201dea606b8d5e5aa9e528","60201ea75d4be35b32e91ab8","Mozilla/5.0 (Windows NT 10.0; Win64; x64) AppleWebKit/537.36 (KHTML, like Gecko) Chrome/86.0.4240.198 Safari/537.36 OPR/72.0.3815.487","v1-up-stims","","","","","","","","-20,-10,0,10,20","media/audio/stims/spherical_300cm_s20_c1_cd-1_matched_a-10.wav","spherical","20","1","1","matched","-10","-20","1347"
"echo-presentation","61","454526","0.0-61.0","5e582888ad019803dba551c4","60201dea606b8d5e5aa9e528","60201ea75d4be35b32e91ab8","Mozilla/5.0 (Windows NT 10.0; Win64; x64) AppleWebKit/537.36 (KHTML, like Gecko) Chrome/86.0.4240.198 Safari/537.36 OPR/72.0.3815.487","v1-up-stims","","","","","","","","-20,-10,0,10,20","media/audio/stims/spherical_300cm_s20_c1_cd-1_matched_a-20.wav","spherical","20","1","1","matched","-20","-20","1015"
"echo-presentation","62","456778","0.0-62.0","5e582888ad019803dba551c4","60201dea606b8d5e5aa9e528","60201ea75d4be35b32e91ab8","Mozilla/5.0 (Windows NT 10.0; Win64; x64) AppleWebKit/537.36 (KHTML, like Gecko) Chrome/86.0.4240.198 Safari/537.36 OPR/72.0.3815.487","v1-up-stims","","","","","","","","-20,-10,0,10,20","media/audio/stims/spherical_300cm_s20_c1_cd-1_matched_a-10.wav","spherical","20","1","1","matched","-10","-20","1160"
"echo-presentation","63","459259","0.0-63.0","5e582888ad019803dba551c4","60201dea606b8d5e5aa9e528","60201ea75d4be35b32e91ab8","Mozilla/5.0 (Windows NT 10.0; Win64; x64) AppleWebKit/537.36 (KHTML, like Gecko) Chrome/86.0.4240.198 Safari/537.36 OPR/72.0.3815.487","v1-up-stims","","","","","","","","-20,-10,0,10,20","media/audio/stims/spherical_300cm_s20_c1_cd-1_matched_a10.wav","spherical","20","1","1","matched","10","10","1663"
"echo-presentation","64","461094","0.0-64.0","5e582888ad019803dba551c4","60201dea606b8d5e5aa9e528","60201ea75d4be35b32e91ab8","Mozilla/5.0 (Windows NT 10.0; Win64; x64) AppleWebKit/537.36 (KHTML, like Gecko) Chrome/86.0.4240.198 Safari/537.36 OPR/72.0.3815.487","v1-up-stims","","","","","","","","-20,-10,0,10,20","media/audio/stims/spherical_300cm_s20_c1_cd-1_matched_a10.wav","spherical","20","1","1","matched","10","20","1045"
"echo-presentation","65","464194","0.0-65.0","5e582888ad019803dba551c4","60201dea606b8d5e5aa9e528","60201ea75d4be35b32e91ab8","Mozilla/5.0 (Windows NT 10.0; Win64; x64) AppleWebKit/537.36 (KHTML, like Gecko) Chrome/86.0.4240.198 Safari/537.36 OPR/72.0.3815.487","v1-up-stims","","","","","","","","-20,-10,0,10,20","media/audio/stims/spherical_300cm_s20_c1_cd-1_matched_a-10.wav","spherical","20","1","1","matched","-10","-10","2049"
"echo-presentation","66","466445","0.0-66.0","5e582888ad019803dba551c4","60201dea606b8d5e5aa9e528","60201ea75d4be35b32e91ab8","Mozilla/5.0 (Windows NT 10.0; Win64; x64) AppleWebKit/537.36 (KHTML, like Gecko) Chrome/86.0.4240.198 Safari/537.36 OPR/72.0.3815.487","v1-up-stims","","","","","","","","-20,-10,0,10,20","media/audio/stims/spherical_300cm_s20_c1_cd-1_matched_a20.wav","spherical","20","1","1","matched","20","10","1462"
"echo-presentation","67","468870","0.0-67.0","5e582888ad019803dba551c4","60201dea606b8d5e5aa9e528","60201ea75d4be35b32e91ab8","Mozilla/5.0 (Windows NT 10.0; Win64; x64) AppleWebKit/537.36 (KHTML, like Gecko) Chrome/86.0.4240.198 Safari/537.36 OPR/72.0.3815.487","v1-up-stims","","","","","","","","-20,-10,0,10,20","media/audio/stims/spherical_300cm_s20_c1_cd-1_matched_a10.wav","spherical","20","1","1","matched","10","10","1552"
"echo-presentation","68","470750","0.0-68.0","5e582888ad019803dba551c4","60201dea606b8d5e5aa9e528","60201ea75d4be35b32e91ab8","Mozilla/5.0 (Windows NT 10.0; Win64; x64) AppleWebKit/537.36 (KHTML, like Gecko) Chrome/86.0.4240.198 Safari/537.36 OPR/72.0.3815.487","v1-up-stims","","","","","","","","-20,-10,0,10,20","media/audio/stims/spherical_300cm_s20_c1_cd-1_matched_a10.wav","spherical","20","1","1","matched","10","20","1297"
"echo-presentation","69","473483","0.0-69.0","5e582888ad019803dba551c4","60201dea606b8d5e5aa9e528","60201ea75d4be35b32e91ab8","Mozilla/5.0 (Windows NT 10.0; Win64; x64) AppleWebKit/537.36 (KHTML, like Gecko) Chrome/86.0.4240.198 Safari/537.36 OPR/72.0.3815.487","v1-up-stims","","","","","","","","-20,-10,0,10,20","media/audio/stims/spherical_300cm_s20_c1_cd-1_matched_a-10.wav","spherical","20","1","1","matched","-10","-10","1251"
"echo-presentation","70","477756","0.0-70.0","5e582888ad019803dba551c4","60201dea606b8d5e5aa9e528","60201ea75d4be35b32e91ab8","Mozilla/5.0 (Windows NT 10.0; Win64; x64) AppleWebKit/537.36 (KHTML, like Gecko) Chrome/86.0.4240.198 Safari/537.36 OPR/72.0.3815.487","v1-up-stims","","","","","","","","-20,-10,0,10,20","media/audio/stims/spherical_300cm_s20_c1_cd-1_matched_a20.wav","spherical","20","1","1","matched","20","0","2340"
"echo-presentation","71","479800","0.0-71.0","5e582888ad019803dba551c4","60201dea606b8d5e5aa9e528","60201ea75d4be35b32e91ab8","Mozilla/5.0 (Windows NT 10.0; Win64; x64) AppleWebKit/537.36 (KHTML, like Gecko) Chrome/86.0.4240.198 Safari/537.36 OPR/72.0.3815.487","v1-up-stims","","","","","","","","-20,-10,0,10,20","media/audio/stims/spherical_300cm_s20_c1_cd-1_matched_a0.wav","spherical","20","1","1","matched","0","0","1146"
"block-bookend","72","481109","0.0-72.0","5e582888ad019803dba551c4","60201dea606b8d5e5aa9e528","60201ea75d4be35b32e91ab8","Mozilla/5.0 (Windows NT 10.0; Win64; x64) AppleWebKit/537.36 (KHTML, like Gecko) Chrome/86.0.4240.198 Safari/537.36 OPR/72.0.3815.487","v1-up-stims","","","","","","","","","","","","","","","","",""
"block-bookend","73","486143","0.0-73.0","5e582888ad019803dba551c4","60201dea606b8d5e5aa9e528","60201ea75d4be35b32e91ab8","Mozilla/5.0 (Windows NT 10.0; Win64; x64) AppleWebKit/537.36 (KHTML, like Gecko) Chrome/86.0.4240.198 Safari/537.36 OPR/72.0.3815.487","v1-up-stims","","","","","","","","","","","","","","","","",""
"echo-presentation","74","489296","0.0-74.0","5e582888ad019803dba551c4","60201dea606b8d5e5aa9e528","60201ea75d4be35b32e91ab8","Mozilla/5.0 (Windows NT 10.0; Win64; x64) AppleWebKit/537.36 (KHTML, like Gecko) Chrome/86.0.4240.198 Safari/537.36 OPR/72.0.3815.487","v1-up-stims","","","","","","","","-20,-10,0,10,20","media/audio/stims/spherical_300cm_s20_c1_cd-1_matched_a-20.wav","spherical","20","1","1","matched","-20","0","1909"
"echo-presentation","75","492881","0.0-75.0","5e582888ad019803dba551c4","60201dea606b8d5e5aa9e528","60201ea75d4be35b32e91ab8","Mozilla/5.0 (Windows NT 10.0; Win64; x64) AppleWebKit/537.36 (KHTML, like Gecko) Chrome/86.0.4240.198 Safari/537.36 OPR/72.0.3815.487","v1-up-stims","","","","","","","","-20,-10,0,10,20","media/audio/stims/spherical_300cm_s20_c1_cd-1_matched_a10.wav","spherical","20","1","1","matched","10","10","1557"
"echo-presentation","76","494991","0.0-76.0","5e582888ad019803dba551c4","60201dea606b8d5e5aa9e528","60201ea75d4be35b32e91ab8","Mozilla/5.0 (Windows NT 10.0; Win64; x64) AppleWebKit/537.36 (KHTML, like Gecko) Chrome/86.0.4240.198 Safari/537.36 OPR/72.0.3815.487","v1-up-stims","","","","","","","","-20,-10,0,10,20","media/audio/stims/spherical_300cm_s20_c1_cd-1_matched_a20.wav","spherical","20","1","1","matched","20","20","981"
"echo-presentation","77","497515","0.0-77.0","5e582888ad019803dba551c4","60201dea606b8d5e5aa9e528","60201ea75d4be35b32e91ab8","Mozilla/5.0 (Windows NT 10.0; Win64; x64) AppleWebKit/537.36 (KHTML, like Gecko) Chrome/86.0.4240.198 Safari/537.36 OPR/72.0.3815.487","v1-up-stims","","","","","","","","-20,-10,0,10,20","media/audio/stims/spherical_300cm_s20_c1_cd-1_matched_a0.wav","spherical","20","1","1","matched","0","-10","1327"
"echo-presentation","78","499509","0.0-78.0","5e582888ad019803dba551c4","60201dea606b8d5e5aa9e528","60201ea75d4be35b32e91ab8","Mozilla/5.0 (Windows NT 10.0; Win64; x64) AppleWebKit/537.36 (KHTML, like Gecko) Chrome/86.0.4240.198 Safari/537.36 OPR/72.0.3815.487","v1-up-stims","","","","","","","","-20,-10,0,10,20","media/audio/stims/spherical_300cm_s20_c1_cd-1_matched_a0.wav","spherical","20","1","1","matched","0","-10","1171"
"echo-presentation","79","502391","0.0-79.0","5e582888ad019803dba551c4","60201dea606b8d5e5aa9e528","60201ea75d4be35b32e91ab8","Mozilla/5.0 (Windows NT 10.0; Win64; x64) AppleWebKit/537.36 (KHTML, like Gecko) Chrome/86.0.4240.198 Safari/537.36 OPR/72.0.3815.487","v1-up-stims","","","","","","","","-20,-10,0,10,20","media/audio/stims/spherical_300cm_s20_c1_cd-1_matched_a-20.wav","spherical","20","1","1","matched","-20","-10","1908"
"echo-presentation","80","504884","0.0-80.0","5e582888ad019803dba551c4","60201dea606b8d5e5aa9e528","60201ea75d4be35b32e91ab8","Mozilla/5.0 (Windows NT 10.0; Win64; x64) AppleWebKit/537.36 (KHTML, like Gecko) Chrome/86.0.4240.198 Safari/537.36 OPR/72.0.3815.487","v1-up-stims","","","","","","","","-20,-10,0,10,20","media/audio/stims/spherical_300cm_s20_c1_cd-1_matched_a20.wav","spherical","20","1","1","matched","20","10","1431"
"echo-presentation","81","506934","0.0-81.0","5e582888ad019803dba551c4","60201dea606b8d5e5aa9e528","60201ea75d4be35b32e91ab8","Mozilla/5.0 (Windows NT 10.0; Win64; x64) AppleWebKit/537.36 (KHTML, like Gecko) Chrome/86.0.4240.198 Safari/537.36 OPR/72.0.3815.487","v1-up-stims","","","","","","","","-20,-10,0,10,20","media/audio/stims/spherical_300cm_s20_c1_cd-1_matched_a-20.wav","spherical","20","1","1","matched","-20","-20","1145"
"echo-presentation","82","509942","0.0-82.0","5e582888ad019803dba551c4","60201dea606b8d5e5aa9e528","60201ea75d4be35b32e91ab8","Mozilla/5.0 (Windows NT 10.0; Win64; x64) AppleWebKit/537.36 (KHTML, like Gecko) Chrome/86.0.4240.198 Safari/537.36 OPR/72.0.3815.487","v1-up-stims","","","","","","","","-20,-10,0,10,20","media/audio/stims/spherical_300cm_s20_c1_cd-1_matched_a-20.wav","spherical","20","1","1","matched","-20","-20","1973"
"echo-presentation","83","511607","0.0-83.0","5e582888ad019803dba551c4","60201dea606b8d5e5aa9e528","60201ea75d4be35b32e91ab8","Mozilla/5.0 (Windows NT 10.0; Win64; x64) AppleWebKit/537.36 (KHTML, like Gecko) Chrome/86.0.4240.198 Safari/537.36 OPR/72.0.3815.487","v1-up-stims","","","","","","","","-20,-10,0,10,20","media/audio/stims/spherical_300cm_s20_c1_cd-1_matched_a0.wav","spherical","20","1","1","matched","0","-10","1147"
"echo-presentation","84","516080","0.0-84.0","5e582888ad019803dba551c4","60201dea606b8d5e5aa9e528","60201ea75d4be35b32e91ab8","Mozilla/5.0 (Windows NT 10.0; Win64; x64) AppleWebKit/537.36 (KHTML, like Gecko) Chrome/86.0.4240.198 Safari/537.36 OPR/72.0.3815.487","v1-up-stims","","","","","","","","-20,-10,0,10,20","media/audio/stims/spherical_300cm_s20_c1_cd-1_matched_a10.wav","spherical","20","1","1","matched","10","20","1306"
"echo-presentation","85","519062","0.0-85.0","5e582888ad019803dba551c4","60201dea606b8d5e5aa9e528","60201ea75d4be35b32e91ab8","Mozilla/5.0 (Windows NT 10.0; Win64; x64) AppleWebKit/537.36 (KHTML, like Gecko) Chrome/86.0.4240.198 Safari/537.36 OPR/72.0.3815.487","v1-up-stims","","","","","","","","-20,-10,0,10,20","media/audio/stims/spherical_300cm_s20_c1_cd-1_matched_a-10.wav","spherical","20","1","1","matched","-10","-10","2050"
"echo-presentation","86","520832","0.0-86.0","5e582888ad019803dba551c4","60201dea606b8d5e5aa9e528","60201ea75d4be35b32e91ab8","Mozilla/5.0 (Windows NT 10.0; Win64; x64) AppleWebKit/537.36 (KHTML, like Gecko) Chrome/86.0.4240.198 Safari/537.36 OPR/72.0.3815.487","v1-up-stims","","","","","","","","-20,-10,0,10,20","media/audio/stims/spherical_300cm_s20_c1_cd-1_matched_a-10.wav","spherical","20","1","1","matched","-10","-10","1238"
"echo-presentation","87","523284","0.0-87.0","5e582888ad019803dba551c4","60201dea606b8d5e5aa9e528","60201ea75d4be35b32e91ab8","Mozilla/5.0 (Windows NT 10.0; Win64; x64) AppleWebKit/537.36 (KHTML, like Gecko) Chrome/86.0.4240.198 Safari/537.36 OPR/72.0.3815.487","v1-up-stims","","","","","","","","-20,-10,0,10,20","media/audio/stims/spherical_300cm_s20_c1_cd-1_matched_a10.wav","spherical","20","1","1","matched","10","10","1357"
"echo-presentation","88","525163","0.0-88.0","5e582888ad019803dba551c4","60201dea606b8d5e5aa9e528","60201ea75d4be35b32e91ab8","Mozilla/5.0 (Windows NT 10.0; Win64; x64) AppleWebKit/537.36 (KHTML, like Gecko) Chrome/86.0.4240.198 Safari/537.36 OPR/72.0.3815.487","v1-up-stims","","","","","","","","-20,-10,0,10,20","media/audio/stims/spherical_300cm_s20_c1_cd-1_matched_a-10.wav","spherical","20","1","1","matched","-10","-20","1092"
"echo-presentation","89","527560","0.0-89.0","5e582888ad019803dba551c4","60201dea606b8d5e5aa9e528","60201ea75d4be35b32e91ab8","Mozilla/5.0 (Windows NT 10.0; Win64; x64) AppleWebKit/537.36 (KHTML, like Gecko) Chrome/86.0.4240.198 Safari/537.36 OPR/72.0.3815.487","v1-up-stims","","","","","","","","-20,-10,0,10,20","media/audio/stims/spherical_300cm_s20_c1_cd-1_matched_a10.wav","spherical","20","1","1","matched","10","10","1442"
"echo-presentation","90","530758","0.0-90.0","5e582888ad019803dba551c4","60201dea606b8d5e5aa9e528","60201ea75d4be35b32e91ab8","Mozilla/5.0 (Windows NT 10.0; Win64; x64) AppleWebKit/537.36 (KHTML, like Gecko) Chrome/86.0.4240.198 Safari/537.36 OPR/72.0.3815.487","v1-up-stims","","","","","","","","-20,-10,0,10,20","media/audio/stims/spherical_300cm_s20_c1_cd-1_matched_a0.wav","spherical","20","1","1","matched","0","0","1688"
"echo-presentation","91","533470","0.0-91.0","5e582888ad019803dba551c4","60201dea606b8d5e5aa9e528","60201ea75d4be35b32e91ab8","Mozilla/5.0 (Windows NT 10.0; Win64; x64) AppleWebKit/537.36 (KHTML, like Gecko) Chrome/86.0.4240.198 Safari/537.36 OPR/72.0.3815.487","v1-up-stims","","","","","","","","-20,-10,0,10,20","media/audio/stims/spherical_300cm_s20_c1_cd-1_matched_a20.wav","spherical","20","1","1","matched","20","20","1587"
"echo-presentation","92","536585","0.0-92.0","5e582888ad019803dba551c4","60201dea606b8d5e5aa9e528","60201ea75d4be35b32e91ab8","Mozilla/5.0 (Windows NT 10.0; Win64; x64) AppleWebKit/537.36 (KHTML, like Gecko) Chrome/86.0.4240.198 Safari/537.36 OPR/72.0.3815.487","v1-up-stims","","","","","","","","-20,-10,0,10,20","media/audio/stims/spherical_300cm_s20_c1_cd-1_matched_a-10.wav","spherical","20","1","1","matched","-10","-10","2370"
"echo-presentation","93","538685","0.0-93.0","5e582888ad019803dba551c4","60201dea606b8d5e5aa9e528","60201ea75d4be35b32e91ab8","Mozilla/5.0 (Windows NT 10.0; Win64; x64) AppleWebKit/537.36 (KHTML, like Gecko) Chrome/86.0.4240.198 Safari/537.36 OPR/72.0.3815.487","v1-up-stims","","","","","","","","-20,-10,0,10,20","media/audio/stims/spherical_300cm_s20_c1_cd-1_matched_a20.wav","spherical","20","1","1","matched","20","20","1502"
"block-bookend","94","539538","0.0-94.0","5e582888ad019803dba551c4","60201dea606b8d5e5aa9e528","60201ea75d4be35b32e91ab8","Mozilla/5.0 (Windows NT 10.0; Win64; x64) AppleWebKit/537.36 (KHTML, like Gecko) Chrome/86.0.4240.198 Safari/537.36 OPR/72.0.3815.487","v1-up-stims","","","","","","","","","","","","","","","","",""
"block-bookend","95","550433","0.0-95.0","5e582888ad019803dba551c4","60201dea606b8d5e5aa9e528","60201ea75d4be35b32e91ab8","Mozilla/5.0 (Windows NT 10.0; Win64; x64) AppleWebKit/537.36 (KHTML, like Gecko) Chrome/86.0.4240.198 Safari/537.36 OPR/72.0.3815.487","v1-up-stims","","","","","","","","","","","","","","","","",""
"echo-presentation","96","553359","0.0-96.0","5e582888ad019803dba551c4","60201dea606b8d5e5aa9e528","60201ea75d4be35b32e91ab8","Mozilla/5.0 (Windows NT 10.0; Win64; x64) AppleWebKit/537.36 (KHTML, like Gecko) Chrome/86.0.4240.198 Safari/537.36 OPR/72.0.3815.487","v1-up-stims","","","","","","","","40,50,60,70,80","media/audio/stims/spherical_300cm_s20_c1_cd-1_matched_a60.wav","spherical","20","1","1","matched","60","80","1352"
"echo-presentation","97","556021","0.0-97.0","5e582888ad019803dba551c4","60201dea606b8d5e5aa9e528","60201ea75d4be35b32e91ab8","Mozilla/5.0 (Windows NT 10.0; Win64; x64) AppleWebKit/537.36 (KHTML, like Gecko) Chrome/86.0.4240.198 Safari/537.36 OPR/72.0.3815.487","v1-up-stims","","","","","","","","40,50,60,70,80","media/audio/stims/spherical_300cm_s20_c1_cd-1_matched_a80.wav","spherical","20","1","1","matched","80","60","1206"
"echo-presentation","98","558493","0.0-98.0","5e582888ad019803dba551c4","60201dea606b8d5e5aa9e528","60201ea75d4be35b32e91ab8","Mozilla/5.0 (Windows NT 10.0; Win64; x64) AppleWebKit/537.36 (KHTML, like Gecko) Chrome/86.0.4240.198 Safari/537.36 OPR/72.0.3815.487","v1-up-stims","","","","","","","","40,50,60,70,80","media/audio/stims/spherical_300cm_s20_c1_cd-1_matched_a70.wav","spherical","20","1","1","matched","70","80","1347"
"echo-presentation","99","561326","0.0-99.0","5e582888ad019803dba551c4","60201dea606b8d5e5aa9e528","60201ea75d4be35b32e91ab8","Mozilla/5.0 (Windows NT 10.0; Win64; x64) AppleWebKit/537.36 (KHTML, like Gecko) Chrome/86.0.4240.198 Safari/537.36 OPR/72.0.3815.487","v1-up-stims","","","","","","","","40,50,60,70,80","media/audio/stims/spherical_300cm_s20_c1_cd-1_matched_a80.wav","spherical","20","1","1","matched","80","80","2025"
"echo-presentation","100","565141","0.0-100.0","5e582888ad019803dba551c4","60201dea606b8d5e5aa9e528","60201ea75d4be35b32e91ab8","Mozilla/5.0 (Windows NT 10.0; Win64; x64) AppleWebKit/537.36 (KHTML, like Gecko) Chrome/86.0.4240.198 Safari/537.36 OPR/72.0.3815.487","v1-up-stims","","","","","","","","40,50,60,70,80","media/audio/stims/spherical_300cm_s20_c1_cd-1_matched_a50.wav","spherical","20","1","1","matched","50","40","2987"
"echo-presentation","101","567311","0.0-101.0","5e582888ad019803dba551c4","60201dea606b8d5e5aa9e528","60201ea75d4be35b32e91ab8","Mozilla/5.0 (Windows NT 10.0; Win64; x64) AppleWebKit/537.36 (KHTML, like Gecko) Chrome/86.0.4240.198 Safari/537.36 OPR/72.0.3815.487","v1-up-stims","","","","","","","","40,50,60,70,80","media/audio/stims/spherical_300cm_s20_c1_cd-1_matched_a60.wav","spherical","20","1","1","matched","60","80","1050"
"echo-presentation","102","569312","0.0-102.0","5e582888ad019803dba551c4","60201dea606b8d5e5aa9e528","60201ea75d4be35b32e91ab8","Mozilla/5.0 (Windows NT 10.0; Win64; x64) AppleWebKit/537.36 (KHTML, like Gecko) Chrome/86.0.4240.198 Safari/537.36 OPR/72.0.3815.487","v1-up-stims","","","","","","","","40,50,60,70,80","media/audio/stims/spherical_300cm_s20_c1_cd-1_matched_a50.wav","spherical","20","1","1","matched","50","80","1161"
"echo-presentation","103","571588","0.0-103.0","5e582888ad019803dba551c4","60201dea606b8d5e5aa9e528","60201ea75d4be35b32e91ab8","Mozilla/5.0 (Windows NT 10.0; Win64; x64) AppleWebKit/537.36 (KHTML, like Gecko) Chrome/86.0.4240.198 Safari/537.36 OPR/72.0.3815.487","v1-up-stims","","","","","","","","40,50,60,70,80","media/audio/stims/spherical_300cm_s20_c1_cd-1_matched_a70.wav","spherical","20","1","1","matched","70","60","1437"
"echo-presentation","104","573514","0.0-104.0","5e582888ad019803dba551c4","60201dea606b8d5e5aa9e528","60201ea75d4be35b32e91ab8","Mozilla/5.0 (Windows NT 10.0; Win64; x64) AppleWebKit/537.36 (KHTML, like Gecko) Chrome/86.0.4240.198 Safari/537.36 OPR/72.0.3815.487","v1-up-stims","","","","","","","","40,50,60,70,80","media/audio/stims/spherical_300cm_s20_c1_cd-1_matched_a40.wav","spherical","20","1","1","matched","40","60","1161"
"echo-presentation","105","575576","0.0-105.0","5e582888ad019803dba551c4","60201dea606b8d5e5aa9e528","60201ea75d4be35b32e91ab8","Mozilla/5.0 (Windows NT 10.0; Win64; x64) AppleWebKit/537.36 (KHTML, like Gecko) Chrome/86.0.4240.198 Safari/537.36 OPR/72.0.3815.487","v1-up-stims","","","","","","","","40,50,60,70,80","media/audio/stims/spherical_300cm_s20_c1_cd-1_matched_a50.wav","spherical","20","1","1","matched","50","50","1252"
"echo-presentation","106","578828","0.0-106.0","5e582888ad019803dba551c4","60201dea606b8d5e5aa9e528","60201ea75d4be35b32e91ab8","Mozilla/5.0 (Windows NT 10.0; Win64; x64) AppleWebKit/537.36 (KHTML, like Gecko) Chrome/86.0.4240.198 Safari/537.36 OPR/72.0.3815.487","v1-up-stims","","","","","","","","40,50,60,70,80","media/audio/stims/spherical_300cm_s20_c1_cd-1_matched_a70.wav","spherical","20","1","1","matched","70","80","2414"
"echo-presentation","107","580563","0.0-107.0","5e582888ad019803dba551c4","60201dea606b8d5e5aa9e528","60201ea75d4be35b32e91ab8","Mozilla/5.0 (Windows NT 10.0; Win64; x64) AppleWebKit/537.36 (KHTML, like Gecko) Chrome/86.0.4240.198 Safari/537.36 OPR/72.0.3815.487","v1-up-stims","","","","","","","","40,50,60,70,80","media/audio/stims/spherical_300cm_s20_c1_cd-1_matched_a40.wav","spherical","20","1","1","matched","40","80","877"
"echo-presentation","108","582378","0.0-108.0","5e582888ad019803dba551c4","60201dea606b8d5e5aa9e528","60201ea75d4be35b32e91ab8","Mozilla/5.0 (Windows NT 10.0; Win64; x64) AppleWebKit/537.36 (KHTML, like Gecko) Chrome/86.0.4240.198 Safari/537.36 OPR/72.0.3815.487","v1-up-stims","","","","","","","","40,50,60,70,80","media/audio/stims/spherical_300cm_s20_c1_cd-1_matched_a40.wav","spherical","20","1","1","matched","40","80","941"
"echo-presentation","109","585035","0.0-109.0","5e582888ad019803dba551c4","60201dea606b8d5e5aa9e528","60201ea75d4be35b32e91ab8","Mozilla/5.0 (Windows NT 10.0; Win64; x64) AppleWebKit/537.36 (KHTML, like Gecko) Chrome/86.0.4240.198 Safari/537.36 OPR/72.0.3815.487","v1-up-stims","","","","","","","","40,50,60,70,80","media/audio/stims/spherical_300cm_s20_c1_cd-1_matched_a80.wav","spherical","20","1","1","matched","80","50","1855"
"echo-presentation","110","587598","0.0-110.0","5e582888ad019803dba551c4","60201dea606b8d5e5aa9e528","60201ea75d4be35b32e91ab8","Mozilla/5.0 (Windows NT 10.0; Win64; x64) AppleWebKit/537.36 (KHTML, like Gecko) Chrome/86.0.4240.198 Safari/537.36 OPR/72.0.3815.487","v1-up-stims","","","","","","","","40,50,60,70,80","media/audio/stims/spherical_300cm_s20_c1_cd-1_matched_a50.wav","spherical","20","1","1","matched","50","80","1267"
"echo-presentation","111","589817","0.0-111.0","5e582888ad019803dba551c4","60201dea606b8d5e5aa9e528","60201ea75d4be35b32e91ab8","Mozilla/5.0 (Windows NT 10.0; Win64; x64) AppleWebKit/537.36 (KHTML, like Gecko) Chrome/86.0.4240.198 Safari/537.36 OPR/72.0.3815.487","v1-up-stims","","","","","","","","40,50,60,70,80","media/audio/stims/spherical_300cm_s20_c1_cd-1_matched_a60.wav","spherical","20","1","1","matched","60","80","1433"
"echo-presentation","112","591817","0.0-112.0","5e582888ad019803dba551c4","60201dea606b8d5e5aa9e528","60201ea75d4be35b32e91ab8","Mozilla/5.0 (Windows NT 10.0; Win64; x64) AppleWebKit/537.36 (KHTML, like Gecko) Chrome/86.0.4240.198 Safari/537.36 OPR/72.0.3815.487","v1-up-stims","","","","","","","","40,50,60,70,80","media/audio/stims/spherical_300cm_s20_c1_cd-1_matched_a40.wav","spherical","20","1","1","matched","40","80","1151"
"echo-presentation","113","594329","0.0-113.0","5e582888ad019803dba551c4","60201dea606b8d5e5aa9e528","60201ea75d4be35b32e91ab8","Mozilla/5.0 (Windows NT 10.0; Win64; x64) AppleWebKit/537.36 (KHTML, like Gecko) Chrome/86.0.4240.198 Safari/537.36 OPR/72.0.3815.487","v1-up-stims","","","","","","","","40,50,60,70,80","media/audio/stims/spherical_300cm_s20_c1_cd-1_matched_a70.wav","spherical","20","1","1","matched","70","80","1396"
"echo-presentation","114","597273","0.0-114.0","5e582888ad019803dba551c4","60201dea606b8d5e5aa9e528","60201ea75d4be35b32e91ab8","Mozilla/5.0 (Windows NT 10.0; Win64; x64) AppleWebKit/537.36 (KHTML, like Gecko) Chrome/86.0.4240.198 Safari/537.36 OPR/72.0.3815.487","v1-up-stims","","","","","","","","40,50,60,70,80","media/audio/stims/spherical_300cm_s20_c1_cd-1_matched_a60.wav","spherical","20","1","1","matched","60","70","1983"
"echo-presentation","115","600236","0.0-115.0","5e582888ad019803dba551c4","60201dea606b8d5e5aa9e528","60201ea75d4be35b32e91ab8","Mozilla/5.0 (Windows NT 10.0; Win64; x64) AppleWebKit/537.36 (KHTML, like Gecko) Chrome/86.0.4240.198 Safari/537.36 OPR/72.0.3815.487","v1-up-stims","","","","","","","","40,50,60,70,80","media/audio/stims/spherical_300cm_s20_c1_cd-1_matched_a80.wav","spherical","20","1","1","matched","80","80","1733"
"block-bookend","116","601695","0.0-116.0","5e582888ad019803dba551c4","60201dea606b8d5e5aa9e528","60201ea75d4be35b32e91ab8","Mozilla/5.0 (Windows NT 10.0; Win64; x64) AppleWebKit/537.36 (KHTML, like Gecko) Chrome/86.0.4240.198 Safari/537.36 OPR/72.0.3815.487","v1-up-stims","","","","","","","","","","","","","","","","",""
"block-bookend","117","605711","0.0-117.0","5e582888ad019803dba551c4","60201dea606b8d5e5aa9e528","60201ea75d4be35b32e91ab8","Mozilla/5.0 (Windows NT 10.0; Win64; x64) AppleWebKit/537.36 (KHTML, like Gecko) Chrome/86.0.4240.198 Safari/537.36 OPR/72.0.3815.487","v1-up-stims","","","","","","","","","","","","","","","","",""
"echo-presentation","118","608437","0.0-118.0","5e582888ad019803dba551c4","60201dea606b8d5e5aa9e528","60201ea75d4be35b32e91ab8","Mozilla/5.0 (Windows NT 10.0; Win64; x64) AppleWebKit/537.36 (KHTML, like Gecko) Chrome/86.0.4240.198 Safari/537.36 OPR/72.0.3815.487","v1-up-stims","","","","","","","","40,50,60,70,80","media/audio/stims/spherical_300cm_s20_c1_cd-1_matched_a80.wav","spherical","20","1","1","matched","80","40","1498"
"echo-presentation","119","611185","0.0-119.0","5e582888ad019803dba551c4","60201dea606b8d5e5aa9e528","60201ea75d4be35b32e91ab8","Mozilla/5.0 (Windows NT 10.0; Win64; x64) AppleWebKit/537.36 (KHTML, like Gecko) Chrome/86.0.4240.198 Safari/537.36 OPR/72.0.3815.487","v1-up-stims","","","","","","","","40,50,60,70,80","media/audio/stims/spherical_300cm_s20_c1_cd-1_matched_a80.wav","spherical","20","1","1","matched","80","70","1652"
"echo-presentation","120","613216","0.0-120.0","5e582888ad019803dba551c4","60201dea606b8d5e5aa9e528","60201ea75d4be35b32e91ab8","Mozilla/5.0 (Windows NT 10.0; Win64; x64) AppleWebKit/537.36 (KHTML, like Gecko) Chrome/86.0.4240.198 Safari/537.36 OPR/72.0.3815.487","v1-up-stims","","","","","","","","40,50,60,70,80","media/audio/stims/spherical_300cm_s20_c1_cd-1_matched_a80.wav","spherical","20","1","1","matched","80","70","1267"
"echo-presentation","121","615196","0.0-121.0","5e582888ad019803dba551c4","60201dea606b8d5e5aa9e528","60201ea75d4be35b32e91ab8","Mozilla/5.0 (Windows NT 10.0; Win64; x64) AppleWebKit/537.36 (KHTML, like Gecko) Chrome/86.0.4240.198 Safari/537.36 OPR/72.0.3815.487","v1-up-stims","","","","","","","","40,50,60,70,80","media/audio/stims/spherical_300cm_s20_c1_cd-1_matched_a60.wav","spherical","20","1","1","matched","60","80","1096"
"echo-presentation","122","617869","0.0-122.0","5e582888ad019803dba551c4","60201dea606b8d5e5aa9e528","60201ea75d4be35b32e91ab8","Mozilla/5.0 (Windows NT 10.0; Win64; x64) AppleWebKit/537.36 (KHTML, like Gecko) Chrome/86.0.4240.198 Safari/537.36 OPR/72.0.3815.487","v1-up-stims","","","","","","","","40,50,60,70,80","media/audio/stims/spherical_300cm_s20_c1_cd-1_matched_a50.wav","spherical","20","1","1","matched","50","60","1753"
"echo-presentation","123","620611","0.0-123.0","5e582888ad019803dba551c4","60201dea606b8d5e5aa9e528","60201ea75d4be35b32e91ab8","Mozilla/5.0 (Windows NT 10.0; Win64; x64) AppleWebKit/537.36 (KHTML, like Gecko) Chrome/86.0.4240.198 Safari/537.36 OPR/72.0.3815.487","v1-up-stims","","","","","","","","40,50,60,70,80","media/audio/stims/spherical_300cm_s20_c1_cd-1_matched_a60.wav","spherical","20","1","1","matched","60","70","1944"
"echo-presentation","124","622997","0.0-124.0","5e582888ad019803dba551c4","60201dea606b8d5e5aa9e528","60201ea75d4be35b32e91ab8","Mozilla/5.0 (Windows NT 10.0; Win64; x64) AppleWebKit/537.36 (KHTML, like Gecko) Chrome/86.0.4240.198 Safari/537.36 OPR/72.0.3815.487","v1-up-stims","","","","","","","","40,50,60,70,80","media/audio/stims/spherical_300cm_s20_c1_cd-1_matched_a40.wav","spherical","20","1","1","matched","40","70","1598"
"echo-presentation","125","625034","0.0-125.0","5e582888ad019803dba551c4","60201dea606b8d5e5aa9e528","60201ea75d4be35b32e91ab8","Mozilla/5.0 (Windows NT 10.0; Win64; x64) AppleWebKit/537.36 (KHTML, like Gecko) Chrome/86.0.4240.198 Safari/537.36 OPR/72.0.3815.487","v1-up-stims","","","","","","","","40,50,60,70,80","media/audio/stims/spherical_300cm_s20_c1_cd-1_matched_a40.wav","spherical","20","1","1","matched","40","70","1251"
"echo-presentation","126","627624","0.0-126.0","5e582888ad019803dba551c4","60201dea606b8d5e5aa9e528","60201ea75d4be35b32e91ab8","Mozilla/5.0 (Windows NT 10.0; Win64; x64) AppleWebKit/537.36 (KHTML, like Gecko) Chrome/86.0.4240.198 Safari/537.36 OPR/72.0.3815.487","v1-up-stims","","","","","","","","40,50,60,70,80","media/audio/stims/spherical_300cm_s20_c1_cd-1_matched_a70.wav","spherical","20","1","1","matched","70","70","1793"
"echo-presentation","127","629705","0.0-127.0","5e582888ad019803dba551c4","60201dea606b8d5e5aa9e528","60201ea75d4be35b32e91ab8","Mozilla/5.0 (Windows NT 10.0; Win64; x64) AppleWebKit/537.36 (KHTML, like Gecko) Chrome/86.0.4240.198 Safari/537.36 OPR/72.0.3815.487","v1-up-stims","","","","","","","","40,50,60,70,80","media/audio/stims/spherical_300cm_s20_c1_cd-1_matched_a50.wav","spherical","20","1","1","matched","50","70","1276"
"echo-presentation","128","631666","0.0-128.0","5e582888ad019803dba551c4","60201dea606b8d5e5aa9e528","60201ea75d4be35b32e91ab8","Mozilla/5.0 (Windows NT 10.0; Win64; x64) AppleWebKit/537.36 (KHTML, like Gecko) Chrome/86.0.4240.198 Safari/537.36 OPR/72.0.3815.487","v1-up-stims","","","","","","","","40,50,60,70,80","media/audio/stims/spherical_300cm_s20_c1_cd-1_matched_a60.wav","spherical","20","1","1","matched","60","70","1137"
"echo-presentation","129","634028","0.0-129.0","5e582888ad019803dba551c4","60201dea606b8d5e5aa9e528","60201ea75d4be35b32e91ab8","Mozilla/5.0 (Windows NT 10.0; Win64; x64) AppleWebKit/537.36 (KHTML, like Gecko) Chrome/86.0.4240.198 Safari/537.36 OPR/72.0.3815.487","v1-up-stims","","","","","","","","40,50,60,70,80","media/audio/stims/spherical_300cm_s20_c1_cd-1_matched_a60.wav","spherical","20","1","1","matched","60","70","1563"
"echo-presentation","130","635822","0.0-130.0","5e582888ad019803dba551c4","60201dea606b8d5e5aa9e528","60201ea75d4be35b32e91ab8","Mozilla/5.0 (Windows NT 10.0; Win64; x64) AppleWebKit/537.36 (KHTML, like Gecko) Chrome/86.0.4240.198 Safari/537.36 OPR/72.0.3815.487","v1-up-stims","","","","","","","","40,50,60,70,80","media/audio/stims/spherical_300cm_s20_c1_cd-1_matched_a80.wav","spherical","20","1","1","matched","80","80","967"
"echo-presentation","131","637743","0.0-131.0","5e582888ad019803dba551c4","60201dea606b8d5e5aa9e528","60201ea75d4be35b32e91ab8","Mozilla/5.0 (Windows NT 10.0; Win64; x64) AppleWebKit/537.36 (KHTML, like Gecko) Chrome/86.0.4240.198 Safari/537.36 OPR/72.0.3815.487","v1-up-stims","","","","","","","","40,50,60,70,80","media/audio/stims/spherical_300cm_s20_c1_cd-1_matched_a40.wav","spherical","20","1","1","matched","40","80","1102"
"echo-presentation","132","640581","0.0-132.0","5e582888ad019803dba551c4","60201dea606b8d5e5aa9e528","60201ea75d4be35b32e91ab8","Mozilla/5.0 (Windows NT 10.0; Win64; x64) AppleWebKit/537.36 (KHTML, like Gecko) Chrome/86.0.4240.198 Safari/537.36 OPR/72.0.3815.487","v1-up-stims","","","","","","","","40,50,60,70,80","media/audio/stims/spherical_300cm_s20_c1_cd-1_matched_a40.wav","spherical","20","1","1","matched","40","60","1783"
"echo-presentation","133","642740","0.0-133.0","5e582888ad019803dba551c4","60201dea606b8d5e5aa9e528","60201ea75d4be35b32e91ab8","Mozilla/5.0 (Windows NT 10.0; Win64; x64) AppleWebKit/537.36 (KHTML, like Gecko) Chrome/86.0.4240.198 Safari/537.36 OPR/72.0.3815.487","v1-up-stims","","","","","","","","40,50,60,70,80","media/audio/stims/spherical_300cm_s20_c1_cd-1_matched_a70.wav","spherical","20","1","1","matched","70","80","1251"
"echo-presentation","134","644733","0.0-134.0","5e582888ad019803dba551c4","60201dea606b8d5e5aa9e528","60201ea75d4be35b32e91ab8","Mozilla/5.0 (Windows NT 10.0; Win64; x64) AppleWebKit/537.36 (KHTML, like Gecko) Chrome/86.0.4240.198 Safari/537.36 OPR/72.0.3815.487","v1-up-stims","","","","","","","","40,50,60,70,80","media/audio/stims/spherical_300cm_s20_c1_cd-1_matched_a70.wav","spherical","20","1","1","matched","70","80","1151"
"echo-presentation","135","646430","0.0-135.0","5e582888ad019803dba551c4","60201dea606b8d5e5aa9e528","60201ea75d4be35b32e91ab8","Mozilla/5.0 (Windows NT 10.0; Win64; x64) AppleWebKit/537.36 (KHTML, like Gecko) Chrome/86.0.4240.198 Safari/537.36 OPR/72.0.3815.487","v1-up-stims","","","","","","","","40,50,60,70,80","media/audio/stims/spherical_300cm_s20_c1_cd-1_matched_a70.wav","spherical","20","1","1","matched","70","80","885"
"echo-presentation","136","648431","0.0-136.0","5e582888ad019803dba551c4","60201dea606b8d5e5aa9e528","60201ea75d4be35b32e91ab8","Mozilla/5.0 (Windows NT 10.0; Win64; x64) AppleWebKit/537.36 (KHTML, like Gecko) Chrome/86.0.4240.198 Safari/537.36 OPR/72.0.3815.487","v1-up-stims","","","","","","","","40,50,60,70,80","media/audio/stims/spherical_300cm_s20_c1_cd-1_matched_a50.wav","spherical","20","1","1","matched","50","80","962"
"echo-presentation","137","650442","0.0-137.0","5e582888ad019803dba551c4","60201dea606b8d5e5aa9e528","60201ea75d4be35b32e91ab8","Mozilla/5.0 (Windows NT 10.0; Win64; x64) AppleWebKit/537.36 (KHTML, like Gecko) Chrome/86.0.4240.198 Safari/537.36 OPR/72.0.3815.487","v1-up-stims","","","","","","","","40,50,60,70,80","media/audio/stims/spherical_300cm_s20_c1_cd-1_matched_a50.wav","spherical","20","1","1","matched","50","80","1067"
"block-bookend","138","651971","0.0-138.0","5e582888ad019803dba551c4","60201dea606b8d5e5aa9e528","60201ea75d4be35b32e91ab8","Mozilla/5.0 (Windows NT 10.0; Win64; x64) AppleWebKit/537.36 (KHTML, like Gecko) Chrome/86.0.4240.198 Safari/537.36 OPR/72.0.3815.487","v1-up-stims","","","","","","","","","","","","","","","","",""
