"trial_type","trial_index","time_elapsed","internal_node_id","prolificPid","studyId","sessionId","userAgent","version","rt","stimulus","key_press","chosenKeyset","failureCount","testIndex","globalVolume","choices","filename","modelName","slowdown","compensation","compensationDescriptor","receiverOrientationType","azimuth","responseAzimuth","responseDelay"
"pavlovia","0","2","0.0-0.0","5fce97c19dbaef11cb9b5600","5fef55e628823a0076ec12ee","601f446b20dda846d6753ad5","Mozilla/5.0 (Windows NT 10.0; Win64; x64) AppleWebKit/537.36 (KHTML, like Gecko) Chrome/88.0.4324.150 Safari/537.36","v1","","","","","","","","","","","","","","","","",""
"html-keyboard-response","1","13788","0.0-1.0","5fce97c19dbaef11cb9b5600","5fef55e628823a0076ec12ee","601f446b20dda846d6753ad5","Mozilla/5.0 (Windows NT 10.0; Win64; x64) AppleWebKit/537.36 (KHTML, like Gecko) Chrome/88.0.4324.150 Safari/537.36","v1","13785.594999993918","<div><h1>Welcome!</h1><p>Press any key to continue.</p></div>","32","","","","","","","","","","","","","",""
"consent-form","2","47036","0.0-2.0","5fce97c19dbaef11cb9b5600","5fef55e628823a0076ec12ee","601f446b20dda846d6753ad5","Mozilla/5.0 (Windows NT 10.0; Win64; x64) AppleWebKit/537.36 (KHTML, like Gecko) Chrome/88.0.4324.150 Safari/537.36","v1","","","","","","","","","","","","","","","","",""
"keyset-select","3","75774","0.0-3.0","5fce97c19dbaef11cb9b5600","5fef55e628823a0076ec12ee","601f446b20dda846d6753ad5","Mozilla/5.0 (Windows NT 10.0; Win64; x64) AppleWebKit/537.36 (KHTML, like Gecko) Chrome/88.0.4324.150 Safari/537.36","v1","","","","left-hand","","","","","","","","","","","","",""
"headphone-check","4","133830","0.0-4.0","5fce97c19dbaef11cb9b5600","5fef55e628823a0076ec12ee","601f446b20dda846d6753ad5","Mozilla/5.0 (Windows NT 10.0; Win64; x64) AppleWebKit/537.36 (KHTML, like Gecko) Chrome/88.0.4324.150 Safari/537.36","v1","","","","","0","6","0.3","","","","","","","","","",""
"headphone-backwards-check","5","142427","0.0-5.0","5fce97c19dbaef11cb9b5600","5fef55e628823a0076ec12ee","601f446b20dda846d6753ad5","Mozilla/5.0 (Windows NT 10.0; Win64; x64) AppleWebKit/537.36 (KHTML, like Gecko) Chrome/88.0.4324.150 Safari/537.36","v1","","","","","0","","","","","","","","","","","",""
"training","6","236044","0.0-6.0","5fce97c19dbaef11cb9b5600","5fef55e628823a0076ec12ee","601f446b20dda846d6753ad5","Mozilla/5.0 (Windows NT 10.0; Win64; x64) AppleWebKit/537.36 (KHTML, like Gecko) Chrome/88.0.4324.150 Safari/537.36","v1","","","","","","","","","","","","","","","","",""
"block-bookend","7","253956","0.0-7.0","5fce97c19dbaef11cb9b5600","5fef55e628823a0076ec12ee","601f446b20dda846d6753ad5","Mozilla/5.0 (Windows NT 10.0; Win64; x64) AppleWebKit/537.36 (KHTML, like Gecko) Chrome/88.0.4324.150 Safari/537.36","v1","","","","","","","","","","","","","","","","",""
"echo-presentation","8","261012","0.0-8.0","5fce97c19dbaef11cb9b5600","5fef55e628823a0076ec12ee","601f446b20dda846d6753ad5","Mozilla/5.0 (Windows NT 10.0; Win64; x64) AppleWebKit/537.36 (KHTML, like Gecko) Chrome/88.0.4324.150 Safari/537.36","v1","","","","","","","","40,50,60,70,80","media/audio/stims/spherical_300cm_s20_c20_cd-full_matched_a50.wav","spherical","20","20","full","matched","50","50","3846"
"echo-presentation","9","265409","0.0-9.0","5fce97c19dbaef11cb9b5600","5fef55e628823a0076ec12ee","601f446b20dda846d6753ad5","Mozilla/5.0 (Windows NT 10.0; Win64; x64) AppleWebKit/537.36 (KHTML, like Gecko) Chrome/88.0.4324.150 Safari/537.36","v1","","","","","","","","40,50,60,70,80","media/audio/stims/spherical_300cm_s20_c20_cd-full_matched_a40.wav","spherical","20","20","full","matched","40","80","3007"
"echo-presentation","10","270499","0.0-10.0","5fce97c19dbaef11cb9b5600","5fef55e628823a0076ec12ee","601f446b20dda846d6753ad5","Mozilla/5.0 (Windows NT 10.0; Win64; x64) AppleWebKit/537.36 (KHTML, like Gecko) Chrome/88.0.4324.150 Safari/537.36","v1","","","","","","","","40,50,60,70,80","media/audio/stims/spherical_300cm_s20_c20_cd-full_matched_a50.wav","spherical","20","20","full","matched","50","60","3310"
"echo-presentation","11","273801","0.0-11.0","5fce97c19dbaef11cb9b5600","5fef55e628823a0076ec12ee","601f446b20dda846d6753ad5","Mozilla/5.0 (Windows NT 10.0; Win64; x64) AppleWebKit/537.36 (KHTML, like Gecko) Chrome/88.0.4324.150 Safari/537.36","v1","","","","","","","","40,50,60,70,80","media/audio/stims/spherical_300cm_s20_c20_cd-full_matched_a50.wav","spherical","20","20","full","matched","50","70","2030"
"echo-presentation","12","277073","0.0-12.0","5fce97c19dbaef11cb9b5600","5fef55e628823a0076ec12ee","601f446b20dda846d6753ad5","Mozilla/5.0 (Windows NT 10.0; Win64; x64) AppleWebKit/537.36 (KHTML, like Gecko) Chrome/88.0.4324.150 Safari/537.36","v1","","","","","","","","40,50,60,70,80","media/audio/stims/spherical_300cm_s20_c20_cd-full_matched_a70.wav","spherical","20","20","full","matched","70","40","2151"
"echo-presentation","13","282897","0.0-13.0","5fce97c19dbaef11cb9b5600","5fef55e628823a0076ec12ee","601f446b20dda846d6753ad5","Mozilla/5.0 (Windows NT 10.0; Win64; x64) AppleWebKit/537.36 (KHTML, like Gecko) Chrome/88.0.4324.150 Safari/537.36","v1","","","","","","","","40,50,60,70,80","media/audio/stims/spherical_300cm_s20_c20_cd-full_matched_a40.wav","spherical","20","20","full","matched","40","70","4679"
"echo-presentation","14","287489","0.0-14.0","5fce97c19dbaef11cb9b5600","5fef55e628823a0076ec12ee","601f446b20dda846d6753ad5","Mozilla/5.0 (Windows NT 10.0; Win64; x64) AppleWebKit/537.36 (KHTML, like Gecko) Chrome/88.0.4324.150 Safari/537.36","v1","","","","","","","","40,50,60,70,80","media/audio/stims/spherical_300cm_s20_c20_cd-full_matched_a50.wav","spherical","20","20","full","matched","50","60","3527"
"echo-presentation","15","291139","0.0-15.0","5fce97c19dbaef11cb9b5600","5fef55e628823a0076ec12ee","601f446b20dda846d6753ad5","Mozilla/5.0 (Windows NT 10.0; Win64; x64) AppleWebKit/537.36 (KHTML, like Gecko) Chrome/88.0.4324.150 Safari/537.36","v1","","","","","","","","40,50,60,70,80","media/audio/stims/spherical_300cm_s20_c20_cd-full_matched_a60.wav","spherical","20","20","full","matched","60","40","2486"
"echo-presentation","16","294489","0.0-16.0","5fce97c19dbaef11cb9b5600","5fef55e628823a0076ec12ee","601f446b20dda846d6753ad5","Mozilla/5.0 (Windows NT 10.0; Win64; x64) AppleWebKit/537.36 (KHTML, like Gecko) Chrome/88.0.4324.150 Safari/537.36","v1","","","","","","","","40,50,60,70,80","media/audio/stims/spherical_300cm_s20_c20_cd-full_matched_a80.wav","spherical","20","20","full","matched","80","50","2341"
"echo-presentation","17","297440","0.0-17.0","5fce97c19dbaef11cb9b5600","5fef55e628823a0076ec12ee","601f446b20dda846d6753ad5","Mozilla/5.0 (Windows NT 10.0; Win64; x64) AppleWebKit/537.36 (KHTML, like Gecko) Chrome/88.0.4324.150 Safari/537.36","v1","","","","","","","","40,50,60,70,80","media/audio/stims/spherical_300cm_s20_c20_cd-full_matched_a40.wav","spherical","20","20","full","matched","40","60","1711"
"echo-presentation","18","300153","0.0-18.0","5fce97c19dbaef11cb9b5600","5fef55e628823a0076ec12ee","601f446b20dda846d6753ad5","Mozilla/5.0 (Windows NT 10.0; Win64; x64) AppleWebKit/537.36 (KHTML, like Gecko) Chrome/88.0.4324.150 Safari/537.36","v1","","","","","","","","40,50,60,70,80","media/audio/stims/spherical_300cm_s20_c20_cd-full_matched_a40.wav","spherical","20","20","full","matched","40","80","1670"
"echo-presentation","19","307664","0.0-19.0","5fce97c19dbaef11cb9b5600","5fef55e628823a0076ec12ee","601f446b20dda846d6753ad5","Mozilla/5.0 (Windows NT 10.0; Win64; x64) AppleWebKit/537.36 (KHTML, like Gecko) Chrome/88.0.4324.150 Safari/537.36","v1","","","","","","","","40,50,60,70,80","media/audio/stims/spherical_300cm_s20_c20_cd-full_matched_a80.wav","spherical","20","20","full","matched","80","50","6063"
"echo-presentation","20","310824","0.0-20.0","5fce97c19dbaef11cb9b5600","5fef55e628823a0076ec12ee","601f446b20dda846d6753ad5","Mozilla/5.0 (Windows NT 10.0; Win64; x64) AppleWebKit/537.36 (KHTML, like Gecko) Chrome/88.0.4324.150 Safari/537.36","v1","","","","","","","","40,50,60,70,80","media/audio/stims/spherical_300cm_s20_c20_cd-full_matched_a70.wav","spherical","20","20","full","matched","70","40","2102"
"echo-presentation","21","315671","0.0-21.0","5fce97c19dbaef11cb9b5600","5fef55e628823a0076ec12ee","601f446b20dda846d6753ad5","Mozilla/5.0 (Windows NT 10.0; Win64; x64) AppleWebKit/537.36 (KHTML, like Gecko) Chrome/88.0.4324.150 Safari/537.36","v1","","","","","","","","40,50,60,70,80","media/audio/stims/spherical_300cm_s20_c20_cd-full_matched_a60.wav","spherical","20","20","full","matched","60","70","3718"
"echo-presentation","22","320352","0.0-22.0","5fce97c19dbaef11cb9b5600","5fef55e628823a0076ec12ee","601f446b20dda846d6753ad5","Mozilla/5.0 (Windows NT 10.0; Win64; x64) AppleWebKit/537.36 (KHTML, like Gecko) Chrome/88.0.4324.150 Safari/537.36","v1","","","","","","","","40,50,60,70,80","media/audio/stims/spherical_300cm_s20_c20_cd-full_matched_a80.wav","spherical","20","20","full","matched","80","60","2790"
"echo-presentation","23","323879","0.0-23.0","5fce97c19dbaef11cb9b5600","5fef55e628823a0076ec12ee","601f446b20dda846d6753ad5","Mozilla/5.0 (Windows NT 10.0; Win64; x64) AppleWebKit/537.36 (KHTML, like Gecko) Chrome/88.0.4324.150 Safari/537.36","v1","","","","","","","","40,50,60,70,80","media/audio/stims/spherical_300cm_s20_c20_cd-full_matched_a60.wav","spherical","20","20","full","matched","60","70","2486"
"echo-presentation","24","326456","0.0-24.0","5fce97c19dbaef11cb9b5600","5fef55e628823a0076ec12ee","601f446b20dda846d6753ad5","Mozilla/5.0 (Windows NT 10.0; Win64; x64) AppleWebKit/537.36 (KHTML, like Gecko) Chrome/88.0.4324.150 Safari/537.36","v1","","","","","","","","40,50,60,70,80","media/audio/stims/spherical_300cm_s20_c20_cd-full_matched_a60.wav","spherical","20","20","full","matched","60","80","1374"
"echo-presentation","25","329616","0.0-25.0","5fce97c19dbaef11cb9b5600","5fef55e628823a0076ec12ee","601f446b20dda846d6753ad5","Mozilla/5.0 (Windows NT 10.0; Win64; x64) AppleWebKit/537.36 (KHTML, like Gecko) Chrome/88.0.4324.150 Safari/537.36","v1","","","","","","","","40,50,60,70,80","media/audio/stims/spherical_300cm_s20_c20_cd-full_matched_a70.wav","spherical","20","20","full","matched","70","70","1695"
"echo-presentation","26","332376","0.0-26.0","5fce97c19dbaef11cb9b5600","5fef55e628823a0076ec12ee","601f446b20dda846d6753ad5","Mozilla/5.0 (Windows NT 10.0; Win64; x64) AppleWebKit/537.36 (KHTML, like Gecko) Chrome/88.0.4324.150 Safari/537.36","v1","","","","","","","","40,50,60,70,80","media/audio/stims/spherical_300cm_s20_c20_cd-full_matched_a70.wav","spherical","20","20","full","matched","70","60","1669"
"echo-presentation","27","335162","0.0-27.0","5fce97c19dbaef11cb9b5600","5fef55e628823a0076ec12ee","601f446b20dda846d6753ad5","Mozilla/5.0 (Windows NT 10.0; Win64; x64) AppleWebKit/537.36 (KHTML, like Gecko) Chrome/88.0.4324.150 Safari/537.36","v1","","","","","","","","40,50,60,70,80","media/audio/stims/spherical_300cm_s20_c20_cd-full_matched_a80.wav","spherical","20","20","full","matched","80","50","1687"
"block-bookend","28","337315","0.0-28.0","5fce97c19dbaef11cb9b5600","5fef55e628823a0076ec12ee","601f446b20dda846d6753ad5","Mozilla/5.0 (Windows NT 10.0; Win64; x64) AppleWebKit/537.36 (KHTML, like Gecko) Chrome/88.0.4324.150 Safari/537.36","v1","","","","","","","","","","","","","","","","",""
"block-bookend","29","351427","0.0-29.0","5fce97c19dbaef11cb9b5600","5fef55e628823a0076ec12ee","601f446b20dda846d6753ad5","Mozilla/5.0 (Windows NT 10.0; Win64; x64) AppleWebKit/537.36 (KHTML, like Gecko) Chrome/88.0.4324.150 Safari/537.36","v1","","","","","","","","","","","","","","","","",""
"echo-presentation","30","359016","0.0-30.0","5fce97c19dbaef11cb9b5600","5fef55e628823a0076ec12ee","601f446b20dda846d6753ad5","Mozilla/5.0 (Windows NT 10.0; Win64; x64) AppleWebKit/537.36 (KHTML, like Gecko) Chrome/88.0.4324.150 Safari/537.36","v1","","","","","","","","40,50,60,70,80","media/audio/stims/spherical_300cm_s20_c20_cd-full_matched_a80.wav","spherical","20","20","full","matched","80","40","5357"
"echo-presentation","31","361959","0.0-31.0","5fce97c19dbaef11cb9b5600","5fef55e628823a0076ec12ee","601f446b20dda846d6753ad5","Mozilla/5.0 (Windows NT 10.0; Win64; x64) AppleWebKit/537.36 (KHTML, like Gecko) Chrome/88.0.4324.150 Safari/537.36","v1","","","","","","","","40,50,60,70,80","media/audio/stims/spherical_300cm_s20_c20_cd-full_matched_a40.wav","spherical","20","20","full","matched","40","80","1567"
"echo-presentation","32","364688","0.0-32.0","5fce97c19dbaef11cb9b5600","5fef55e628823a0076ec12ee","601f446b20dda846d6753ad5","Mozilla/5.0 (Windows NT 10.0; Win64; x64) AppleWebKit/537.36 (KHTML, like Gecko) Chrome/88.0.4324.150 Safari/537.36","v1","","","","","","","","40,50,60,70,80","media/audio/stims/spherical_300cm_s20_c20_cd-full_matched_a60.wav","spherical","20","20","full","matched","60","80","1703"
"echo-presentation","33","367056","0.0-33.0","5fce97c19dbaef11cb9b5600","5fef55e628823a0076ec12ee","601f446b20dda846d6753ad5","Mozilla/5.0 (Windows NT 10.0; Win64; x64) AppleWebKit/537.36 (KHTML, like Gecko) Chrome/88.0.4324.150 Safari/537.36","v1","","","","","","","","40,50,60,70,80","media/audio/stims/spherical_300cm_s20_c20_cd-full_matched_a70.wav","spherical","20","20","full","matched","70","70","1430"
"echo-presentation","34","369856","0.0-34.0","5fce97c19dbaef11cb9b5600","5fef55e628823a0076ec12ee","601f446b20dda846d6753ad5","Mozilla/5.0 (Windows NT 10.0; Win64; x64) AppleWebKit/537.36 (KHTML, like Gecko) Chrome/88.0.4324.150 Safari/537.36","v1","","","","","","","","40,50,60,70,80","media/audio/stims/spherical_300cm_s20_c20_cd-full_matched_a70.wav","spherical","20","20","full","matched","70","60","1878"
"echo-presentation","35","373153","0.0-35.0","5fce97c19dbaef11cb9b5600","5fef55e628823a0076ec12ee","601f446b20dda846d6753ad5","Mozilla/5.0 (Windows NT 10.0; Win64; x64) AppleWebKit/537.36 (KHTML, like Gecko) Chrome/88.0.4324.150 Safari/537.36","v1","","","","","","","","40,50,60,70,80","media/audio/stims/spherical_300cm_s20_c20_cd-full_matched_a80.wav","spherical","20","20","full","matched","80","70","2182"
"echo-presentation","36","375824","0.0-36.0","5fce97c19dbaef11cb9b5600","5fef55e628823a0076ec12ee","601f446b20dda846d6753ad5","Mozilla/5.0 (Windows NT 10.0; Win64; x64) AppleWebKit/537.36 (KHTML, like Gecko) Chrome/88.0.4324.150 Safari/537.36","v1","","","","","","","","40,50,60,70,80","media/audio/stims/spherical_300cm_s20_c20_cd-full_matched_a60.wav","spherical","20","20","full","matched","60","80","1551"
"echo-presentation","37","378201","0.0-37.0","5fce97c19dbaef11cb9b5600","5fef55e628823a0076ec12ee","601f446b20dda846d6753ad5","Mozilla/5.0 (Windows NT 10.0; Win64; x64) AppleWebKit/537.36 (KHTML, like Gecko) Chrome/88.0.4324.150 Safari/537.36","v1","","","","","","","","40,50,60,70,80","media/audio/stims/spherical_300cm_s20_c20_cd-full_matched_a80.wav","spherical","20","20","full","matched","80","50","1510"
"echo-presentation","38","380913","0.0-38.0","5fce97c19dbaef11cb9b5600","5fef55e628823a0076ec12ee","601f446b20dda846d6753ad5","Mozilla/5.0 (Windows NT 10.0; Win64; x64) AppleWebKit/537.36 (KHTML, like Gecko) Chrome/88.0.4324.150 Safari/537.36","v1","","","","","","","","40,50,60,70,80","media/audio/stims/spherical_300cm_s20_c20_cd-full_matched_a50.wav","spherical","20","20","full","matched","50","80","1518"
"echo-presentation","39","390337","0.0-39.0","5fce97c19dbaef11cb9b5600","5fef55e628823a0076ec12ee","601f446b20dda846d6753ad5","Mozilla/5.0 (Windows NT 10.0; Win64; x64) AppleWebKit/537.36 (KHTML, like Gecko) Chrome/88.0.4324.150 Safari/537.36","v1","","","","","","","","40,50,60,70,80","media/audio/stims/spherical_300cm_s20_c20_cd-full_matched_a40.wav","spherical","20","20","full","matched","40","70","8510"
"echo-presentation","40","399736","0.0-40.0","5fce97c19dbaef11cb9b5600","5fef55e628823a0076ec12ee","601f446b20dda846d6753ad5","Mozilla/5.0 (Windows NT 10.0; Win64; x64) AppleWebKit/537.36 (KHTML, like Gecko) Chrome/88.0.4324.150 Safari/537.36","v1","","","","","","","","40,50,60,70,80","media/audio/stims/spherical_300cm_s20_c20_cd-full_matched_a80.wav","spherical","20","20","full","matched","80","50","8446"
"echo-presentation","41","403761","0.0-41.0","5fce97c19dbaef11cb9b5600","5fef55e628823a0076ec12ee","601f446b20dda846d6753ad5","Mozilla/5.0 (Windows NT 10.0; Win64; x64) AppleWebKit/537.36 (KHTML, like Gecko) Chrome/88.0.4324.150 Safari/537.36","v1","","","","","","","","40,50,60,70,80","media/audio/stims/spherical_300cm_s20_c20_cd-full_matched_a40.wav","spherical","20","20","full","matched","40","80","3070"
"echo-presentation","42","406545","0.0-42.0","5fce97c19dbaef11cb9b5600","5fef55e628823a0076ec12ee","601f446b20dda846d6753ad5","Mozilla/5.0 (Windows NT 10.0; Win64; x64) AppleWebKit/537.36 (KHTML, like Gecko) Chrome/88.0.4324.150 Safari/537.36","v1","","","","","","","","40,50,60,70,80","media/audio/stims/spherical_300cm_s20_c20_cd-full_matched_a50.wav","spherical","20","20","full","matched","50","80","1598"
"echo-presentation","43","410993","0.0-43.0","5fce97c19dbaef11cb9b5600","5fef55e628823a0076ec12ee","601f446b20dda846d6753ad5","Mozilla/5.0 (Windows NT 10.0; Win64; x64) AppleWebKit/537.36 (KHTML, like Gecko) Chrome/88.0.4324.150 Safari/537.36","v1","","","","","","","","40,50,60,70,80","media/audio/stims/spherical_300cm_s20_c20_cd-full_matched_a70.wav","spherical","20","20","full","matched","70","50","3559"
"echo-presentation","44","416713","0.0-44.0","5fce97c19dbaef11cb9b5600","5fef55e628823a0076ec12ee","601f446b20dda846d6753ad5","Mozilla/5.0 (Windows NT 10.0; Win64; x64) AppleWebKit/537.36 (KHTML, like Gecko) Chrome/88.0.4324.150 Safari/537.36","v1","","","","","","","","40,50,60,70,80","media/audio/stims/spherical_300cm_s20_c20_cd-full_matched_a70.wav","spherical","20","20","full","matched","70","70","4144"
"echo-presentation","45","420696","0.0-45.0","5fce97c19dbaef11cb9b5600","5fef55e628823a0076ec12ee","601f446b20dda846d6753ad5","Mozilla/5.0 (Windows NT 10.0; Win64; x64) AppleWebKit/537.36 (KHTML, like Gecko) Chrome/88.0.4324.150 Safari/537.36","v1","","","","","","","","40,50,60,70,80","media/audio/stims/spherical_300cm_s20_c20_cd-full_matched_a60.wav","spherical","20","20","full","matched","60","80","3070"
"echo-presentation","46","423200","0.0-46.0","5fce97c19dbaef11cb9b5600","5fef55e628823a0076ec12ee","601f446b20dda846d6753ad5","Mozilla/5.0 (Windows NT 10.0; Win64; x64) AppleWebKit/537.36 (KHTML, like Gecko) Chrome/88.0.4324.150 Safari/537.36","v1","","","","","","","","40,50,60,70,80","media/audio/stims/spherical_300cm_s20_c20_cd-full_matched_a50.wav","spherical","20","20","full","matched","50","80","1638"
"echo-presentation","47","425586","0.0-47.0","5fce97c19dbaef11cb9b5600","5fef55e628823a0076ec12ee","601f446b20dda846d6753ad5","Mozilla/5.0 (Windows NT 10.0; Win64; x64) AppleWebKit/537.36 (KHTML, like Gecko) Chrome/88.0.4324.150 Safari/537.36","v1","","","","","","","","40,50,60,70,80","media/audio/stims/spherical_300cm_s20_c20_cd-full_matched_a60.wav","spherical","20","20","full","matched","60","60","1526"
"echo-presentation","48","428072","0.0-48.0","5fce97c19dbaef11cb9b5600","5fef55e628823a0076ec12ee","601f446b20dda846d6753ad5","Mozilla/5.0 (Windows NT 10.0; Win64; x64) AppleWebKit/537.36 (KHTML, like Gecko) Chrome/88.0.4324.150 Safari/537.36","v1","","","","","","","","40,50,60,70,80","media/audio/stims/spherical_300cm_s20_c20_cd-full_matched_a50.wav","spherical","20","20","full","matched","50","70","1566"
"echo-presentation","49","431312","0.0-49.0","5fce97c19dbaef11cb9b5600","5fef55e628823a0076ec12ee","601f446b20dda846d6753ad5","Mozilla/5.0 (Windows NT 10.0; Win64; x64) AppleWebKit/537.36 (KHTML, like Gecko) Chrome/88.0.4324.150 Safari/537.36","v1","","","","","","","","40,50,60,70,80","media/audio/stims/spherical_300cm_s20_c20_cd-full_matched_a40.wav","spherical","20","20","full","matched","40","50","2126"
"block-bookend","50","432676","0.0-50.0","5fce97c19dbaef11cb9b5600","5fef55e628823a0076ec12ee","601f446b20dda846d6753ad5","Mozilla/5.0 (Windows NT 10.0; Win64; x64) AppleWebKit/537.36 (KHTML, like Gecko) Chrome/88.0.4324.150 Safari/537.36","v1","","","","","","","","","","","","","","","","",""
"block-bookend","51","446580","0.0-51.0","5fce97c19dbaef11cb9b5600","5fef55e628823a0076ec12ee","601f446b20dda846d6753ad5","Mozilla/5.0 (Windows NT 10.0; Win64; x64) AppleWebKit/537.36 (KHTML, like Gecko) Chrome/88.0.4324.150 Safari/537.36","v1","","","","","","","","","","","","","","","","",""
"echo-presentation","52","453024","0.0-52.0","5fce97c19dbaef11cb9b5600","5fef55e628823a0076ec12ee","601f446b20dda846d6753ad5","Mozilla/5.0 (Windows NT 10.0; Win64; x64) AppleWebKit/537.36 (KHTML, like Gecko) Chrome/88.0.4324.150 Safari/537.36","v1","","","","","","","","-80,-70,-60,-50,-40","media/audio/stims/spherical_300cm_s20_c20_cd-full_matched_a-80.wav","spherical","20","20","full","matched","-80","-70","3598"
"echo-presentation","53","457344","0.0-53.0","5fce97c19dbaef11cb9b5600","5fef55e628823a0076ec12ee","601f446b20dda846d6753ad5","Mozilla/5.0 (Windows NT 10.0; Win64; x64) AppleWebKit/537.36 (KHTML, like Gecko) Chrome/88.0.4324.150 Safari/537.36","v1","","","","","","","","-80,-70,-60,-50,-40","media/audio/stims/spherical_300cm_s20_c20_cd-full_matched_a-40.wav","spherical","20","20","full","matched","-40","-40","3327"
"echo-presentation","54","460680","0.0-54.0","5fce97c19dbaef11cb9b5600","5fef55e628823a0076ec12ee","601f446b20dda846d6753ad5","Mozilla/5.0 (Windows NT 10.0; Win64; x64) AppleWebKit/537.36 (KHTML, like Gecko) Chrome/88.0.4324.150 Safari/537.36","v1","","","","","","","","-80,-70,-60,-50,-40","media/audio/stims/spherical_300cm_s20_c20_cd-full_matched_a-40.wav","spherical","20","20","full","matched","-40","-50","2102"
"echo-presentation","55","463800","0.0-55.0","5fce97c19dbaef11cb9b5600","5fef55e628823a0076ec12ee","601f446b20dda846d6753ad5","Mozilla/5.0 (Windows NT 10.0; Win64; x64) AppleWebKit/537.36 (KHTML, like Gecko) Chrome/88.0.4324.150 Safari/537.36","v1","","","","","","","","-80,-70,-60,-50,-40","media/audio/stims/spherical_300cm_s20_c20_cd-full_matched_a-50.wav","spherical","20","20","full","matched","-50","-60","1886"
"echo-presentation","56","466120","0.0-56.0","5fce97c19dbaef11cb9b5600","5fef55e628823a0076ec12ee","601f446b20dda846d6753ad5","Mozilla/5.0 (Windows NT 10.0; Win64; x64) AppleWebKit/537.36 (KHTML, like Gecko) Chrome/88.0.4324.150 Safari/537.36","v1","","","","","","","","-80,-70,-60,-50,-40","media/audio/stims/spherical_300cm_s20_c20_cd-full_matched_a-80.wav","spherical","20","20","full","matched","-80","-80","1422"
"echo-presentation","57","469434","0.0-57.0","5fce97c19dbaef11cb9b5600","5fef55e628823a0076ec12ee","601f446b20dda846d6753ad5","Mozilla/5.0 (Windows NT 10.0; Win64; x64) AppleWebKit/537.36 (KHTML, like Gecko) Chrome/88.0.4324.150 Safari/537.36","v1","","","","","","","","-80,-70,-60,-50,-40","media/audio/stims/spherical_300cm_s20_c20_cd-full_matched_a-50.wav","spherical","20","20","full","matched","-50","-60","2374"
"echo-presentation","58","471936","0.0-58.0","5fce97c19dbaef11cb9b5600","5fef55e628823a0076ec12ee","601f446b20dda846d6753ad5","Mozilla/5.0 (Windows NT 10.0; Win64; x64) AppleWebKit/537.36 (KHTML, like Gecko) Chrome/88.0.4324.150 Safari/537.36","v1","","","","","","","","-80,-70,-60,-50,-40","media/audio/stims/spherical_300cm_s20_c20_cd-full_matched_a-80.wav","spherical","20","20","full","matched","-80","-80","1519"
"echo-presentation","59","474105","0.0-59.0","5fce97c19dbaef11cb9b5600","5fef55e628823a0076ec12ee","601f446b20dda846d6753ad5","Mozilla/5.0 (Windows NT 10.0; Win64; x64) AppleWebKit/537.36 (KHTML, like Gecko) Chrome/88.0.4324.150 Safari/537.36","v1","","","","","","","","-80,-70,-60,-50,-40","media/audio/stims/spherical_300cm_s20_c20_cd-full_matched_a-70.wav","spherical","20","20","full","matched","-70","-70","1326"
"echo-presentation","60","476744","0.0-60.0","5fce97c19dbaef11cb9b5600","5fef55e628823a0076ec12ee","601f446b20dda846d6753ad5","Mozilla/5.0 (Windows NT 10.0; Win64; x64) AppleWebKit/537.36 (KHTML, like Gecko) Chrome/88.0.4324.150 Safari/537.36","v1","","","","","","","","-80,-70,-60,-50,-40","media/audio/stims/spherical_300cm_s20_c20_cd-full_matched_a-60.wav","spherical","20","20","full","matched","-60","-70","1822"
"echo-presentation","61","479399","0.0-61.0","5fce97c19dbaef11cb9b5600","5fef55e628823a0076ec12ee","601f446b20dda846d6753ad5","Mozilla/5.0 (Windows NT 10.0; Win64; x64) AppleWebKit/537.36 (KHTML, like Gecko) Chrome/88.0.4324.150 Safari/537.36","v1","","","","","","","","-80,-70,-60,-50,-40","media/audio/stims/spherical_300cm_s20_c20_cd-full_matched_a-70.wav","spherical","20","20","full","matched","-70","-70","1830"
"echo-presentation","62","481432","0.0-62.0","5fce97c19dbaef11cb9b5600","5fef55e628823a0076ec12ee","601f446b20dda846d6753ad5","Mozilla/5.0 (Windows NT 10.0; Win64; x64) AppleWebKit/537.36 (KHTML, like Gecko) Chrome/88.0.4324.150 Safari/537.36","v1","","","","","","","","-80,-70,-60,-50,-40","media/audio/stims/spherical_300cm_s20_c20_cd-full_matched_a-70.wav","spherical","20","20","full","matched","-70","-80","1205"
"echo-presentation","63","484584","0.0-63.0","5fce97c19dbaef11cb9b5600","5fef55e628823a0076ec12ee","601f446b20dda846d6753ad5","Mozilla/5.0 (Windows NT 10.0; Win64; x64) AppleWebKit/537.36 (KHTML, like Gecko) Chrome/88.0.4324.150 Safari/537.36","v1","","","","","","","","-80,-70,-60,-50,-40","media/audio/stims/spherical_300cm_s20_c20_cd-full_matched_a-60.wav","spherical","20","20","full","matched","-60","-60","2302"
"echo-presentation","64","486959","0.0-64.0","5fce97c19dbaef11cb9b5600","5fef55e628823a0076ec12ee","601f446b20dda846d6753ad5","Mozilla/5.0 (Windows NT 10.0; Win64; x64) AppleWebKit/537.36 (KHTML, like Gecko) Chrome/88.0.4324.150 Safari/537.36","v1","","","","","","","","-80,-70,-60,-50,-40","media/audio/stims/spherical_300cm_s20_c20_cd-full_matched_a-40.wav","spherical","20","20","full","matched","-40","-50","1470"
"echo-presentation","65","489320","0.0-65.0","5fce97c19dbaef11cb9b5600","5fef55e628823a0076ec12ee","601f446b20dda846d6753ad5","Mozilla/5.0 (Windows NT 10.0; Win64; x64) AppleWebKit/537.36 (KHTML, like Gecko) Chrome/88.0.4324.150 Safari/537.36","v1","","","","","","","","-80,-70,-60,-50,-40","media/audio/stims/spherical_300cm_s20_c20_cd-full_matched_a-60.wav","spherical","20","20","full","matched","-60","-70","1470"
"echo-presentation","66","495207","0.0-66.0","5fce97c19dbaef11cb9b5600","5fef55e628823a0076ec12ee","601f446b20dda846d6753ad5","Mozilla/5.0 (Windows NT 10.0; Win64; x64) AppleWebKit/537.36 (KHTML, like Gecko) Chrome/88.0.4324.150 Safari/537.36","v1","","","","","","","","-80,-70,-60,-50,-40","media/audio/stims/spherical_300cm_s20_c20_cd-full_matched_a-40.wav","spherical","20","20","full","matched","-40","-50","4949"
"echo-presentation","67","497504","0.0-67.0","5fce97c19dbaef11cb9b5600","5fef55e628823a0076ec12ee","601f446b20dda846d6753ad5","Mozilla/5.0 (Windows NT 10.0; Win64; x64) AppleWebKit/537.36 (KHTML, like Gecko) Chrome/88.0.4324.150 Safari/537.36","v1","","","","","","","","-80,-70,-60,-50,-40","media/audio/stims/spherical_300cm_s20_c20_cd-full_matched_a-50.wav","spherical","20","20","full","matched","-50","-60","1438"
"echo-presentation","68","500304","0.0-68.0","5fce97c19dbaef11cb9b5600","5fef55e628823a0076ec12ee","601f446b20dda846d6753ad5","Mozilla/5.0 (Windows NT 10.0; Win64; x64) AppleWebKit/537.36 (KHTML, like Gecko) Chrome/88.0.4324.150 Safari/537.36","v1","","","","","","","","-80,-70,-60,-50,-40","media/audio/stims/spherical_300cm_s20_c20_cd-full_matched_a-70.wav","spherical","20","20","full","matched","-70","-60","1943"
"echo-presentation","69","502440","0.0-69.0","5fce97c19dbaef11cb9b5600","5fef55e628823a0076ec12ee","601f446b20dda846d6753ad5","Mozilla/5.0 (Windows NT 10.0; Win64; x64) AppleWebKit/537.36 (KHTML, like Gecko) Chrome/88.0.4324.150 Safari/537.36","v1","","","","","","","","-80,-70,-60,-50,-40","media/audio/stims/spherical_300cm_s20_c20_cd-full_matched_a-60.wav","spherical","20","20","full","matched","-60","-70","1341"
"echo-presentation","70","505152","0.0-70.0","5fce97c19dbaef11cb9b5600","5fef55e628823a0076ec12ee","601f446b20dda846d6753ad5","Mozilla/5.0 (Windows NT 10.0; Win64; x64) AppleWebKit/537.36 (KHTML, like Gecko) Chrome/88.0.4324.150 Safari/537.36","v1","","","","","","","","-80,-70,-60,-50,-40","media/audio/stims/spherical_300cm_s20_c20_cd-full_matched_a-50.wav","spherical","20","20","full","matched","-50","-40","1902"
"echo-presentation","71","507657","0.0-71.0","5fce97c19dbaef11cb9b5600","5fef55e628823a0076ec12ee","601f446b20dda846d6753ad5","Mozilla/5.0 (Windows NT 10.0; Win64; x64) AppleWebKit/537.36 (KHTML, like Gecko) Chrome/88.0.4324.150 Safari/537.36","v1","","","","","","","","-80,-70,-60,-50,-40","media/audio/stims/spherical_300cm_s20_c20_cd-full_matched_a-80.wav","spherical","20","20","full","matched","-80","-70","1718"
"block-bookend","72","508851","0.0-72.0","5fce97c19dbaef11cb9b5600","5fef55e628823a0076ec12ee","601f446b20dda846d6753ad5","Mozilla/5.0 (Windows NT 10.0; Win64; x64) AppleWebKit/537.36 (KHTML, like Gecko) Chrome/88.0.4324.150 Safari/537.36","v1","","","","","","","","","","","","","","","","",""
"block-bookend","73","515258","0.0-73.0","5fce97c19dbaef11cb9b5600","5fef55e628823a0076ec12ee","601f446b20dda846d6753ad5","Mozilla/5.0 (Windows NT 10.0; Win64; x64) AppleWebKit/537.36 (KHTML, like Gecko) Chrome/88.0.4324.150 Safari/537.36","v1","","","","","","","","","","","","","","","","",""
"echo-presentation","74","519080","0.0-74.0","5fce97c19dbaef11cb9b5600","5fef55e628823a0076ec12ee","601f446b20dda846d6753ad5","Mozilla/5.0 (Windows NT 10.0; Win64; x64) AppleWebKit/537.36 (KHTML, like Gecko) Chrome/88.0.4324.150 Safari/537.36","v1","","","","","","","","-80,-70,-60,-50,-40","media/audio/stims/spherical_300cm_s20_c20_cd-full_matched_a-80.wav","spherical","20","20","full","matched","-80","-70","1615"
"echo-presentation","75","521600","0.0-75.0","5fce97c19dbaef11cb9b5600","5fef55e628823a0076ec12ee","601f446b20dda846d6753ad5","Mozilla/5.0 (Windows NT 10.0; Win64; x64) AppleWebKit/537.36 (KHTML, like Gecko) Chrome/88.0.4324.150 Safari/537.36","v1","","","","","","","","-80,-70,-60,-50,-40","media/audio/stims/spherical_300cm_s20_c20_cd-full_matched_a-50.wav","spherical","20","20","full","matched","-50","-40","1446"
"echo-presentation","76","524089","0.0-76.0","5fce97c19dbaef11cb9b5600","5fef55e628823a0076ec12ee","601f446b20dda846d6753ad5","Mozilla/5.0 (Windows NT 10.0; Win64; x64) AppleWebKit/537.36 (KHTML, like Gecko) Chrome/88.0.4324.150 Safari/537.36","v1","","","","","","","","-80,-70,-60,-50,-40","media/audio/stims/spherical_300cm_s20_c20_cd-full_matched_a-40.wav","spherical","20","20","full","matched","-40","-50","1565"
"echo-presentation","77","526775","0.0-77.0","5fce97c19dbaef11cb9b5600","5fef55e628823a0076ec12ee","601f446b20dda846d6753ad5","Mozilla/5.0 (Windows NT 10.0; Win64; x64) AppleWebKit/537.36 (KHTML, like Gecko) Chrome/88.0.4324.150 Safari/537.36","v1","","","","","","","","-80,-70,-60,-50,-40","media/audio/stims/spherical_300cm_s20_c20_cd-full_matched_a-80.wav","spherical","20","20","full","matched","-80","-70","1775"
"echo-presentation","78","529593","0.0-78.0","5fce97c19dbaef11cb9b5600","5fef55e628823a0076ec12ee","601f446b20dda846d6753ad5","Mozilla/5.0 (Windows NT 10.0; Win64; x64) AppleWebKit/537.36 (KHTML, like Gecko) Chrome/88.0.4324.150 Safari/537.36","v1","","","","","","","","-80,-70,-60,-50,-40","media/audio/stims/spherical_300cm_s20_c20_cd-full_matched_a-70.wav","spherical","20","20","full","matched","-70","-60","2046"
"echo-presentation","79","533392","0.0-79.0","5fce97c19dbaef11cb9b5600","5fef55e628823a0076ec12ee","601f446b20dda846d6753ad5","Mozilla/5.0 (Windows NT 10.0; Win64; x64) AppleWebKit/537.36 (KHTML, like Gecko) Chrome/88.0.4324.150 Safari/537.36","v1","","","","","","","","-80,-70,-60,-50,-40","media/audio/stims/spherical_300cm_s20_c20_cd-full_matched_a-50.wav","spherical","20","20","full","matched","-50","-60","2135"
"echo-presentation","80","536545","0.0-80.0","5fce97c19dbaef11cb9b5600","5fef55e628823a0076ec12ee","601f446b20dda846d6753ad5","Mozilla/5.0 (Windows NT 10.0; Win64; x64) AppleWebKit/537.36 (KHTML, like Gecko) Chrome/88.0.4324.150 Safari/537.36","v1","","","","","","","","-80,-70,-60,-50,-40","media/audio/stims/spherical_300cm_s20_c20_cd-full_matched_a-60.wav","spherical","20","20","full","matched","-60","-60","2364"
"echo-presentation","81","539032","0.0-81.0","5fce97c19dbaef11cb9b5600","5fef55e628823a0076ec12ee","601f446b20dda846d6753ad5","Mozilla/5.0 (Windows NT 10.0; Win64; x64) AppleWebKit/537.36 (KHTML, like Gecko) Chrome/88.0.4324.150 Safari/537.36","v1","","","","","","","","-80,-70,-60,-50,-40","media/audio/stims/spherical_300cm_s20_c20_cd-full_matched_a-60.wav","spherical","20","20","full","matched","-60","-50","1839"
"echo-presentation","82","541329","0.0-82.0","5fce97c19dbaef11cb9b5600","5fef55e628823a0076ec12ee","601f446b20dda846d6753ad5","Mozilla/5.0 (Windows NT 10.0; Win64; x64) AppleWebKit/537.36 (KHTML, like Gecko) Chrome/88.0.4324.150 Safari/537.36","v1","","","","","","","","-80,-70,-60,-50,-40","media/audio/stims/spherical_300cm_s20_c20_cd-full_matched_a-70.wav","spherical","20","20","full","matched","-70","-70","1478"
"echo-presentation","83","543865","0.0-83.0","5fce97c19dbaef11cb9b5600","5fef55e628823a0076ec12ee","601f446b20dda846d6753ad5","Mozilla/5.0 (Windows NT 10.0; Win64; x64) AppleWebKit/537.36 (KHTML, like Gecko) Chrome/88.0.4324.150 Safari/537.36","v1","","","","","","","","-80,-70,-60,-50,-40","media/audio/stims/spherical_300cm_s20_c20_cd-full_matched_a-40.wav","spherical","20","20","full","matched","-40","-40","1718"
"echo-presentation","84","546377","0.0-84.0","5fce97c19dbaef11cb9b5600","5fef55e628823a0076ec12ee","601f446b20dda846d6753ad5","Mozilla/5.0 (Windows NT 10.0; Win64; x64) AppleWebKit/537.36 (KHTML, like Gecko) Chrome/88.0.4324.150 Safari/537.36","v1","","","","","","","","-80,-70,-60,-50,-40","media/audio/stims/spherical_300cm_s20_c20_cd-full_matched_a-60.wav","spherical","20","20","full","matched","-60","-50","1646"
"echo-presentation","85","548745","0.0-85.0","5fce97c19dbaef11cb9b5600","5fef55e628823a0076ec12ee","601f446b20dda846d6753ad5","Mozilla/5.0 (Windows NT 10.0; Win64; x64) AppleWebKit/537.36 (KHTML, like Gecko) Chrome/88.0.4324.150 Safari/537.36","v1","","","","","","","","-80,-70,-60,-50,-40","media/audio/stims/spherical_300cm_s20_c20_cd-full_matched_a-80.wav","spherical","20","20","full","matched","-80","-70","1582"
"echo-presentation","86","551041","0.0-86.0","5fce97c19dbaef11cb9b5600","5fef55e628823a0076ec12ee","601f446b20dda846d6753ad5","Mozilla/5.0 (Windows NT 10.0; Win64; x64) AppleWebKit/537.36 (KHTML, like Gecko) Chrome/88.0.4324.150 Safari/537.36","v1","","","","","","","","-80,-70,-60,-50,-40","media/audio/stims/spherical_300cm_s20_c20_cd-full_matched_a-40.wav","spherical","20","20","full","matched","-40","-60","1510"
"echo-presentation","87","554120","0.0-87.0","5fce97c19dbaef11cb9b5600","5fef55e628823a0076ec12ee","601f446b20dda846d6753ad5","Mozilla/5.0 (Windows NT 10.0; Win64; x64) AppleWebKit/537.36 (KHTML, like Gecko) Chrome/88.0.4324.150 Safari/537.36","v1","","","","","","","","-80,-70,-60,-50,-40","media/audio/stims/spherical_300cm_s20_c20_cd-full_matched_a-50.wav","spherical","20","20","full","matched","-50","-60","2415"
"echo-presentation","88","556336","0.0-88.0","5fce97c19dbaef11cb9b5600","5fef55e628823a0076ec12ee","601f446b20dda846d6753ad5","Mozilla/5.0 (Windows NT 10.0; Win64; x64) AppleWebKit/537.36 (KHTML, like Gecko) Chrome/88.0.4324.150 Safari/537.36","v1","","","","","","","","-80,-70,-60,-50,-40","media/audio/stims/spherical_300cm_s20_c20_cd-full_matched_a-40.wav","spherical","20","20","full","matched","-40","-70","1423"
"echo-presentation","89","558287","0.0-89.0","5fce97c19dbaef11cb9b5600","5fef55e628823a0076ec12ee","601f446b20dda846d6753ad5","Mozilla/5.0 (Windows NT 10.0; Win64; x64) AppleWebKit/537.36 (KHTML, like Gecko) Chrome/88.0.4324.150 Safari/537.36","v1","","","","","","","","-80,-70,-60,-50,-40","media/audio/stims/spherical_300cm_s20_c20_cd-full_matched_a-80.wav","spherical","20","20","full","matched","-80","-80","1118"
"echo-presentation","90","561329","0.0-90.0","5fce97c19dbaef11cb9b5600","5fef55e628823a0076ec12ee","601f446b20dda846d6753ad5","Mozilla/5.0 (Windows NT 10.0; Win64; x64) AppleWebKit/537.36 (KHTML, like Gecko) Chrome/88.0.4324.150 Safari/537.36","v1","","","","","","","","-80,-70,-60,-50,-40","media/audio/stims/spherical_300cm_s20_c20_cd-full_matched_a-50.wav","spherical","20","20","full","matched","-50","-70","2038"
"echo-presentation","91","563664","0.0-91.0","5fce97c19dbaef11cb9b5600","5fef55e628823a0076ec12ee","601f446b20dda846d6753ad5","Mozilla/5.0 (Windows NT 10.0; Win64; x64) AppleWebKit/537.36 (KHTML, like Gecko) Chrome/88.0.4324.150 Safari/537.36","v1","","","","","","","","-80,-70,-60,-50,-40","media/audio/stims/spherical_300cm_s20_c20_cd-full_matched_a-70.wav","spherical","20","20","full","matched","-70","-70","1694"
"echo-presentation","92","566856","0.0-92.0","5fce97c19dbaef11cb9b5600","5fef55e628823a0076ec12ee","601f446b20dda846d6753ad5","Mozilla/5.0 (Windows NT 10.0; Win64; x64) AppleWebKit/537.36 (KHTML, like Gecko) Chrome/88.0.4324.150 Safari/537.36","v1","","","","","","","","-80,-70,-60,-50,-40","media/audio/stims/spherical_300cm_s20_c20_cd-full_matched_a-70.wav","spherical","20","20","full","matched","-70","-80","2302"
"echo-presentation","93","569440","0.0-93.0","5fce97c19dbaef11cb9b5600","5fef55e628823a0076ec12ee","601f446b20dda846d6753ad5","Mozilla/5.0 (Windows NT 10.0; Win64; x64) AppleWebKit/537.36 (KHTML, like Gecko) Chrome/88.0.4324.150 Safari/537.36","v1","","","","","","","","-80,-70,-60,-50,-40","media/audio/stims/spherical_300cm_s20_c20_cd-full_matched_a-60.wav","spherical","20","20","full","matched","-60","-70","1710"
"block-bookend","94","570531","0.0-94.0","5fce97c19dbaef11cb9b5600","5fef55e628823a0076ec12ee","601f446b20dda846d6753ad5","Mozilla/5.0 (Windows NT 10.0; Win64; x64) AppleWebKit/537.36 (KHTML, like Gecko) Chrome/88.0.4324.150 Safari/537.36","v1","","","","","","","","","","","","","","","","",""
"block-bookend","95","589787","0.0-95.0","5fce97c19dbaef11cb9b5600","5fef55e628823a0076ec12ee","601f446b20dda846d6753ad5","Mozilla/5.0 (Windows NT 10.0; Win64; x64) AppleWebKit/537.36 (KHTML, like Gecko) Chrome/88.0.4324.150 Safari/537.36","v1","","","","","","","","","","","","","","","","",""
"echo-presentation","96","596648","0.0-96.0","5fce97c19dbaef11cb9b5600","5fef55e628823a0076ec12ee","601f446b20dda846d6753ad5","Mozilla/5.0 (Windows NT 10.0; Win64; x64) AppleWebKit/537.36 (KHTML, like Gecko) Chrome/88.0.4324.150 Safari/537.36","v1","","","","","","","","-20,-10,0,10,20","media/audio/stims/spherical_300cm_s20_c20_cd-full_matched_a20.wav","spherical","20","20","full","matched","20","20","4758"
"echo-presentation","97","599272","0.0-97.0","5fce97c19dbaef11cb9b5600","5fef55e628823a0076ec12ee","601f446b20dda846d6753ad5","Mozilla/5.0 (Windows NT 10.0; Win64; x64) AppleWebKit/537.36 (KHTML, like Gecko) Chrome/88.0.4324.150 Safari/537.36","v1","","","","","","","","-20,-10,0,10,20","media/audio/stims/spherical_300cm_s20_c20_cd-full_matched_a-20.wav","spherical","20","20","full","matched","-20","-20","1614"
"echo-presentation","98","603392","0.0-98.0","5fce97c19dbaef11cb9b5600","5fef55e628823a0076ec12ee","601f446b20dda846d6753ad5","Mozilla/5.0 (Windows NT 10.0; Win64; x64) AppleWebKit/537.36 (KHTML, like Gecko) Chrome/88.0.4324.150 Safari/537.36","v1","","","","","","","","-20,-10,0,10,20","media/audio/stims/spherical_300cm_s20_c20_cd-full_matched_a0.wav","spherical","20","20","full","matched","0","10","3135"
"echo-presentation","99","605745","0.0-99.0","5fce97c19dbaef11cb9b5600","5fef55e628823a0076ec12ee","601f446b20dda846d6753ad5","Mozilla/5.0 (Windows NT 10.0; Win64; x64) AppleWebKit/537.36 (KHTML, like Gecko) Chrome/88.0.4324.150 Safari/537.36","v1","","","","","","","","-20,-10,0,10,20","media/audio/stims/spherical_300cm_s20_c20_cd-full_matched_a-10.wav","spherical","20","20","full","matched","-10","-10","1470"
"echo-presentation","100","608345","0.0-100.0","5fce97c19dbaef11cb9b5600","5fef55e628823a0076ec12ee","601f446b20dda846d6753ad5","Mozilla/5.0 (Windows NT 10.0; Win64; x64) AppleWebKit/537.36 (KHTML, like Gecko) Chrome/88.0.4324.150 Safari/537.36","v1","","","","","","","","-20,-10,0,10,20","media/audio/stims/spherical_300cm_s20_c20_cd-full_matched_a-10.wav","spherical","20","20","full","matched","-10","0","1757"
"echo-presentation","101","611416","0.0-101.0","5fce97c19dbaef11cb9b5600","5fef55e628823a0076ec12ee","601f446b20dda846d6753ad5","Mozilla/5.0 (Windows NT 10.0; Win64; x64) AppleWebKit/537.36 (KHTML, like Gecko) Chrome/88.0.4324.150 Safari/537.36","v1","","","","","","","","-20,-10,0,10,20","media/audio/stims/spherical_300cm_s20_c20_cd-full_matched_a-10.wav","spherical","20","20","full","matched","-10","0","2174"
"echo-presentation","102","613769","0.0-102.0","5fce97c19dbaef11cb9b5600","5fef55e628823a0076ec12ee","601f446b20dda846d6753ad5","Mozilla/5.0 (Windows NT 10.0; Win64; x64) AppleWebKit/537.36 (KHTML, like Gecko) Chrome/88.0.4324.150 Safari/537.36","v1","","","","","","","","-20,-10,0,10,20","media/audio/stims/spherical_300cm_s20_c20_cd-full_matched_a10.wav","spherical","20","20","full","matched","10","10","1511"
"echo-presentation","103","616336","0.0-103.0","5fce97c19dbaef11cb9b5600","5fef55e628823a0076ec12ee","601f446b20dda846d6753ad5","Mozilla/5.0 (Windows NT 10.0; Win64; x64) AppleWebKit/537.36 (KHTML, like Gecko) Chrome/88.0.4324.150 Safari/537.36","v1","","","","","","","","-20,-10,0,10,20","media/audio/stims/spherical_300cm_s20_c20_cd-full_matched_a10.wav","spherical","20","20","full","matched","10","20","1734"
"echo-presentation","104","619440","0.0-104.0","5fce97c19dbaef11cb9b5600","5fef55e628823a0076ec12ee","601f446b20dda846d6753ad5","Mozilla/5.0 (Windows NT 10.0; Win64; x64) AppleWebKit/537.36 (KHTML, like Gecko) Chrome/88.0.4324.150 Safari/537.36","v1","","","","","","","","-20,-10,0,10,20","media/audio/stims/spherical_300cm_s20_c20_cd-full_matched_a-20.wav","spherical","20","20","full","matched","-20","-10","2222"
"echo-presentation","105","621880","0.0-105.0","5fce97c19dbaef11cb9b5600","5fef55e628823a0076ec12ee","601f446b20dda846d6753ad5","Mozilla/5.0 (Windows NT 10.0; Win64; x64) AppleWebKit/537.36 (KHTML, like Gecko) Chrome/88.0.4324.150 Safari/537.36","v1","","","","","","","","-20,-10,0,10,20","media/audio/stims/spherical_300cm_s20_c20_cd-full_matched_a0.wav","spherical","20","20","full","matched","0","0","1542"
"echo-presentation","106","624657","0.0-106.0","5fce97c19dbaef11cb9b5600","5fef55e628823a0076ec12ee","601f446b20dda846d6753ad5","Mozilla/5.0 (Windows NT 10.0; Win64; x64) AppleWebKit/537.36 (KHTML, like Gecko) Chrome/88.0.4324.150 Safari/537.36","v1","","","","","","","","-20,-10,0,10,20","media/audio/stims/spherical_300cm_s20_c20_cd-full_matched_a-10.wav","spherical","20","20","full","matched","-10","-10","1911"
"echo-presentation","107","627024","0.0-107.0","5fce97c19dbaef11cb9b5600","5fef55e628823a0076ec12ee","601f446b20dda846d6753ad5","Mozilla/5.0 (Windows NT 10.0; Win64; x64) AppleWebKit/537.36 (KHTML, like Gecko) Chrome/88.0.4324.150 Safari/537.36","v1","","","","","","","","-20,-10,0,10,20","media/audio/stims/spherical_300cm_s20_c20_cd-full_matched_a-20.wav","spherical","20","20","full","matched","-20","-20","1366"
"echo-presentation","108","630736","0.0-108.0","5fce97c19dbaef11cb9b5600","5fef55e628823a0076ec12ee","601f446b20dda846d6753ad5","Mozilla/5.0 (Windows NT 10.0; Win64; x64) AppleWebKit/537.36 (KHTML, like Gecko) Chrome/88.0.4324.150 Safari/537.36","v1","","","","","","","","-20,-10,0,10,20","media/audio/stims/spherical_300cm_s20_c20_cd-full_matched_a0.wav","spherical","20","20","full","matched","0","0","2854"
"echo-presentation","109","633248","0.0-109.0","5fce97c19dbaef11cb9b5600","5fef55e628823a0076ec12ee","601f446b20dda846d6753ad5","Mozilla/5.0 (Windows NT 10.0; Win64; x64) AppleWebKit/537.36 (KHTML, like Gecko) Chrome/88.0.4324.150 Safari/537.36","v1","","","","","","","","-20,-10,0,10,20","media/audio/stims/spherical_300cm_s20_c20_cd-full_matched_a10.wav","spherical","20","20","full","matched","10","10","1630"
"echo-presentation","110","635905","0.0-110.0","5fce97c19dbaef11cb9b5600","5fef55e628823a0076ec12ee","601f446b20dda846d6753ad5","Mozilla/5.0 (Windows NT 10.0; Win64; x64) AppleWebKit/537.36 (KHTML, like Gecko) Chrome/88.0.4324.150 Safari/537.36","v1","","","","","","","","-20,-10,0,10,20","media/audio/stims/spherical_300cm_s20_c20_cd-full_matched_a10.wav","spherical","20","20","full","matched","10","0","1815"
"echo-presentation","111","639225","0.0-111.0","5fce97c19dbaef11cb9b5600","5fef55e628823a0076ec12ee","601f446b20dda846d6753ad5","Mozilla/5.0 (Windows NT 10.0; Win64; x64) AppleWebKit/537.36 (KHTML, like Gecko) Chrome/88.0.4324.150 Safari/537.36","v1","","","","","","","","-20,-10,0,10,20","media/audio/stims/spherical_300cm_s20_c20_cd-full_matched_a20.wav","spherical","20","20","full","matched","20","20","2446"
"echo-presentation","112","641689","0.0-112.0","5fce97c19dbaef11cb9b5600","5fef55e628823a0076ec12ee","601f446b20dda846d6753ad5","Mozilla/5.0 (Windows NT 10.0; Win64; x64) AppleWebKit/537.36 (KHTML, like Gecko) Chrome/88.0.4324.150 Safari/537.36","v1","","","","","","","","-20,-10,0,10,20","media/audio/stims/spherical_300cm_s20_c20_cd-full_matched_a20.wav","spherical","20","20","full","matched","20","10","1614"
"echo-presentation","113","644096","0.0-113.0","5fce97c19dbaef11cb9b5600","5fef55e628823a0076ec12ee","601f446b20dda846d6753ad5","Mozilla/5.0 (Windows NT 10.0; Win64; x64) AppleWebKit/537.36 (KHTML, like Gecko) Chrome/88.0.4324.150 Safari/537.36","v1","","","","","","","","-20,-10,0,10,20","media/audio/stims/spherical_300cm_s20_c20_cd-full_matched_a0.wav","spherical","20","20","full","matched","0","0","1390"
"echo-presentation","114","647474","0.0-114.0","5fce97c19dbaef11cb9b5600","5fef55e628823a0076ec12ee","601f446b20dda846d6753ad5","Mozilla/5.0 (Windows NT 10.0; Win64; x64) AppleWebKit/537.36 (KHTML, like Gecko) Chrome/88.0.4324.150 Safari/537.36","v1","","","","","","","","-20,-10,0,10,20","media/audio/stims/spherical_300cm_s20_c20_cd-full_matched_a20.wav","spherical","20","20","full","matched","20","0","2519"
"echo-presentation","115","649896","0.0-115.0","5fce97c19dbaef11cb9b5600","5fef55e628823a0076ec12ee","601f446b20dda846d6753ad5","Mozilla/5.0 (Windows NT 10.0; Win64; x64) AppleWebKit/537.36 (KHTML, like Gecko) Chrome/88.0.4324.150 Safari/537.36","v1","","","","","","","","-20,-10,0,10,20","media/audio/stims/spherical_300cm_s20_c20_cd-full_matched_a-20.wav","spherical","20","20","full","matched","-20","-10","1606"
"block-bookend","116","650915","0.0-116.0","5fce97c19dbaef11cb9b5600","5fef55e628823a0076ec12ee","601f446b20dda846d6753ad5","Mozilla/5.0 (Windows NT 10.0; Win64; x64) AppleWebKit/537.36 (KHTML, like Gecko) Chrome/88.0.4324.150 Safari/537.36","v1","","","","","","","","","","","","","","","","",""
"block-bookend","117","664619","0.0-117.0","5fce97c19dbaef11cb9b5600","5fef55e628823a0076ec12ee","601f446b20dda846d6753ad5","Mozilla/5.0 (Windows NT 10.0; Win64; x64) AppleWebKit/537.36 (KHTML, like Gecko) Chrome/88.0.4324.150 Safari/537.36","v1","","","","","","","","","","","","","","","","",""
"echo-presentation","118","667385","0.0-118.0","5fce97c19dbaef11cb9b5600","5fef55e628823a0076ec12ee","601f446b20dda846d6753ad5","Mozilla/5.0 (Windows NT 10.0; Win64; x64) AppleWebKit/537.36 (KHTML, like Gecko) Chrome/88.0.4324.150 Safari/537.36","v1","","","","","","","","-20,-10,0,10,20","media/audio/stims/spherical_300cm_s20_c20_cd-full_matched_a-20.wav","spherical","20","20","full","matched","-20","-20","1358"
"echo-presentation","119","669897","0.0-119.0","5fce97c19dbaef11cb9b5600","5fef55e628823a0076ec12ee","601f446b20dda846d6753ad5","Mozilla/5.0 (Windows NT 10.0; Win64; x64) AppleWebKit/537.36 (KHTML, like Gecko) Chrome/88.0.4324.150 Safari/537.36","v1","","","","","","","","-20,-10,0,10,20","media/audio/stims/spherical_300cm_s20_c20_cd-full_matched_a10.wav","spherical","20","20","full","matched","10","0","1575"
"echo-presentation","120","672320","0.0-120.0","5fce97c19dbaef11cb9b5600","5fef55e628823a0076ec12ee","601f446b20dda846d6753ad5","Mozilla/5.0 (Windows NT 10.0; Win64; x64) AppleWebKit/537.36 (KHTML, like Gecko) Chrome/88.0.4324.150 Safari/537.36","v1","","","","","","","","-20,-10,0,10,20","media/audio/stims/spherical_300cm_s20_c20_cd-full_matched_a-20.wav","spherical","20","20","full","matched","-20","-10","1582"
"echo-presentation","121","674536","0.0-121.0","5fce97c19dbaef11cb9b5600","5fef55e628823a0076ec12ee","601f446b20dda846d6753ad5","Mozilla/5.0 (Windows NT 10.0; Win64; x64) AppleWebKit/537.36 (KHTML, like Gecko) Chrome/88.0.4324.150 Safari/537.36","v1","","","","","","","","-20,-10,0,10,20","media/audio/stims/spherical_300cm_s20_c20_cd-full_matched_a10.wav","spherical","20","20","full","matched","10","10","1374"
"echo-presentation","122","676744","0.0-122.0","5fce97c19dbaef11cb9b5600","5fef55e628823a0076ec12ee","601f446b20dda846d6753ad5","Mozilla/5.0 (Windows NT 10.0; Win64; x64) AppleWebKit/537.36 (KHTML, like Gecko) Chrome/88.0.4324.150 Safari/537.36","v1","","","","","","","","-20,-10,0,10,20","media/audio/stims/spherical_300cm_s20_c20_cd-full_matched_a20.wav","spherical","20","20","full","matched","20","20","1382"
"echo-presentation","123","679304","0.0-123.0","5fce97c19dbaef11cb9b5600","5fef55e628823a0076ec12ee","601f446b20dda846d6753ad5","Mozilla/5.0 (Windows NT 10.0; Win64; x64) AppleWebKit/537.36 (KHTML, like Gecko) Chrome/88.0.4324.150 Safari/537.36","v1","","","","","","","","-20,-10,0,10,20","media/audio/stims/spherical_300cm_s20_c20_cd-full_matched_a0.wav","spherical","20","20","full","matched","0","10","1662"
"echo-presentation","124","681552","0.0-124.0","5fce97c19dbaef11cb9b5600","5fef55e628823a0076ec12ee","601f446b20dda846d6753ad5","Mozilla/5.0 (Windows NT 10.0; Win64; x64) AppleWebKit/537.36 (KHTML, like Gecko) Chrome/88.0.4324.150 Safari/537.36","v1","","","","","","","","-20,-10,0,10,20","media/audio/stims/spherical_300cm_s20_c20_cd-full_matched_a0.wav","spherical","20","20","full","matched","0","0","1502"
"echo-presentation","125","683793","0.0-125.0","5fce97c19dbaef11cb9b5600","5fef55e628823a0076ec12ee","601f446b20dda846d6753ad5","Mozilla/5.0 (Windows NT 10.0; Win64; x64) AppleWebKit/537.36 (KHTML, like Gecko) Chrome/88.0.4324.150 Safari/537.36","v1","","","","","","","","-20,-10,0,10,20","media/audio/stims/spherical_300cm_s20_c20_cd-full_matched_a20.wav","spherical","20","20","full","matched","20","20","1422"
"echo-presentation","126","686385","0.0-126.0","5fce97c19dbaef11cb9b5600","5fef55e628823a0076ec12ee","601f446b20dda846d6753ad5","Mozilla/5.0 (Windows NT 10.0; Win64; x64) AppleWebKit/537.36 (KHTML, like Gecko) Chrome/88.0.4324.150 Safari/537.36","v1","","","","","","","","-20,-10,0,10,20","media/audio/stims/spherical_300cm_s20_c20_cd-full_matched_a20.wav","spherical","20","20","full","matched","20","20","1758"
"echo-presentation","127","690377","0.0-127.0","5fce97c19dbaef11cb9b5600","5fef55e628823a0076ec12ee","601f446b20dda846d6753ad5","Mozilla/5.0 (Windows NT 10.0; Win64; x64) AppleWebKit/537.36 (KHTML, like Gecko) Chrome/88.0.4324.150 Safari/537.36","v1","","","","","","","","-20,-10,0,10,20","media/audio/stims/spherical_300cm_s20_c20_cd-full_matched_a20.wav","spherical","20","20","full","matched","20","10","3231"
"echo-presentation","128","692617","0.0-128.0","5fce97c19dbaef11cb9b5600","5fef55e628823a0076ec12ee","601f446b20dda846d6753ad5","Mozilla/5.0 (Windows NT 10.0; Win64; x64) AppleWebKit/537.36 (KHTML, like Gecko) Chrome/88.0.4324.150 Safari/537.36","v1","","","","","","","","-20,-10,0,10,20","media/audio/stims/spherical_300cm_s20_c20_cd-full_matched_a-10.wav","spherical","20","20","full","matched","-10","-10","1382"
"echo-presentation","129","694913","0.0-129.0","5fce97c19dbaef11cb9b5600","5fef55e628823a0076ec12ee","601f446b20dda846d6753ad5","Mozilla/5.0 (Windows NT 10.0; Win64; x64) AppleWebKit/537.36 (KHTML, like Gecko) Chrome/88.0.4324.150 Safari/537.36","v1","","","","","","","","-20,-10,0,10,20","media/audio/stims/spherical_300cm_s20_c20_cd-full_matched_a0.wav","spherical","20","20","full","matched","0","0","1534"
"echo-presentation","130","697121","0.0-130.0","5fce97c19dbaef11cb9b5600","5fef55e628823a0076ec12ee","601f446b20dda846d6753ad5","Mozilla/5.0 (Windows NT 10.0; Win64; x64) AppleWebKit/537.36 (KHTML, like Gecko) Chrome/88.0.4324.150 Safari/537.36","v1","","","","","","","","-20,-10,0,10,20","media/audio/stims/spherical_300cm_s20_c20_cd-full_matched_a-20.wav","spherical","20","20","full","matched","-20","-10","1447"
"echo-presentation","131","700264","0.0-131.0","5fce97c19dbaef11cb9b5600","5fef55e628823a0076ec12ee","601f446b20dda846d6753ad5","Mozilla/5.0 (Windows NT 10.0; Win64; x64) AppleWebKit/537.36 (KHTML, like Gecko) Chrome/88.0.4324.150 Safari/537.36","v1","","","","","","","","-20,-10,0,10,20","media/audio/stims/spherical_300cm_s20_c20_cd-full_matched_a-20.wav","spherical","20","20","full","matched","-20","-20","2270"
"echo-presentation","132","703065","0.0-132.0","5fce97c19dbaef11cb9b5600","5fef55e628823a0076ec12ee","601f446b20dda846d6753ad5","Mozilla/5.0 (Windows NT 10.0; Win64; x64) AppleWebKit/537.36 (KHTML, like Gecko) Chrome/88.0.4324.150 Safari/537.36","v1","","","","","","","","-20,-10,0,10,20","media/audio/stims/spherical_300cm_s20_c20_cd-full_matched_a0.wav","spherical","20","20","full","matched","0","0","1942"
"echo-presentation","133","706321","0.0-133.0","5fce97c19dbaef11cb9b5600","5fef55e628823a0076ec12ee","601f446b20dda846d6753ad5","Mozilla/5.0 (Windows NT 10.0; Win64; x64) AppleWebKit/537.36 (KHTML, like Gecko) Chrome/88.0.4324.150 Safari/537.36","v1","","","","","","","","-20,-10,0,10,20","media/audio/stims/spherical_300cm_s20_c20_cd-full_matched_a10.wav","spherical","20","20","full","matched","10","0","2558"
"echo-presentation","134","709313","0.0-134.0","5fce97c19dbaef11cb9b5600","5fef55e628823a0076ec12ee","601f446b20dda846d6753ad5","Mozilla/5.0 (Windows NT 10.0; Win64; x64) AppleWebKit/537.36 (KHTML, like Gecko) Chrome/88.0.4324.150 Safari/537.36","v1","","","","","","","","-20,-10,0,10,20","media/audio/stims/spherical_300cm_s20_c20_cd-full_matched_a-10.wav","spherical","20","20","full","matched","-10","0","2030"
"echo-presentation","135","711409","0.0-135.0","5fce97c19dbaef11cb9b5600","5fef55e628823a0076ec12ee","601f446b20dda846d6753ad5","Mozilla/5.0 (Windows NT 10.0; Win64; x64) AppleWebKit/537.36 (KHTML, like Gecko) Chrome/88.0.4324.150 Safari/537.36","v1","","","","","","","","-20,-10,0,10,20","media/audio/stims/spherical_300cm_s20_c20_cd-full_matched_a-10.wav","spherical","20","20","full","matched","-10","-10","1287"
"echo-presentation","136","715152","0.0-136.0","5fce97c19dbaef11cb9b5600","5fef55e628823a0076ec12ee","601f446b20dda846d6753ad5","Mozilla/5.0 (Windows NT 10.0; Win64; x64) AppleWebKit/537.36 (KHTML, like Gecko) Chrome/88.0.4324.150 Safari/537.36","v1","","","","","","","","-20,-10,0,10,20","media/audio/stims/spherical_300cm_s20_c20_cd-full_matched_a10.wav","spherical","20","20","full","matched","10","-10","2910"
"echo-presentation","137","717096","0.0-137.0","5fce97c19dbaef11cb9b5600","5fef55e628823a0076ec12ee","601f446b20dda846d6753ad5","Mozilla/5.0 (Windows NT 10.0; Win64; x64) AppleWebKit/537.36 (KHTML, like Gecko) Chrome/88.0.4324.150 Safari/537.36","v1","","","","","","","","-20,-10,0,10,20","media/audio/stims/spherical_300cm_s20_c20_cd-full_matched_a-10.wav","spherical","20","20","full","matched","-10","-20","1134"
"block-bookend","138","718091","0.0-138.0","5fce97c19dbaef11cb9b5600","5fef55e628823a0076ec12ee","601f446b20dda846d6753ad5","Mozilla/5.0 (Windows NT 10.0; Win64; x64) AppleWebKit/537.36 (KHTML, like Gecko) Chrome/88.0.4324.150 Safari/537.36","v1","","","","","","","","","","","","","","","","",""
