"trial_type","trial_index","time_elapsed","internal_node_id","prolificPid","studyId","sessionId","userAgent","version","rt","stimulus","key_press","chosenKeyset","failureCount","testIndex","globalVolume","choices","filename","modelName","slowdown","compensation","compensationDescriptor","receiverOrientationType","azimuth","responseAzimuth","responseDelay"
"pavlovia","0","3","0.0-0.0","5ebc3cc7adb5e706b8021deb","5fef55e628823a0076ec12ee","601f447aa5824c48a7ac46cd","Mozilla/5.0 (Windows NT 10.0; Win64; x64) AppleWebKit/537.36 (KHTML, like Gecko) Chrome/88.0.4324.150 Safari/537.36","v1","","","","","","","","","","","","","","","","",""
"html-keyboard-response","1","14839","0.0-1.0","5ebc3cc7adb5e706b8021deb","5fef55e628823a0076ec12ee","601f447aa5824c48a7ac46cd","Mozilla/5.0 (Windows NT 10.0; Win64; x64) AppleWebKit/537.36 (KHTML, like Gecko) Chrome/88.0.4324.150 Safari/537.36","v1","14834.335000006831","<div><h1>Welcome!</h1><p>Press any key to continue.</p></div>","32","","","","","","","","","","","","","",""
"consent-form","2","18726","0.0-2.0","5ebc3cc7adb5e706b8021deb","5fef55e628823a0076ec12ee","601f447aa5824c48a7ac46cd","Mozilla/5.0 (Windows NT 10.0; Win64; x64) AppleWebKit/537.36 (KHTML, like Gecko) Chrome/88.0.4324.150 Safari/537.36","v1","","","","","","","","","","","","","","","","",""
"keyset-select","3","47838","0.0-3.0","5ebc3cc7adb5e706b8021deb","5fef55e628823a0076ec12ee","601f447aa5824c48a7ac46cd","Mozilla/5.0 (Windows NT 10.0; Win64; x64) AppleWebKit/537.36 (KHTML, like Gecko) Chrome/88.0.4324.150 Safari/537.36","v1","","","","left-hand","","","","","","","","","","","","",""
"headphone-check","4","130455","0.0-4.0","5ebc3cc7adb5e706b8021deb","5fef55e628823a0076ec12ee","601f447aa5824c48a7ac46cd","Mozilla/5.0 (Windows NT 10.0; Win64; x64) AppleWebKit/537.36 (KHTML, like Gecko) Chrome/88.0.4324.150 Safari/537.36","v1","","","","","0","6","0.3","","","","","","","","","",""
"headphone-backwards-check","5","139601","0.0-5.0","5ebc3cc7adb5e706b8021deb","5fef55e628823a0076ec12ee","601f447aa5824c48a7ac46cd","Mozilla/5.0 (Windows NT 10.0; Win64; x64) AppleWebKit/537.36 (KHTML, like Gecko) Chrome/88.0.4324.150 Safari/537.36","v1","","","","","0","","","","","","","","","","","",""
"training","6","245437","0.0-6.0","5ebc3cc7adb5e706b8021deb","5fef55e628823a0076ec12ee","601f447aa5824c48a7ac46cd","Mozilla/5.0 (Windows NT 10.0; Win64; x64) AppleWebKit/537.36 (KHTML, like Gecko) Chrome/88.0.4324.150 Safari/537.36","v1","","","","","","","","","","","","","","","","",""
"block-bookend","7","295490","0.0-7.0","5ebc3cc7adb5e706b8021deb","5fef55e628823a0076ec12ee","601f447aa5824c48a7ac46cd","Mozilla/5.0 (Windows NT 10.0; Win64; x64) AppleWebKit/537.36 (KHTML, like Gecko) Chrome/88.0.4324.150 Safari/537.36","v1","","","","","","","","","","","","","","","","",""
"echo-presentation","8","306016","0.0-8.0","5ebc3cc7adb5e706b8021deb","5fef55e628823a0076ec12ee","601f447aa5824c48a7ac46cd","Mozilla/5.0 (Windows NT 10.0; Win64; x64) AppleWebKit/537.36 (KHTML, like Gecko) Chrome/88.0.4324.150 Safari/537.36","v1","","","","","","","","40,50,60,70,80","media/audio/stims/spherical_300cm_s20_c20_cd-full_matched_a80.wav","spherical","20","20","full","matched","80","70","3506"
"echo-presentation","9","313190","0.0-9.0","5ebc3cc7adb5e706b8021deb","5fef55e628823a0076ec12ee","601f447aa5824c48a7ac46cd","Mozilla/5.0 (Windows NT 10.0; Win64; x64) AppleWebKit/537.36 (KHTML, like Gecko) Chrome/88.0.4324.150 Safari/537.36","v1","","","","","","","","40,50,60,70,80","media/audio/stims/spherical_300cm_s20_c20_cd-full_matched_a40.wav","spherical","20","20","full","matched","40","70","5560"
"echo-presentation","10","322521","0.0-10.0","5ebc3cc7adb5e706b8021deb","5fef55e628823a0076ec12ee","601f447aa5824c48a7ac46cd","Mozilla/5.0 (Windows NT 10.0; Win64; x64) AppleWebKit/537.36 (KHTML, like Gecko) Chrome/88.0.4324.150 Safari/537.36","v1","","","","","","","","40,50,60,70,80","media/audio/stims/spherical_300cm_s20_c20_cd-full_matched_a40.wav","spherical","20","20","full","matched","40","60","7868"
"echo-presentation","11","328233","0.0-11.0","5ebc3cc7adb5e706b8021deb","5fef55e628823a0076ec12ee","601f447aa5824c48a7ac46cd","Mozilla/5.0 (Windows NT 10.0; Win64; x64) AppleWebKit/537.36 (KHTML, like Gecko) Chrome/88.0.4324.150 Safari/537.36","v1","","","","","","","","40,50,60,70,80","media/audio/stims/spherical_300cm_s20_c20_cd-full_matched_a60.wav","spherical","20","20","full","matched","60","70","3386"
"echo-presentation","12","332201","0.0-12.0","5ebc3cc7adb5e706b8021deb","5fef55e628823a0076ec12ee","601f447aa5824c48a7ac46cd","Mozilla/5.0 (Windows NT 10.0; Win64; x64) AppleWebKit/537.36 (KHTML, like Gecko) Chrome/88.0.4324.150 Safari/537.36","v1","","","","","","","","40,50,60,70,80","media/audio/stims/spherical_300cm_s20_c20_cd-full_matched_a50.wav","spherical","20","20","full","matched","50","70","2394"
"echo-presentation","13","335864","0.0-13.0","5ebc3cc7adb5e706b8021deb","5fef55e628823a0076ec12ee","601f447aa5824c48a7ac46cd","Mozilla/5.0 (Windows NT 10.0; Win64; x64) AppleWebKit/537.36 (KHTML, like Gecko) Chrome/88.0.4324.150 Safari/537.36","v1","","","","","","","","40,50,60,70,80","media/audio/stims/spherical_300cm_s20_c20_cd-full_matched_a70.wav","spherical","20","20","full","matched","70","70","2081"
"echo-presentation","14","339785","0.0-14.0","5ebc3cc7adb5e706b8021deb","5fef55e628823a0076ec12ee","601f447aa5824c48a7ac46cd","Mozilla/5.0 (Windows NT 10.0; Win64; x64) AppleWebKit/537.36 (KHTML, like Gecko) Chrome/88.0.4324.150 Safari/537.36","v1","","","","","","","","40,50,60,70,80","media/audio/stims/spherical_300cm_s20_c20_cd-full_matched_a60.wav","spherical","20","20","full","matched","60","70","2125"
"echo-presentation","15","344662","0.0-15.0","5ebc3cc7adb5e706b8021deb","5fef55e628823a0076ec12ee","601f447aa5824c48a7ac46cd","Mozilla/5.0 (Windows NT 10.0; Win64; x64) AppleWebKit/537.36 (KHTML, like Gecko) Chrome/88.0.4324.150 Safari/537.36","v1","","","","","","","","40,50,60,70,80","media/audio/stims/spherical_300cm_s20_c20_cd-full_matched_a70.wav","spherical","20","20","full","matched","70","70","3333"
"echo-presentation","16","347858","0.0-16.0","5ebc3cc7adb5e706b8021deb","5fef55e628823a0076ec12ee","601f447aa5824c48a7ac46cd","Mozilla/5.0 (Windows NT 10.0; Win64; x64) AppleWebKit/537.36 (KHTML, like Gecko) Chrome/88.0.4324.150 Safari/537.36","v1","","","","","","","","40,50,60,70,80","media/audio/stims/spherical_300cm_s20_c20_cd-full_matched_a50.wav","spherical","20","20","full","matched","50","70","1778"
"echo-presentation","17","351290","0.0-17.0","5ebc3cc7adb5e706b8021deb","5fef55e628823a0076ec12ee","601f447aa5824c48a7ac46cd","Mozilla/5.0 (Windows NT 10.0; Win64; x64) AppleWebKit/537.36 (KHTML, like Gecko) Chrome/88.0.4324.150 Safari/537.36","v1","","","","","","","","40,50,60,70,80","media/audio/stims/spherical_300cm_s20_c20_cd-full_matched_a40.wav","spherical","20","20","full","matched","40","70","1523"
"echo-presentation","18","354859","0.0-18.0","5ebc3cc7adb5e706b8021deb","5fef55e628823a0076ec12ee","601f447aa5824c48a7ac46cd","Mozilla/5.0 (Windows NT 10.0; Win64; x64) AppleWebKit/537.36 (KHTML, like Gecko) Chrome/88.0.4324.150 Safari/537.36","v1","","","","","","","","40,50,60,70,80","media/audio/stims/spherical_300cm_s20_c20_cd-full_matched_a80.wav","spherical","20","20","full","matched","80","70","1876"
"echo-presentation","19","358836","0.0-19.0","5ebc3cc7adb5e706b8021deb","5fef55e628823a0076ec12ee","601f447aa5824c48a7ac46cd","Mozilla/5.0 (Windows NT 10.0; Win64; x64) AppleWebKit/537.36 (KHTML, like Gecko) Chrome/88.0.4324.150 Safari/537.36","v1","","","","","","","","40,50,60,70,80","media/audio/stims/spherical_300cm_s20_c20_cd-full_matched_a70.wav","spherical","20","20","full","matched","70","70","2160"
"echo-presentation","20","363683","0.0-20.0","5ebc3cc7adb5e706b8021deb","5fef55e628823a0076ec12ee","601f447aa5824c48a7ac46cd","Mozilla/5.0 (Windows NT 10.0; Win64; x64) AppleWebKit/537.36 (KHTML, like Gecko) Chrome/88.0.4324.150 Safari/537.36","v1","","","","","","","","40,50,60,70,80","media/audio/stims/spherical_300cm_s20_c20_cd-full_matched_a60.wav","spherical","20","20","full","matched","60","60","3401"
"echo-presentation","21","367330","0.0-21.0","5ebc3cc7adb5e706b8021deb","5fef55e628823a0076ec12ee","601f447aa5824c48a7ac46cd","Mozilla/5.0 (Windows NT 10.0; Win64; x64) AppleWebKit/537.36 (KHTML, like Gecko) Chrome/88.0.4324.150 Safari/537.36","v1","","","","","","","","40,50,60,70,80","media/audio/stims/spherical_300cm_s20_c20_cd-full_matched_a70.wav","spherical","20","20","full","matched","70","60","2203"
"echo-presentation","22","373491","0.0-22.0","5ebc3cc7adb5e706b8021deb","5fef55e628823a0076ec12ee","601f447aa5824c48a7ac46cd","Mozilla/5.0 (Windows NT 10.0; Win64; x64) AppleWebKit/537.36 (KHTML, like Gecko) Chrome/88.0.4324.150 Safari/537.36","v1","","","","","","","","40,50,60,70,80","media/audio/stims/spherical_300cm_s20_c20_cd-full_matched_a80.wav","spherical","20","20","full","matched","80","60","4674"
"echo-presentation","23","378501","0.0-23.0","5ebc3cc7adb5e706b8021deb","5fef55e628823a0076ec12ee","601f447aa5824c48a7ac46cd","Mozilla/5.0 (Windows NT 10.0; Win64; x64) AppleWebKit/537.36 (KHTML, like Gecko) Chrome/88.0.4324.150 Safari/537.36","v1","","","","","","","","40,50,60,70,80","media/audio/stims/spherical_300cm_s20_c20_cd-full_matched_a50.wav","spherical","20","20","full","matched","50","70","3440"
"echo-presentation","24","381859","0.0-24.0","5ebc3cc7adb5e706b8021deb","5fef55e628823a0076ec12ee","601f447aa5824c48a7ac46cd","Mozilla/5.0 (Windows NT 10.0; Win64; x64) AppleWebKit/537.36 (KHTML, like Gecko) Chrome/88.0.4324.150 Safari/537.36","v1","","","","","","","","40,50,60,70,80","media/audio/stims/spherical_300cm_s20_c20_cd-full_matched_a40.wav","spherical","20","20","full","matched","40","70","2161"
"echo-presentation","25","385625","0.0-25.0","5ebc3cc7adb5e706b8021deb","5fef55e628823a0076ec12ee","601f447aa5824c48a7ac46cd","Mozilla/5.0 (Windows NT 10.0; Win64; x64) AppleWebKit/537.36 (KHTML, like Gecko) Chrome/88.0.4324.150 Safari/537.36","v1","","","","","","","","40,50,60,70,80","media/audio/stims/spherical_300cm_s20_c20_cd-full_matched_a80.wav","spherical","20","20","full","matched","80","70","2359"
"echo-presentation","26","389291","0.0-26.0","5ebc3cc7adb5e706b8021deb","5fef55e628823a0076ec12ee","601f447aa5824c48a7ac46cd","Mozilla/5.0 (Windows NT 10.0; Win64; x64) AppleWebKit/537.36 (KHTML, like Gecko) Chrome/88.0.4324.150 Safari/537.36","v1","","","","","","","","40,50,60,70,80","media/audio/stims/spherical_300cm_s20_c20_cd-full_matched_a50.wav","spherical","20","20","full","matched","50","70","2366"
"echo-presentation","27","392182","0.0-27.0","5ebc3cc7adb5e706b8021deb","5fef55e628823a0076ec12ee","601f447aa5824c48a7ac46cd","Mozilla/5.0 (Windows NT 10.0; Win64; x64) AppleWebKit/537.36 (KHTML, like Gecko) Chrome/88.0.4324.150 Safari/537.36","v1","","","","","","","","40,50,60,70,80","media/audio/stims/spherical_300cm_s20_c20_cd-full_matched_a60.wav","spherical","20","20","full","matched","60","70","1673"
"block-bookend","28","396507","0.0-28.0","5ebc3cc7adb5e706b8021deb","5fef55e628823a0076ec12ee","601f447aa5824c48a7ac46cd","Mozilla/5.0 (Windows NT 10.0; Win64; x64) AppleWebKit/537.36 (KHTML, like Gecko) Chrome/88.0.4324.150 Safari/537.36","v1","","","","","","","","","","","","","","","","",""
"block-bookend","29","406042","0.0-29.0","5ebc3cc7adb5e706b8021deb","5fef55e628823a0076ec12ee","601f447aa5824c48a7ac46cd","Mozilla/5.0 (Windows NT 10.0; Win64; x64) AppleWebKit/537.36 (KHTML, like Gecko) Chrome/88.0.4324.150 Safari/537.36","v1","","","","","","","","","","","","","","","","",""
"echo-presentation","30","417619","0.0-30.0","5ebc3cc7adb5e706b8021deb","5fef55e628823a0076ec12ee","601f447aa5824c48a7ac46cd","Mozilla/5.0 (Windows NT 10.0; Win64; x64) AppleWebKit/537.36 (KHTML, like Gecko) Chrome/88.0.4324.150 Safari/537.36","v1","","","","","","","","40,50,60,70,80","media/audio/stims/spherical_300cm_s20_c20_cd-full_matched_a70.wav","spherical","20","20","full","matched","70","60","9619"
"echo-presentation","31","426525","0.0-31.0","5ebc3cc7adb5e706b8021deb","5fef55e628823a0076ec12ee","601f447aa5824c48a7ac46cd","Mozilla/5.0 (Windows NT 10.0; Win64; x64) AppleWebKit/537.36 (KHTML, like Gecko) Chrome/88.0.4324.150 Safari/537.36","v1","","","","","","","","40,50,60,70,80","media/audio/stims/spherical_300cm_s20_c20_cd-full_matched_a80.wav","spherical","20","20","full","matched","80","70","7382"
"echo-presentation","32","431142","0.0-32.0","5ebc3cc7adb5e706b8021deb","5fef55e628823a0076ec12ee","601f447aa5824c48a7ac46cd","Mozilla/5.0 (Windows NT 10.0; Win64; x64) AppleWebKit/537.36 (KHTML, like Gecko) Chrome/88.0.4324.150 Safari/537.36","v1","","","","","","","","40,50,60,70,80","media/audio/stims/spherical_300cm_s20_c20_cd-full_matched_a60.wav","spherical","20","20","full","matched","60","80","3489"
"echo-presentation","33","435596","0.0-33.0","5ebc3cc7adb5e706b8021deb","5fef55e628823a0076ec12ee","601f447aa5824c48a7ac46cd","Mozilla/5.0 (Windows NT 10.0; Win64; x64) AppleWebKit/537.36 (KHTML, like Gecko) Chrome/88.0.4324.150 Safari/537.36","v1","","","","","","","","40,50,60,70,80","media/audio/stims/spherical_300cm_s20_c20_cd-full_matched_a80.wav","spherical","20","20","full","matched","80","70","3267"
"echo-presentation","34","449176","0.0-34.0","5ebc3cc7adb5e706b8021deb","5fef55e628823a0076ec12ee","601f447aa5824c48a7ac46cd","Mozilla/5.0 (Windows NT 10.0; Win64; x64) AppleWebKit/537.36 (KHTML, like Gecko) Chrome/88.0.4324.150 Safari/537.36","v1","","","","","","","","40,50,60,70,80","media/audio/stims/spherical_300cm_s20_c20_cd-full_matched_a80.wav","spherical","20","20","full","matched","80","70","2567"
"echo-presentation","35","454729","0.0-35.0","5ebc3cc7adb5e706b8021deb","5fef55e628823a0076ec12ee","601f447aa5824c48a7ac46cd","Mozilla/5.0 (Windows NT 10.0; Win64; x64) AppleWebKit/537.36 (KHTML, like Gecko) Chrome/88.0.4324.150 Safari/537.36","v1","","","","","","","","40,50,60,70,80","media/audio/stims/spherical_300cm_s20_c20_cd-full_matched_a40.wav","spherical","20","20","full","matched","40","70","3552"
"echo-presentation","36","457821","0.0-36.0","5ebc3cc7adb5e706b8021deb","5fef55e628823a0076ec12ee","601f447aa5824c48a7ac46cd","Mozilla/5.0 (Windows NT 10.0; Win64; x64) AppleWebKit/537.36 (KHTML, like Gecko) Chrome/88.0.4324.150 Safari/537.36","v1","","","","","","","","40,50,60,70,80","media/audio/stims/spherical_300cm_s20_c20_cd-full_matched_a60.wav","spherical","20","20","full","matched","60","70","2382"
"echo-presentation","37","460555","0.0-37.0","5ebc3cc7adb5e706b8021deb","5fef55e628823a0076ec12ee","601f447aa5824c48a7ac46cd","Mozilla/5.0 (Windows NT 10.0; Win64; x64) AppleWebKit/537.36 (KHTML, like Gecko) Chrome/88.0.4324.150 Safari/537.36","v1","","","","","","","","40,50,60,70,80","media/audio/stims/spherical_300cm_s20_c20_cd-full_matched_a50.wav","spherical","20","20","full","matched","50","80","1939"
"echo-presentation","38","464105","0.0-38.0","5ebc3cc7adb5e706b8021deb","5fef55e628823a0076ec12ee","601f447aa5824c48a7ac46cd","Mozilla/5.0 (Windows NT 10.0; Win64; x64) AppleWebKit/537.36 (KHTML, like Gecko) Chrome/88.0.4324.150 Safari/537.36","v1","","","","","","","","40,50,60,70,80","media/audio/stims/spherical_300cm_s20_c20_cd-full_matched_a60.wav","spherical","20","20","full","matched","60","80","2368"
"echo-presentation","39","467082","0.0-39.0","5ebc3cc7adb5e706b8021deb","5fef55e628823a0076ec12ee","601f447aa5824c48a7ac46cd","Mozilla/5.0 (Windows NT 10.0; Win64; x64) AppleWebKit/537.36 (KHTML, like Gecko) Chrome/88.0.4324.150 Safari/537.36","v1","","","","","","","","40,50,60,70,80","media/audio/stims/spherical_300cm_s20_c20_cd-full_matched_a60.wav","spherical","20","20","full","matched","60","60","1795"
"echo-presentation","40","471973","0.0-40.0","5ebc3cc7adb5e706b8021deb","5fef55e628823a0076ec12ee","601f447aa5824c48a7ac46cd","Mozilla/5.0 (Windows NT 10.0; Win64; x64) AppleWebKit/537.36 (KHTML, like Gecko) Chrome/88.0.4324.150 Safari/537.36","v1","","","","","","","","40,50,60,70,80","media/audio/stims/spherical_300cm_s20_c20_cd-full_matched_a80.wav","spherical","20","20","full","matched","80","60","3476"
"echo-presentation","41","476086","0.0-41.0","5ebc3cc7adb5e706b8021deb","5fef55e628823a0076ec12ee","601f447aa5824c48a7ac46cd","Mozilla/5.0 (Windows NT 10.0; Win64; x64) AppleWebKit/537.36 (KHTML, like Gecko) Chrome/88.0.4324.150 Safari/537.36","v1","","","","","","","","40,50,60,70,80","media/audio/stims/spherical_300cm_s20_c20_cd-full_matched_a40.wav","spherical","20","20","full","matched","40","70","2956"
"echo-presentation","42","478899","0.0-42.0","5ebc3cc7adb5e706b8021deb","5fef55e628823a0076ec12ee","601f447aa5824c48a7ac46cd","Mozilla/5.0 (Windows NT 10.0; Win64; x64) AppleWebKit/537.36 (KHTML, like Gecko) Chrome/88.0.4324.150 Safari/537.36","v1","","","","","","","","40,50,60,70,80","media/audio/stims/spherical_300cm_s20_c20_cd-full_matched_a50.wav","spherical","20","20","full","matched","50","70","1838"
"echo-presentation","43","482005","0.0-43.0","5ebc3cc7adb5e706b8021deb","5fef55e628823a0076ec12ee","601f447aa5824c48a7ac46cd","Mozilla/5.0 (Windows NT 10.0; Win64; x64) AppleWebKit/537.36 (KHTML, like Gecko) Chrome/88.0.4324.150 Safari/537.36","v1","","","","","","","","40,50,60,70,80","media/audio/stims/spherical_300cm_s20_c20_cd-full_matched_a70.wav","spherical","20","20","full","matched","70","70","1905"
"echo-presentation","44","485824","0.0-44.0","5ebc3cc7adb5e706b8021deb","5fef55e628823a0076ec12ee","601f447aa5824c48a7ac46cd","Mozilla/5.0 (Windows NT 10.0; Win64; x64) AppleWebKit/537.36 (KHTML, like Gecko) Chrome/88.0.4324.150 Safari/537.36","v1","","","","","","","","40,50,60,70,80","media/audio/stims/spherical_300cm_s20_c20_cd-full_matched_a40.wav","spherical","20","20","full","matched","40","70","2283"
"echo-presentation","45","489338","0.0-45.0","5ebc3cc7adb5e706b8021deb","5fef55e628823a0076ec12ee","601f447aa5824c48a7ac46cd","Mozilla/5.0 (Windows NT 10.0; Win64; x64) AppleWebKit/537.36 (KHTML, like Gecko) Chrome/88.0.4324.150 Safari/537.36","v1","","","","","","","","40,50,60,70,80","media/audio/stims/spherical_300cm_s20_c20_cd-full_matched_a50.wav","spherical","20","20","full","matched","50","70","2335"
"echo-presentation","46","492631","0.0-46.0","5ebc3cc7adb5e706b8021deb","5fef55e628823a0076ec12ee","601f447aa5824c48a7ac46cd","Mozilla/5.0 (Windows NT 10.0; Win64; x64) AppleWebKit/537.36 (KHTML, like Gecko) Chrome/88.0.4324.150 Safari/537.36","v1","","","","","","","","40,50,60,70,80","media/audio/stims/spherical_300cm_s20_c20_cd-full_matched_a40.wav","spherical","20","20","full","matched","40","70","1944"
"echo-presentation","47","495503","0.0-47.0","5ebc3cc7adb5e706b8021deb","5fef55e628823a0076ec12ee","601f447aa5824c48a7ac46cd","Mozilla/5.0 (Windows NT 10.0; Win64; x64) AppleWebKit/537.36 (KHTML, like Gecko) Chrome/88.0.4324.150 Safari/537.36","v1","","","","","","","","40,50,60,70,80","media/audio/stims/spherical_300cm_s20_c20_cd-full_matched_a70.wav","spherical","20","20","full","matched","70","60","1668"
"echo-presentation","48","498718","0.0-48.0","5ebc3cc7adb5e706b8021deb","5fef55e628823a0076ec12ee","601f447aa5824c48a7ac46cd","Mozilla/5.0 (Windows NT 10.0; Win64; x64) AppleWebKit/537.36 (KHTML, like Gecko) Chrome/88.0.4324.150 Safari/537.36","v1","","","","","","","","40,50,60,70,80","media/audio/stims/spherical_300cm_s20_c20_cd-full_matched_a50.wav","spherical","20","20","full","matched","50","70","2003"
"echo-presentation","49","502242","0.0-49.0","5ebc3cc7adb5e706b8021deb","5fef55e628823a0076ec12ee","601f447aa5824c48a7ac46cd","Mozilla/5.0 (Windows NT 10.0; Win64; x64) AppleWebKit/537.36 (KHTML, like Gecko) Chrome/88.0.4324.150 Safari/537.36","v1","","","","","","","","40,50,60,70,80","media/audio/stims/spherical_300cm_s20_c20_cd-full_matched_a70.wav","spherical","20","20","full","matched","70","70","2184"
"block-bookend","50","505992","0.0-50.0","5ebc3cc7adb5e706b8021deb","5fef55e628823a0076ec12ee","601f447aa5824c48a7ac46cd","Mozilla/5.0 (Windows NT 10.0; Win64; x64) AppleWebKit/537.36 (KHTML, like Gecko) Chrome/88.0.4324.150 Safari/537.36","v1","","","","","","","","","","","","","","","","",""
"block-bookend","51","526027","0.0-51.0","5ebc3cc7adb5e706b8021deb","5fef55e628823a0076ec12ee","601f447aa5824c48a7ac46cd","Mozilla/5.0 (Windows NT 10.0; Win64; x64) AppleWebKit/537.36 (KHTML, like Gecko) Chrome/88.0.4324.150 Safari/537.36","v1","","","","","","","","","","","","","","","","",""
"echo-presentation","52","533614","0.0-52.0","5ebc3cc7adb5e706b8021deb","5fef55e628823a0076ec12ee","601f447aa5824c48a7ac46cd","Mozilla/5.0 (Windows NT 10.0; Win64; x64) AppleWebKit/537.36 (KHTML, like Gecko) Chrome/88.0.4324.150 Safari/537.36","v1","","","","","","","","-80,-70,-60,-50,-40","media/audio/stims/spherical_300cm_s20_c20_cd-full_matched_a-50.wav","spherical","20","20","full","matched","-50","-70","5782"
"echo-presentation","53","537338","0.0-53.0","5ebc3cc7adb5e706b8021deb","5fef55e628823a0076ec12ee","601f447aa5824c48a7ac46cd","Mozilla/5.0 (Windows NT 10.0; Win64; x64) AppleWebKit/537.36 (KHTML, like Gecko) Chrome/88.0.4324.150 Safari/537.36","v1","","","","","","","","-80,-70,-60,-50,-40","media/audio/stims/spherical_300cm_s20_c20_cd-full_matched_a-60.wav","spherical","20","20","full","matched","-60","-60","2749"
"echo-presentation","54","540092","0.0-54.0","5ebc3cc7adb5e706b8021deb","5fef55e628823a0076ec12ee","601f447aa5824c48a7ac46cd","Mozilla/5.0 (Windows NT 10.0; Win64; x64) AppleWebKit/537.36 (KHTML, like Gecko) Chrome/88.0.4324.150 Safari/537.36","v1","","","","","","","","-80,-70,-60,-50,-40","media/audio/stims/spherical_300cm_s20_c20_cd-full_matched_a-70.wav","spherical","20","20","full","matched","-70","-60","1839"
"echo-presentation","55","544521","0.0-55.0","5ebc3cc7adb5e706b8021deb","5fef55e628823a0076ec12ee","601f447aa5824c48a7ac46cd","Mozilla/5.0 (Windows NT 10.0; Win64; x64) AppleWebKit/537.36 (KHTML, like Gecko) Chrome/88.0.4324.150 Safari/537.36","v1","","","","","","","","-80,-70,-60,-50,-40","media/audio/stims/spherical_300cm_s20_c20_cd-full_matched_a-50.wav","spherical","20","20","full","matched","-50","-70","3880"
"echo-presentation","56","547476","0.0-56.0","5ebc3cc7adb5e706b8021deb","5fef55e628823a0076ec12ee","601f447aa5824c48a7ac46cd","Mozilla/5.0 (Windows NT 10.0; Win64; x64) AppleWebKit/537.36 (KHTML, like Gecko) Chrome/88.0.4324.150 Safari/537.36","v1","","","","","","","","-80,-70,-60,-50,-40","media/audio/stims/spherical_300cm_s20_c20_cd-full_matched_a-50.wav","spherical","20","20","full","matched","-50","-70","1967"
"echo-presentation","57","549615","0.0-57.0","5ebc3cc7adb5e706b8021deb","5fef55e628823a0076ec12ee","601f447aa5824c48a7ac46cd","Mozilla/5.0 (Windows NT 10.0; Win64; x64) AppleWebKit/537.36 (KHTML, like Gecko) Chrome/88.0.4324.150 Safari/537.36","v1","","","","","","","","-80,-70,-60,-50,-40","media/audio/stims/spherical_300cm_s20_c20_cd-full_matched_a-70.wav","spherical","20","20","full","matched","-70","-60","1585"
"echo-presentation","58","552451","0.0-58.0","5ebc3cc7adb5e706b8021deb","5fef55e628823a0076ec12ee","601f447aa5824c48a7ac46cd","Mozilla/5.0 (Windows NT 10.0; Win64; x64) AppleWebKit/537.36 (KHTML, like Gecko) Chrome/88.0.4324.150 Safari/537.36","v1","","","","","","","","-80,-70,-60,-50,-40","media/audio/stims/spherical_300cm_s20_c20_cd-full_matched_a-70.wav","spherical","20","20","full","matched","-70","-60","2157"
"echo-presentation","59","554591","0.0-59.0","5ebc3cc7adb5e706b8021deb","5fef55e628823a0076ec12ee","601f447aa5824c48a7ac46cd","Mozilla/5.0 (Windows NT 10.0; Win64; x64) AppleWebKit/537.36 (KHTML, like Gecko) Chrome/88.0.4324.150 Safari/537.36","v1","","","","","","","","-80,-70,-60,-50,-40","media/audio/stims/spherical_300cm_s20_c20_cd-full_matched_a-60.wav","spherical","20","20","full","matched","-60","-60","1556"
"echo-presentation","60","556661","0.0-60.0","5ebc3cc7adb5e706b8021deb","5fef55e628823a0076ec12ee","601f447aa5824c48a7ac46cd","Mozilla/5.0 (Windows NT 10.0; Win64; x64) AppleWebKit/537.36 (KHTML, like Gecko) Chrome/88.0.4324.150 Safari/537.36","v1","","","","","","","","-80,-70,-60,-50,-40","media/audio/stims/spherical_300cm_s20_c20_cd-full_matched_a-40.wav","spherical","20","20","full","matched","-40","-70","1454"
"echo-presentation","61","559043","0.0-61.0","5ebc3cc7adb5e706b8021deb","5fef55e628823a0076ec12ee","601f447aa5824c48a7ac46cd","Mozilla/5.0 (Windows NT 10.0; Win64; x64) AppleWebKit/537.36 (KHTML, like Gecko) Chrome/88.0.4324.150 Safari/537.36","v1","","","","","","","","-80,-70,-60,-50,-40","media/audio/stims/spherical_300cm_s20_c20_cd-full_matched_a-50.wav","spherical","20","20","full","matched","-50","-70","1580"
"echo-presentation","62","561670","0.0-62.0","5ebc3cc7adb5e706b8021deb","5fef55e628823a0076ec12ee","601f447aa5824c48a7ac46cd","Mozilla/5.0 (Windows NT 10.0; Win64; x64) AppleWebKit/537.36 (KHTML, like Gecko) Chrome/88.0.4324.150 Safari/537.36","v1","","","","","","","","-80,-70,-60,-50,-40","media/audio/stims/spherical_300cm_s20_c20_cd-full_matched_a-80.wav","spherical","20","20","full","matched","-80","-60","1581"
"echo-presentation","63","565151","0.0-63.0","5ebc3cc7adb5e706b8021deb","5fef55e628823a0076ec12ee","601f447aa5824c48a7ac46cd","Mozilla/5.0 (Windows NT 10.0; Win64; x64) AppleWebKit/537.36 (KHTML, like Gecko) Chrome/88.0.4324.150 Safari/537.36","v1","","","","","","","","-80,-70,-60,-50,-40","media/audio/stims/spherical_300cm_s20_c20_cd-full_matched_a-60.wav","spherical","20","20","full","matched","-60","-50","2910"
"echo-presentation","64","567368","0.0-64.0","5ebc3cc7adb5e706b8021deb","5fef55e628823a0076ec12ee","601f447aa5824c48a7ac46cd","Mozilla/5.0 (Windows NT 10.0; Win64; x64) AppleWebKit/537.36 (KHTML, like Gecko) Chrome/88.0.4324.150 Safari/537.36","v1","","","","","","","","-80,-70,-60,-50,-40","media/audio/stims/spherical_300cm_s20_c20_cd-full_matched_a-40.wav","spherical","20","20","full","matched","-40","-60","1413"
"echo-presentation","65","569365","0.0-65.0","5ebc3cc7adb5e706b8021deb","5fef55e628823a0076ec12ee","601f447aa5824c48a7ac46cd","Mozilla/5.0 (Windows NT 10.0; Win64; x64) AppleWebKit/537.36 (KHTML, like Gecko) Chrome/88.0.4324.150 Safari/537.36","v1","","","","","","","","-80,-70,-60,-50,-40","media/audio/stims/spherical_300cm_s20_c20_cd-full_matched_a-80.wav","spherical","20","20","full","matched","-80","-50","1387"
"echo-presentation","66","572201","0.0-66.0","5ebc3cc7adb5e706b8021deb","5fef55e628823a0076ec12ee","601f447aa5824c48a7ac46cd","Mozilla/5.0 (Windows NT 10.0; Win64; x64) AppleWebKit/537.36 (KHTML, like Gecko) Chrome/88.0.4324.150 Safari/537.36","v1","","","","","","","","-80,-70,-60,-50,-40","media/audio/stims/spherical_300cm_s20_c20_cd-full_matched_a-60.wav","spherical","20","20","full","matched","-60","-60","2178"
"echo-presentation","67","576281","0.0-67.0","5ebc3cc7adb5e706b8021deb","5fef55e628823a0076ec12ee","601f447aa5824c48a7ac46cd","Mozilla/5.0 (Windows NT 10.0; Win64; x64) AppleWebKit/537.36 (KHTML, like Gecko) Chrome/88.0.4324.150 Safari/537.36","v1","","","","","","","","-80,-70,-60,-50,-40","media/audio/stims/spherical_300cm_s20_c20_cd-full_matched_a-80.wav","spherical","20","20","full","matched","-80","-60","1551"
"echo-presentation","68","578843","0.0-68.0","5ebc3cc7adb5e706b8021deb","5fef55e628823a0076ec12ee","601f447aa5824c48a7ac46cd","Mozilla/5.0 (Windows NT 10.0; Win64; x64) AppleWebKit/537.36 (KHTML, like Gecko) Chrome/88.0.4324.150 Safari/537.36","v1","","","","","","","","-80,-70,-60,-50,-40","media/audio/stims/spherical_300cm_s20_c20_cd-full_matched_a-70.wav","spherical","20","20","full","matched","-70","-50","1440"
"echo-presentation","69","581555","0.0-69.0","5ebc3cc7adb5e706b8021deb","5fef55e628823a0076ec12ee","601f447aa5824c48a7ac46cd","Mozilla/5.0 (Windows NT 10.0; Win64; x64) AppleWebKit/537.36 (KHTML, like Gecko) Chrome/88.0.4324.150 Safari/537.36","v1","","","","","","","","-80,-70,-60,-50,-40","media/audio/stims/spherical_300cm_s20_c20_cd-full_matched_a-40.wav","spherical","20","20","full","matched","-40","-60","1607"
"echo-presentation","70","584222","0.0-70.0","5ebc3cc7adb5e706b8021deb","5fef55e628823a0076ec12ee","601f447aa5824c48a7ac46cd","Mozilla/5.0 (Windows NT 10.0; Win64; x64) AppleWebKit/537.36 (KHTML, like Gecko) Chrome/88.0.4324.150 Safari/537.36","v1","","","","","","","","-80,-70,-60,-50,-40","media/audio/stims/spherical_300cm_s20_c20_cd-full_matched_a-40.wav","spherical","20","20","full","matched","-40","-70","1706"
"echo-presentation","71","586883","0.0-71.0","5ebc3cc7adb5e706b8021deb","5fef55e628823a0076ec12ee","601f447aa5824c48a7ac46cd","Mozilla/5.0 (Windows NT 10.0; Win64; x64) AppleWebKit/537.36 (KHTML, like Gecko) Chrome/88.0.4324.150 Safari/537.36","v1","","","","","","","","-80,-70,-60,-50,-40","media/audio/stims/spherical_300cm_s20_c20_cd-full_matched_a-80.wav","spherical","20","20","full","matched","-80","-60","1601"
"block-bookend","72","592072","0.0-72.0","5ebc3cc7adb5e706b8021deb","5fef55e628823a0076ec12ee","601f447aa5824c48a7ac46cd","Mozilla/5.0 (Windows NT 10.0; Win64; x64) AppleWebKit/537.36 (KHTML, like Gecko) Chrome/88.0.4324.150 Safari/537.36","v1","","","","","","","","","","","","","","","","",""
"block-bookend","73","602029","0.0-73.0","5ebc3cc7adb5e706b8021deb","5fef55e628823a0076ec12ee","601f447aa5824c48a7ac46cd","Mozilla/5.0 (Windows NT 10.0; Win64; x64) AppleWebKit/537.36 (KHTML, like Gecko) Chrome/88.0.4324.150 Safari/537.36","v1","","","","","","","","","","","","","","","","",""
"echo-presentation","74","605991","0.0-74.0","5ebc3cc7adb5e706b8021deb","5fef55e628823a0076ec12ee","601f447aa5824c48a7ac46cd","Mozilla/5.0 (Windows NT 10.0; Win64; x64) AppleWebKit/537.36 (KHTML, like Gecko) Chrome/88.0.4324.150 Safari/537.36","v1","","","","","","","","-80,-70,-60,-50,-40","media/audio/stims/spherical_300cm_s20_c20_cd-full_matched_a-40.wav","spherical","20","20","full","matched","-40","-60","2009"
"echo-presentation","75","609186","0.0-75.0","5ebc3cc7adb5e706b8021deb","5fef55e628823a0076ec12ee","601f447aa5824c48a7ac46cd","Mozilla/5.0 (Windows NT 10.0; Win64; x64) AppleWebKit/537.36 (KHTML, like Gecko) Chrome/88.0.4324.150 Safari/537.36","v1","","","","","","","","-80,-70,-60,-50,-40","media/audio/stims/spherical_300cm_s20_c20_cd-full_matched_a-80.wav","spherical","20","20","full","matched","-80","-70","1741"
"echo-presentation","76","611340","0.0-76.0","5ebc3cc7adb5e706b8021deb","5fef55e628823a0076ec12ee","601f447aa5824c48a7ac46cd","Mozilla/5.0 (Windows NT 10.0; Win64; x64) AppleWebKit/537.36 (KHTML, like Gecko) Chrome/88.0.4324.150 Safari/537.36","v1","","","","","","","","-80,-70,-60,-50,-40","media/audio/stims/spherical_300cm_s20_c20_cd-full_matched_a-50.wav","spherical","20","20","full","matched","-50","-70","1444"
"echo-presentation","77","613299","0.0-77.0","5ebc3cc7adb5e706b8021deb","5fef55e628823a0076ec12ee","601f447aa5824c48a7ac46cd","Mozilla/5.0 (Windows NT 10.0; Win64; x64) AppleWebKit/537.36 (KHTML, like Gecko) Chrome/88.0.4324.150 Safari/537.36","v1","","","","","","","","-80,-70,-60,-50,-40","media/audio/stims/spherical_300cm_s20_c20_cd-full_matched_a-50.wav","spherical","20","20","full","matched","-50","-60","1380"
"echo-presentation","78","615340","0.0-78.0","5ebc3cc7adb5e706b8021deb","5fef55e628823a0076ec12ee","601f447aa5824c48a7ac46cd","Mozilla/5.0 (Windows NT 10.0; Win64; x64) AppleWebKit/537.36 (KHTML, like Gecko) Chrome/88.0.4324.150 Safari/537.36","v1","","","","","","","","-80,-70,-60,-50,-40","media/audio/stims/spherical_300cm_s20_c20_cd-full_matched_a-40.wav","spherical","20","20","full","matched","-40","-50","1523"
"echo-presentation","79","618819","0.0-79.0","5ebc3cc7adb5e706b8021deb","5fef55e628823a0076ec12ee","601f447aa5824c48a7ac46cd","Mozilla/5.0 (Windows NT 10.0; Win64; x64) AppleWebKit/537.36 (KHTML, like Gecko) Chrome/88.0.4324.150 Safari/537.36","v1","","","","","","","","-80,-70,-60,-50,-40","media/audio/stims/spherical_300cm_s20_c20_cd-full_matched_a-60.wav","spherical","20","20","full","matched","-60","-60","1412"
"echo-presentation","80","621833","0.0-80.0","5ebc3cc7adb5e706b8021deb","5fef55e628823a0076ec12ee","601f447aa5824c48a7ac46cd","Mozilla/5.0 (Windows NT 10.0; Win64; x64) AppleWebKit/537.36 (KHTML, like Gecko) Chrome/88.0.4324.150 Safari/537.36","v1","","","","","","","","-80,-70,-60,-50,-40","media/audio/stims/spherical_300cm_s20_c20_cd-full_matched_a-60.wav","spherical","20","20","full","matched","-60","-60","2339"
"echo-presentation","81","625043","0.0-81.0","5ebc3cc7adb5e706b8021deb","5fef55e628823a0076ec12ee","601f447aa5824c48a7ac46cd","Mozilla/5.0 (Windows NT 10.0; Win64; x64) AppleWebKit/537.36 (KHTML, like Gecko) Chrome/88.0.4324.150 Safari/537.36","v1","","","","","","","","-80,-70,-60,-50,-40","media/audio/stims/spherical_300cm_s20_c20_cd-full_matched_a-70.wav","spherical","20","20","full","matched","-70","-70","1212"
"echo-presentation","82","627495","0.0-82.0","5ebc3cc7adb5e706b8021deb","5fef55e628823a0076ec12ee","601f447aa5824c48a7ac46cd","Mozilla/5.0 (Windows NT 10.0; Win64; x64) AppleWebKit/537.36 (KHTML, like Gecko) Chrome/88.0.4324.150 Safari/537.36","v1","","","","","","","","-80,-70,-60,-50,-40","media/audio/stims/spherical_300cm_s20_c20_cd-full_matched_a-80.wav","spherical","20","20","full","matched","-80","-70","1395"
"echo-presentation","83","632612","0.0-83.0","5ebc3cc7adb5e706b8021deb","5fef55e628823a0076ec12ee","601f447aa5824c48a7ac46cd","Mozilla/5.0 (Windows NT 10.0; Win64; x64) AppleWebKit/537.36 (KHTML, like Gecko) Chrome/88.0.4324.150 Safari/537.36","v1","","","","","","","","-80,-70,-60,-50,-40","media/audio/stims/spherical_300cm_s20_c20_cd-full_matched_a-80.wav","spherical","20","20","full","matched","-80","-70","4093"
"echo-presentation","84","634749","0.0-84.0","5ebc3cc7adb5e706b8021deb","5fef55e628823a0076ec12ee","601f447aa5824c48a7ac46cd","Mozilla/5.0 (Windows NT 10.0; Win64; x64) AppleWebKit/537.36 (KHTML, like Gecko) Chrome/88.0.4324.150 Safari/537.36","v1","","","","","","","","-80,-70,-60,-50,-40","media/audio/stims/spherical_300cm_s20_c20_cd-full_matched_a-40.wav","spherical","20","20","full","matched","-40","-60","1362"
"echo-presentation","85","639576","0.0-85.0","5ebc3cc7adb5e706b8021deb","5fef55e628823a0076ec12ee","601f447aa5824c48a7ac46cd","Mozilla/5.0 (Windows NT 10.0; Win64; x64) AppleWebKit/537.36 (KHTML, like Gecko) Chrome/88.0.4324.150 Safari/537.36","v1","","","","","","","","-80,-70,-60,-50,-40","media/audio/stims/spherical_300cm_s20_c20_cd-full_matched_a-70.wav","spherical","20","20","full","matched","-70","-60","3811"
"echo-presentation","86","641958","0.0-86.0","5ebc3cc7adb5e706b8021deb","5fef55e628823a0076ec12ee","601f447aa5824c48a7ac46cd","Mozilla/5.0 (Windows NT 10.0; Win64; x64) AppleWebKit/537.36 (KHTML, like Gecko) Chrome/88.0.4324.150 Safari/537.36","v1","","","","","","","","-80,-70,-60,-50,-40","media/audio/stims/spherical_300cm_s20_c20_cd-full_matched_a-50.wav","spherical","20","20","full","matched","-50","-50","1575"
"echo-presentation","87","644302","0.0-87.0","5ebc3cc7adb5e706b8021deb","5fef55e628823a0076ec12ee","601f447aa5824c48a7ac46cd","Mozilla/5.0 (Windows NT 10.0; Win64; x64) AppleWebKit/537.36 (KHTML, like Gecko) Chrome/88.0.4324.150 Safari/537.36","v1","","","","","","","","-80,-70,-60,-50,-40","media/audio/stims/spherical_300cm_s20_c20_cd-full_matched_a-40.wav","spherical","20","20","full","matched","-40","-40","1536"
"echo-presentation","88","647686","0.0-88.0","5ebc3cc7adb5e706b8021deb","5fef55e628823a0076ec12ee","601f447aa5824c48a7ac46cd","Mozilla/5.0 (Windows NT 10.0; Win64; x64) AppleWebKit/537.36 (KHTML, like Gecko) Chrome/88.0.4324.150 Safari/537.36","v1","","","","","","","","-80,-70,-60,-50,-40","media/audio/stims/spherical_300cm_s20_c20_cd-full_matched_a-50.wav","spherical","20","20","full","matched","-50","-60","2378"
"echo-presentation","89","650352","0.0-89.0","5ebc3cc7adb5e706b8021deb","5fef55e628823a0076ec12ee","601f447aa5824c48a7ac46cd","Mozilla/5.0 (Windows NT 10.0; Win64; x64) AppleWebKit/537.36 (KHTML, like Gecko) Chrome/88.0.4324.150 Safari/537.36","v1","","","","","","","","-80,-70,-60,-50,-40","media/audio/stims/spherical_300cm_s20_c20_cd-full_matched_a-60.wav","spherical","20","20","full","matched","-60","-60","1923"
"echo-presentation","90","655695","0.0-90.0","5ebc3cc7adb5e706b8021deb","5fef55e628823a0076ec12ee","601f447aa5824c48a7ac46cd","Mozilla/5.0 (Windows NT 10.0; Win64; x64) AppleWebKit/537.36 (KHTML, like Gecko) Chrome/88.0.4324.150 Safari/537.36","v1","","","","","","","","-80,-70,-60,-50,-40","media/audio/stims/spherical_300cm_s20_c20_cd-full_matched_a-70.wav","spherical","20","20","full","matched","-70","-70","3707"
"echo-presentation","91","658502","0.0-91.0","5ebc3cc7adb5e706b8021deb","5fef55e628823a0076ec12ee","601f447aa5824c48a7ac46cd","Mozilla/5.0 (Windows NT 10.0; Win64; x64) AppleWebKit/537.36 (KHTML, like Gecko) Chrome/88.0.4324.150 Safari/537.36","v1","","","","","","","","-80,-70,-60,-50,-40","media/audio/stims/spherical_300cm_s20_c20_cd-full_matched_a-80.wav","spherical","20","20","full","matched","-80","-70","2210"
"echo-presentation","92","661912","0.0-92.0","5ebc3cc7adb5e706b8021deb","5fef55e628823a0076ec12ee","601f447aa5824c48a7ac46cd","Mozilla/5.0 (Windows NT 10.0; Win64; x64) AppleWebKit/537.36 (KHTML, like Gecko) Chrome/88.0.4324.150 Safari/537.36","v1","","","","","","","","-80,-70,-60,-50,-40","media/audio/stims/spherical_300cm_s20_c20_cd-full_matched_a-60.wav","spherical","20","20","full","matched","-60","-70","1775"
"echo-presentation","93","664858","0.0-93.0","5ebc3cc7adb5e706b8021deb","5fef55e628823a0076ec12ee","601f447aa5824c48a7ac46cd","Mozilla/5.0 (Windows NT 10.0; Win64; x64) AppleWebKit/537.36 (KHTML, like Gecko) Chrome/88.0.4324.150 Safari/537.36","v1","","","","","","","","-80,-70,-60,-50,-40","media/audio/stims/spherical_300cm_s20_c20_cd-full_matched_a-70.wav","spherical","20","20","full","matched","-70","-80","1701"
"block-bookend","94","668412","0.0-94.0","5ebc3cc7adb5e706b8021deb","5fef55e628823a0076ec12ee","601f447aa5824c48a7ac46cd","Mozilla/5.0 (Windows NT 10.0; Win64; x64) AppleWebKit/537.36 (KHTML, like Gecko) Chrome/88.0.4324.150 Safari/537.36","v1","","","","","","","","","","","","","","","","",""
"block-bookend","95","676142","0.0-95.0","5ebc3cc7adb5e706b8021deb","5fef55e628823a0076ec12ee","601f447aa5824c48a7ac46cd","Mozilla/5.0 (Windows NT 10.0; Win64; x64) AppleWebKit/537.36 (KHTML, like Gecko) Chrome/88.0.4324.150 Safari/537.36","v1","","","","","","","","","","","","","","","","",""
"echo-presentation","96","682061","0.0-96.0","5ebc3cc7adb5e706b8021deb","5fef55e628823a0076ec12ee","601f447aa5824c48a7ac46cd","Mozilla/5.0 (Windows NT 10.0; Win64; x64) AppleWebKit/537.36 (KHTML, like Gecko) Chrome/88.0.4324.150 Safari/537.36","v1","","","","","","","","-20,-10,0,10,20","media/audio/stims/spherical_300cm_s20_c20_cd-full_matched_a10.wav","spherical","20","20","full","matched","10","10","3663"
"echo-presentation","97","685150","0.0-97.0","5ebc3cc7adb5e706b8021deb","5fef55e628823a0076ec12ee","601f447aa5824c48a7ac46cd","Mozilla/5.0 (Windows NT 10.0; Win64; x64) AppleWebKit/537.36 (KHTML, like Gecko) Chrome/88.0.4324.150 Safari/537.36","v1","","","","","","","","-20,-10,0,10,20","media/audio/stims/spherical_300cm_s20_c20_cd-full_matched_a-20.wav","spherical","20","20","full","matched","-20","-10","1865"
"echo-presentation","98","687530","0.0-98.0","5ebc3cc7adb5e706b8021deb","5fef55e628823a0076ec12ee","601f447aa5824c48a7ac46cd","Mozilla/5.0 (Windows NT 10.0; Win64; x64) AppleWebKit/537.36 (KHTML, like Gecko) Chrome/88.0.4324.150 Safari/537.36","v1","","","","","","","","-20,-10,0,10,20","media/audio/stims/spherical_300cm_s20_c20_cd-full_matched_a-20.wav","spherical","20","20","full","matched","-20","-20","1636"
"echo-presentation","99","690612","0.0-99.0","5ebc3cc7adb5e706b8021deb","5fef55e628823a0076ec12ee","601f447aa5824c48a7ac46cd","Mozilla/5.0 (Windows NT 10.0; Win64; x64) AppleWebKit/537.36 (KHTML, like Gecko) Chrome/88.0.4324.150 Safari/537.36","v1","","","","","","","","-20,-10,0,10,20","media/audio/stims/spherical_300cm_s20_c20_cd-full_matched_a-20.wav","spherical","20","20","full","matched","-20","-10","1729"
"echo-presentation","100","692797","0.0-100.0","5ebc3cc7adb5e706b8021deb","5fef55e628823a0076ec12ee","601f447aa5824c48a7ac46cd","Mozilla/5.0 (Windows NT 10.0; Win64; x64) AppleWebKit/537.36 (KHTML, like Gecko) Chrome/88.0.4324.150 Safari/537.36","v1","","","","","","","","-20,-10,0,10,20","media/audio/stims/spherical_300cm_s20_c20_cd-full_matched_a-10.wav","spherical","20","20","full","matched","-10","-10","1662"
"echo-presentation","101","695670","0.0-101.0","5ebc3cc7adb5e706b8021deb","5fef55e628823a0076ec12ee","601f447aa5824c48a7ac46cd","Mozilla/5.0 (Windows NT 10.0; Win64; x64) AppleWebKit/537.36 (KHTML, like Gecko) Chrome/88.0.4324.150 Safari/537.36","v1","","","","","","","","-20,-10,0,10,20","media/audio/stims/spherical_300cm_s20_c20_cd-full_matched_a0.wav","spherical","20","20","full","matched","0","0","2071"
"echo-presentation","102","698621","0.0-102.0","5ebc3cc7adb5e706b8021deb","5fef55e628823a0076ec12ee","601f447aa5824c48a7ac46cd","Mozilla/5.0 (Windows NT 10.0; Win64; x64) AppleWebKit/537.36 (KHTML, like Gecko) Chrome/88.0.4324.150 Safari/537.36","v1","","","","","","","","-20,-10,0,10,20","media/audio/stims/spherical_300cm_s20_c20_cd-full_matched_a20.wav","spherical","20","20","full","matched","20","10","2189"
"echo-presentation","103","701716","0.0-103.0","5ebc3cc7adb5e706b8021deb","5fef55e628823a0076ec12ee","601f447aa5824c48a7ac46cd","Mozilla/5.0 (Windows NT 10.0; Win64; x64) AppleWebKit/537.36 (KHTML, like Gecko) Chrome/88.0.4324.150 Safari/537.36","v1","","","","","","","","-20,-10,0,10,20","media/audio/stims/spherical_300cm_s20_c20_cd-full_matched_a0.wav","spherical","20","20","full","matched","0","20","2330"
"echo-presentation","104","704548","0.0-104.0","5ebc3cc7adb5e706b8021deb","5fef55e628823a0076ec12ee","601f447aa5824c48a7ac46cd","Mozilla/5.0 (Windows NT 10.0; Win64; x64) AppleWebKit/537.36 (KHTML, like Gecko) Chrome/88.0.4324.150 Safari/537.36","v1","","","","","","","","-20,-10,0,10,20","media/audio/stims/spherical_300cm_s20_c20_cd-full_matched_a10.wav","spherical","20","20","full","matched","10","20","1847"
"echo-presentation","105","707548","0.0-105.0","5ebc3cc7adb5e706b8021deb","5fef55e628823a0076ec12ee","601f447aa5824c48a7ac46cd","Mozilla/5.0 (Windows NT 10.0; Win64; x64) AppleWebKit/537.36 (KHTML, like Gecko) Chrome/88.0.4324.150 Safari/537.36","v1","","","","","","","","-20,-10,0,10,20","media/audio/stims/spherical_300cm_s20_c20_cd-full_matched_a-10.wav","spherical","20","20","full","matched","-10","-20","2016"
"echo-presentation","106","710012","0.0-106.0","5ebc3cc7adb5e706b8021deb","5fef55e628823a0076ec12ee","601f447aa5824c48a7ac46cd","Mozilla/5.0 (Windows NT 10.0; Win64; x64) AppleWebKit/537.36 (KHTML, like Gecko) Chrome/88.0.4324.150 Safari/537.36","v1","","","","","","","","-20,-10,0,10,20","media/audio/stims/spherical_300cm_s20_c20_cd-full_matched_a10.wav","spherical","20","20","full","matched","10","-20","1546"
"echo-presentation","107","712541","0.0-107.0","5ebc3cc7adb5e706b8021deb","5fef55e628823a0076ec12ee","601f447aa5824c48a7ac46cd","Mozilla/5.0 (Windows NT 10.0; Win64; x64) AppleWebKit/537.36 (KHTML, like Gecko) Chrome/88.0.4324.150 Safari/537.36","v1","","","","","","","","-20,-10,0,10,20","media/audio/stims/spherical_300cm_s20_c20_cd-full_matched_a-10.wav","spherical","20","20","full","matched","-10","-20","1340"
"echo-presentation","108","716861","0.0-108.0","5ebc3cc7adb5e706b8021deb","5fef55e628823a0076ec12ee","601f447aa5824c48a7ac46cd","Mozilla/5.0 (Windows NT 10.0; Win64; x64) AppleWebKit/537.36 (KHTML, like Gecko) Chrome/88.0.4324.150 Safari/537.36","v1","","","","","","","","-20,-10,0,10,20","media/audio/stims/spherical_300cm_s20_c20_cd-full_matched_a20.wav","spherical","20","20","full","matched","20","10","3276"
"echo-presentation","109","719373","0.0-109.0","5ebc3cc7adb5e706b8021deb","5fef55e628823a0076ec12ee","601f447aa5824c48a7ac46cd","Mozilla/5.0 (Windows NT 10.0; Win64; x64) AppleWebKit/537.36 (KHTML, like Gecko) Chrome/88.0.4324.150 Safari/537.36","v1","","","","","","","","-20,-10,0,10,20","media/audio/stims/spherical_300cm_s20_c20_cd-full_matched_a-20.wav","spherical","20","20","full","matched","-20","-20","1596"
"echo-presentation","110","722021","0.0-110.0","5ebc3cc7adb5e706b8021deb","5fef55e628823a0076ec12ee","601f447aa5824c48a7ac46cd","Mozilla/5.0 (Windows NT 10.0; Win64; x64) AppleWebKit/537.36 (KHTML, like Gecko) Chrome/88.0.4324.150 Safari/537.36","v1","","","","","","","","-20,-10,0,10,20","media/audio/stims/spherical_300cm_s20_c20_cd-full_matched_a0.wav","spherical","20","20","full","matched","0","-10","1800"
"echo-presentation","111","724641","0.0-111.0","5ebc3cc7adb5e706b8021deb","5fef55e628823a0076ec12ee","601f447aa5824c48a7ac46cd","Mozilla/5.0 (Windows NT 10.0; Win64; x64) AppleWebKit/537.36 (KHTML, like Gecko) Chrome/88.0.4324.150 Safari/537.36","v1","","","","","","","","-20,-10,0,10,20","media/audio/stims/spherical_300cm_s20_c20_cd-full_matched_a10.wav","spherical","20","20","full","matched","10","10","1609"
"echo-presentation","112","727780","0.0-112.0","5ebc3cc7adb5e706b8021deb","5fef55e628823a0076ec12ee","601f447aa5824c48a7ac46cd","Mozilla/5.0 (Windows NT 10.0; Win64; x64) AppleWebKit/537.36 (KHTML, like Gecko) Chrome/88.0.4324.150 Safari/537.36","v1","","","","","","","","-20,-10,0,10,20","media/audio/stims/spherical_300cm_s20_c20_cd-full_matched_a0.wav","spherical","20","20","full","matched","0","0","2175"
"echo-presentation","113","730279","0.0-113.0","5ebc3cc7adb5e706b8021deb","5fef55e628823a0076ec12ee","601f447aa5824c48a7ac46cd","Mozilla/5.0 (Windows NT 10.0; Win64; x64) AppleWebKit/537.36 (KHTML, like Gecko) Chrome/88.0.4324.150 Safari/537.36","v1","","","","","","","","-20,-10,0,10,20","media/audio/stims/spherical_300cm_s20_c20_cd-full_matched_a20.wav","spherical","20","20","full","matched","20","10","1676"
"echo-presentation","114","732911","0.0-114.0","5ebc3cc7adb5e706b8021deb","5fef55e628823a0076ec12ee","601f447aa5824c48a7ac46cd","Mozilla/5.0 (Windows NT 10.0; Win64; x64) AppleWebKit/537.36 (KHTML, like Gecko) Chrome/88.0.4324.150 Safari/537.36","v1","","","","","","","","-20,-10,0,10,20","media/audio/stims/spherical_300cm_s20_c20_cd-full_matched_a20.wav","spherical","20","20","full","matched","20","10","1740"
"echo-presentation","115","736282","0.0-115.0","5ebc3cc7adb5e706b8021deb","5fef55e628823a0076ec12ee","601f447aa5824c48a7ac46cd","Mozilla/5.0 (Windows NT 10.0; Win64; x64) AppleWebKit/537.36 (KHTML, like Gecko) Chrome/88.0.4324.150 Safari/537.36","v1","","","","","","","","-20,-10,0,10,20","media/audio/stims/spherical_300cm_s20_c20_cd-full_matched_a-10.wav","spherical","20","20","full","matched","-10","10","1895"
"block-bookend","116","737528","0.0-116.0","5ebc3cc7adb5e706b8021deb","5fef55e628823a0076ec12ee","601f447aa5824c48a7ac46cd","Mozilla/5.0 (Windows NT 10.0; Win64; x64) AppleWebKit/537.36 (KHTML, like Gecko) Chrome/88.0.4324.150 Safari/537.36","v1","","","","","","","","","","","","","","","","",""
"block-bookend","117","743544","0.0-117.0","5ebc3cc7adb5e706b8021deb","5fef55e628823a0076ec12ee","601f447aa5824c48a7ac46cd","Mozilla/5.0 (Windows NT 10.0; Win64; x64) AppleWebKit/537.36 (KHTML, like Gecko) Chrome/88.0.4324.150 Safari/537.36","v1","","","","","","","","","","","","","","","","",""
"echo-presentation","118","748072","0.0-118.0","5ebc3cc7adb5e706b8021deb","5fef55e628823a0076ec12ee","601f447aa5824c48a7ac46cd","Mozilla/5.0 (Windows NT 10.0; Win64; x64) AppleWebKit/537.36 (KHTML, like Gecko) Chrome/88.0.4324.150 Safari/537.36","v1","","","","","","","","-20,-10,0,10,20","media/audio/stims/spherical_300cm_s20_c20_cd-full_matched_a0.wav","spherical","20","20","full","matched","0","0","1868"
"echo-presentation","119","752662","0.0-119.0","5ebc3cc7adb5e706b8021deb","5fef55e628823a0076ec12ee","601f447aa5824c48a7ac46cd","Mozilla/5.0 (Windows NT 10.0; Win64; x64) AppleWebKit/537.36 (KHTML, like Gecko) Chrome/88.0.4324.150 Safari/537.36","v1","","","","","","","","-20,-10,0,10,20","media/audio/stims/spherical_300cm_s20_c20_cd-full_matched_a-20.wav","spherical","20","20","full","matched","-20","-10","3293"
"echo-presentation","120","755806","0.0-120.0","5ebc3cc7adb5e706b8021deb","5fef55e628823a0076ec12ee","601f447aa5824c48a7ac46cd","Mozilla/5.0 (Windows NT 10.0; Win64; x64) AppleWebKit/537.36 (KHTML, like Gecko) Chrome/88.0.4324.150 Safari/537.36","v1","","","","","","","","-20,-10,0,10,20","media/audio/stims/spherical_300cm_s20_c20_cd-full_matched_a-20.wav","spherical","20","20","full","matched","-20","-20","1682"
"echo-presentation","121","759328","0.0-121.0","5ebc3cc7adb5e706b8021deb","5fef55e628823a0076ec12ee","601f447aa5824c48a7ac46cd","Mozilla/5.0 (Windows NT 10.0; Win64; x64) AppleWebKit/537.36 (KHTML, like Gecko) Chrome/88.0.4324.150 Safari/537.36","v1","","","","","","","","-20,-10,0,10,20","media/audio/stims/spherical_300cm_s20_c20_cd-full_matched_a0.wav","spherical","20","20","full","matched","0","0","2179"
"echo-presentation","122","762876","0.0-122.0","5ebc3cc7adb5e706b8021deb","5fef55e628823a0076ec12ee","601f447aa5824c48a7ac46cd","Mozilla/5.0 (Windows NT 10.0; Win64; x64) AppleWebKit/537.36 (KHTML, like Gecko) Chrome/88.0.4324.150 Safari/537.36","v1","","","","","","","","-20,-10,0,10,20","media/audio/stims/spherical_300cm_s20_c20_cd-full_matched_a20.wav","spherical","20","20","full","matched","20","10","2466"
"echo-presentation","123","764851","0.0-123.0","5ebc3cc7adb5e706b8021deb","5fef55e628823a0076ec12ee","601f447aa5824c48a7ac46cd","Mozilla/5.0 (Windows NT 10.0; Win64; x64) AppleWebKit/537.36 (KHTML, like Gecko) Chrome/88.0.4324.150 Safari/537.36","v1","","","","","","","","-20,-10,0,10,20","media/audio/stims/spherical_300cm_s20_c20_cd-full_matched_a20.wav","spherical","20","20","full","matched","20","20","1416"
"echo-presentation","124","768517","0.0-124.0","5ebc3cc7adb5e706b8021deb","5fef55e628823a0076ec12ee","601f447aa5824c48a7ac46cd","Mozilla/5.0 (Windows NT 10.0; Win64; x64) AppleWebKit/537.36 (KHTML, like Gecko) Chrome/88.0.4324.150 Safari/537.36","v1","","","","","","","","-20,-10,0,10,20","media/audio/stims/spherical_300cm_s20_c20_cd-full_matched_a0.wav","spherical","20","20","full","matched","0","0","2474"
"echo-presentation","125","772152","0.0-125.0","5ebc3cc7adb5e706b8021deb","5fef55e628823a0076ec12ee","601f447aa5824c48a7ac46cd","Mozilla/5.0 (Windows NT 10.0; Win64; x64) AppleWebKit/537.36 (KHTML, like Gecko) Chrome/88.0.4324.150 Safari/537.36","v1","","","","","","","","-20,-10,0,10,20","media/audio/stims/spherical_300cm_s20_c20_cd-full_matched_a10.wav","spherical","20","20","full","matched","10","10","2735"
"echo-presentation","126","775375","0.0-126.0","5ebc3cc7adb5e706b8021deb","5fef55e628823a0076ec12ee","601f447aa5824c48a7ac46cd","Mozilla/5.0 (Windows NT 10.0; Win64; x64) AppleWebKit/537.36 (KHTML, like Gecko) Chrome/88.0.4324.150 Safari/537.36","v1","","","","","","","","-20,-10,0,10,20","media/audio/stims/spherical_300cm_s20_c20_cd-full_matched_a-20.wav","spherical","20","20","full","matched","-20","-20","2434"
"echo-presentation","127","777751","0.0-127.0","5ebc3cc7adb5e706b8021deb","5fef55e628823a0076ec12ee","601f447aa5824c48a7ac46cd","Mozilla/5.0 (Windows NT 10.0; Win64; x64) AppleWebKit/537.36 (KHTML, like Gecko) Chrome/88.0.4324.150 Safari/537.36","v1","","","","","","","","-20,-10,0,10,20","media/audio/stims/spherical_300cm_s20_c20_cd-full_matched_a-20.wav","spherical","20","20","full","matched","-20","-20","1429"
"echo-presentation","128","781384","0.0-128.0","5ebc3cc7adb5e706b8021deb","5fef55e628823a0076ec12ee","601f447aa5824c48a7ac46cd","Mozilla/5.0 (Windows NT 10.0; Win64; x64) AppleWebKit/537.36 (KHTML, like Gecko) Chrome/88.0.4324.150 Safari/537.36","v1","","","","","","","","-20,-10,0,10,20","media/audio/stims/spherical_300cm_s20_c20_cd-full_matched_a10.wav","spherical","20","20","full","matched","10","0","2448"
"echo-presentation","129","784102","0.0-129.0","5ebc3cc7adb5e706b8021deb","5fef55e628823a0076ec12ee","601f447aa5824c48a7ac46cd","Mozilla/5.0 (Windows NT 10.0; Win64; x64) AppleWebKit/537.36 (KHTML, like Gecko) Chrome/88.0.4324.150 Safari/537.36","v1","","","","","","","","-20,-10,0,10,20","media/audio/stims/spherical_300cm_s20_c20_cd-full_matched_a10.wav","spherical","20","20","full","matched","10","10","1939"
"echo-presentation","130","786698","0.0-130.0","5ebc3cc7adb5e706b8021deb","5fef55e628823a0076ec12ee","601f447aa5824c48a7ac46cd","Mozilla/5.0 (Windows NT 10.0; Win64; x64) AppleWebKit/537.36 (KHTML, like Gecko) Chrome/88.0.4324.150 Safari/537.36","v1","","","","","","","","-20,-10,0,10,20","media/audio/stims/spherical_300cm_s20_c20_cd-full_matched_a-10.wav","spherical","20","20","full","matched","-10","0","1740"
"echo-presentation","131","789264","0.0-131.0","5ebc3cc7adb5e706b8021deb","5fef55e628823a0076ec12ee","601f447aa5824c48a7ac46cd","Mozilla/5.0 (Windows NT 10.0; Win64; x64) AppleWebKit/537.36 (KHTML, like Gecko) Chrome/88.0.4324.150 Safari/537.36","v1","","","","","","","","-20,-10,0,10,20","media/audio/stims/spherical_300cm_s20_c20_cd-full_matched_a10.wav","spherical","20","20","full","matched","10","10","1494"
"echo-presentation","132","791689","0.0-132.0","5ebc3cc7adb5e706b8021deb","5fef55e628823a0076ec12ee","601f447aa5824c48a7ac46cd","Mozilla/5.0 (Windows NT 10.0; Win64; x64) AppleWebKit/537.36 (KHTML, like Gecko) Chrome/88.0.4324.150 Safari/537.36","v1","","","","","","","","-20,-10,0,10,20","media/audio/stims/spherical_300cm_s20_c20_cd-full_matched_a20.wav","spherical","20","20","full","matched","20","20","1292"
"echo-presentation","133","795180","0.0-133.0","5ebc3cc7adb5e706b8021deb","5fef55e628823a0076ec12ee","601f447aa5824c48a7ac46cd","Mozilla/5.0 (Windows NT 10.0; Win64; x64) AppleWebKit/537.36 (KHTML, like Gecko) Chrome/88.0.4324.150 Safari/537.36","v1","","","","","","","","-20,-10,0,10,20","media/audio/stims/spherical_300cm_s20_c20_cd-full_matched_a-10.wav","spherical","20","20","full","matched","-10","-10","2567"
"echo-presentation","134","798487","0.0-134.0","5ebc3cc7adb5e706b8021deb","5fef55e628823a0076ec12ee","601f447aa5824c48a7ac46cd","Mozilla/5.0 (Windows NT 10.0; Win64; x64) AppleWebKit/537.36 (KHTML, like Gecko) Chrome/88.0.4324.150 Safari/537.36","v1","","","","","","","","-20,-10,0,10,20","media/audio/stims/spherical_300cm_s20_c20_cd-full_matched_a-10.wav","spherical","20","20","full","matched","-10","-10","2466"
"echo-presentation","135","801041","0.0-135.0","5ebc3cc7adb5e706b8021deb","5fef55e628823a0076ec12ee","601f447aa5824c48a7ac46cd","Mozilla/5.0 (Windows NT 10.0; Win64; x64) AppleWebKit/537.36 (KHTML, like Gecko) Chrome/88.0.4324.150 Safari/537.36","v1","","","","","","","","-20,-10,0,10,20","media/audio/stims/spherical_300cm_s20_c20_cd-full_matched_a20.wav","spherical","20","20","full","matched","20","10","1764"
"echo-presentation","136","804072","0.0-136.0","5ebc3cc7adb5e706b8021deb","5fef55e628823a0076ec12ee","601f447aa5824c48a7ac46cd","Mozilla/5.0 (Windows NT 10.0; Win64; x64) AppleWebKit/537.36 (KHTML, like Gecko) Chrome/88.0.4324.150 Safari/537.36","v1","","","","","","","","-20,-10,0,10,20","media/audio/stims/spherical_300cm_s20_c20_cd-full_matched_a0.wav","spherical","20","20","full","matched","0","0","1985"
"echo-presentation","137","806351","0.0-137.0","5ebc3cc7adb5e706b8021deb","5fef55e628823a0076ec12ee","601f447aa5824c48a7ac46cd","Mozilla/5.0 (Windows NT 10.0; Win64; x64) AppleWebKit/537.36 (KHTML, like Gecko) Chrome/88.0.4324.150 Safari/537.36","v1","","","","","","","","-20,-10,0,10,20","media/audio/stims/spherical_300cm_s20_c20_cd-full_matched_a-10.wav","spherical","20","20","full","matched","-10","-10","1296"
"block-bookend","138","808740","0.0-138.0","5ebc3cc7adb5e706b8021deb","5fef55e628823a0076ec12ee","601f447aa5824c48a7ac46cd","Mozilla/5.0 (Windows NT 10.0; Win64; x64) AppleWebKit/537.36 (KHTML, like Gecko) Chrome/88.0.4324.150 Safari/537.36","v1","","","","","","","","","","","","","","","","",""
