"trial_type","trial_index","time_elapsed","internal_node_id","prolificPid","studyId","sessionId","userAgent","version","rt","stimulus","key_press","chosenKeyset","failureCount","testIndex","globalVolume","choices","filename","modelName","slowdown","compensation","compensationDescriptor","receiverOrientationType","azimuth","responseAzimuth","responseDelay"
"pavlovia","0","3","0.0-0.0","5ea6df209d688606829ac644","5fef55e628823a0076ec12ee","602014e1101ae05c0ba310a0","Mozilla/5.0 (X11; Linux x86_64; rv:85.0) Gecko/20100101 Firefox/85.0","v1-up-stims","","","","","","","","","","","","","","","","",""
"html-keyboard-response","1","7406","0.0-1.0","5ea6df209d688606829ac644","5fef55e628823a0076ec12ee","602014e1101ae05c0ba310a0","Mozilla/5.0 (X11; Linux x86_64; rv:85.0) Gecko/20100101 Firefox/85.0","v1-up-stims","7400","<div><h1>Welcome!</h1><p>Press any key to continue.</p></div>","32","","","","","","","","","","","","","",""
"consent-form","2","77441","0.0-2.0","5ea6df209d688606829ac644","5fef55e628823a0076ec12ee","602014e1101ae05c0ba310a0","Mozilla/5.0 (X11; Linux x86_64; rv:85.0) Gecko/20100101 Firefox/85.0","v1-up-stims","","","","","","","","","","","","","","","","",""
"keyset-select","3","105188","0.0-3.0","5ea6df209d688606829ac644","5fef55e628823a0076ec12ee","602014e1101ae05c0ba310a0","Mozilla/5.0 (X11; Linux x86_64; rv:85.0) Gecko/20100101 Firefox/85.0","v1-up-stims","","","","right-hand","","","","","","","","","","","","",""
"headphone-check","4","191820","0.0-4.0","5ea6df209d688606829ac644","5fef55e628823a0076ec12ee","602014e1101ae05c0ba310a0","Mozilla/5.0 (X11; Linux x86_64; rv:85.0) Gecko/20100101 Firefox/85.0","v1-up-stims","","","","","0","6","0.3","","","","","","","","","",""
"headphone-backwards-check","5","198763","0.0-5.0","5ea6df209d688606829ac644","5fef55e628823a0076ec12ee","602014e1101ae05c0ba310a0","Mozilla/5.0 (X11; Linux x86_64; rv:85.0) Gecko/20100101 Firefox/85.0","v1-up-stims","","","","","0","","","","","","","","","","","",""
"training","6","275241","0.0-6.0","5ea6df209d688606829ac644","5fef55e628823a0076ec12ee","602014e1101ae05c0ba310a0","Mozilla/5.0 (X11; Linux x86_64; rv:85.0) Gecko/20100101 Firefox/85.0","v1-up-stims","","","","","","","","","","","","","","","","",""
"block-bookend","7","283786","0.0-7.0","5ea6df209d688606829ac644","5fef55e628823a0076ec12ee","602014e1101ae05c0ba310a0","Mozilla/5.0 (X11; Linux x86_64; rv:85.0) Gecko/20100101 Firefox/85.0","v1-up-stims","","","","","","","","","","","","","","","","",""
"echo-presentation","8","290408","0.0-8.0","5ea6df209d688606829ac644","5fef55e628823a0076ec12ee","602014e1101ae05c0ba310a0","Mozilla/5.0 (X11; Linux x86_64; rv:85.0) Gecko/20100101 Firefox/85.0","v1-up-stims","","","","","","","","-20,-10,0,10,20","media/audio/stims/spherical_300cm_s20_c20_cd-full_matched_a10.wav","spherical","20","20","full","matched","10","10","4517"
"echo-presentation","9","293385","0.0-9.0","5ea6df209d688606829ac644","5fef55e628823a0076ec12ee","602014e1101ae05c0ba310a0","Mozilla/5.0 (X11; Linux x86_64; rv:85.0) Gecko/20100101 Firefox/85.0","v1-up-stims","","","","","","","","-20,-10,0,10,20","media/audio/stims/spherical_300cm_s20_c20_cd-full_matched_a-20.wav","spherical","20","20","full","matched","-20","-20","1681"
"echo-presentation","10","298248","0.0-10.0","5ea6df209d688606829ac644","5fef55e628823a0076ec12ee","602014e1101ae05c0ba310a0","Mozilla/5.0 (X11; Linux x86_64; rv:85.0) Gecko/20100101 Firefox/85.0","v1-up-stims","","","","","","","","-20,-10,0,10,20","media/audio/stims/spherical_300cm_s20_c20_cd-full_matched_a10.wav","spherical","20","20","full","matched","10","10","3728"
"echo-presentation","11","301584","0.0-11.0","5ea6df209d688606829ac644","5fef55e628823a0076ec12ee","602014e1101ae05c0ba310a0","Mozilla/5.0 (X11; Linux x86_64; rv:85.0) Gecko/20100101 Firefox/85.0","v1-up-stims","","","","","","","","-20,-10,0,10,20","media/audio/stims/spherical_300cm_s20_c20_cd-full_matched_a10.wav","spherical","20","20","full","matched","10","20","1586"
"echo-presentation","12","304680","0.0-12.0","5ea6df209d688606829ac644","5fef55e628823a0076ec12ee","602014e1101ae05c0ba310a0","Mozilla/5.0 (X11; Linux x86_64; rv:85.0) Gecko/20100101 Firefox/85.0","v1-up-stims","","","","","","","","-20,-10,0,10,20","media/audio/stims/spherical_300cm_s20_c20_cd-full_matched_a-10.wav","spherical","20","20","full","matched","-10","-10","2040"
"echo-presentation","13","309800","0.0-13.0","5ea6df209d688606829ac644","5fef55e628823a0076ec12ee","602014e1101ae05c0ba310a0","Mozilla/5.0 (X11; Linux x86_64; rv:85.0) Gecko/20100101 Firefox/85.0","v1-up-stims","","","","","","","","-20,-10,0,10,20","media/audio/stims/spherical_300cm_s20_c20_cd-full_matched_a0.wav","spherical","20","20","full","matched","0","0","4073"
"echo-presentation","14","312624","0.0-14.0","5ea6df209d688606829ac644","5fef55e628823a0076ec12ee","602014e1101ae05c0ba310a0","Mozilla/5.0 (X11; Linux x86_64; rv:85.0) Gecko/20100101 Firefox/85.0","v1-up-stims","","","","","","","","-20,-10,0,10,20","media/audio/stims/spherical_300cm_s20_c20_cd-full_matched_a-20.wav","spherical","20","20","full","matched","-20","-20","1521"
"echo-presentation","15","315705","0.0-15.0","5ea6df209d688606829ac644","5fef55e628823a0076ec12ee","602014e1101ae05c0ba310a0","Mozilla/5.0 (X11; Linux x86_64; rv:85.0) Gecko/20100101 Firefox/85.0","v1-up-stims","","","","","","","","-20,-10,0,10,20","media/audio/stims/spherical_300cm_s20_c20_cd-full_matched_a-10.wav","spherical","20","20","full","matched","-10","-10","1817"
"echo-presentation","16","318632","0.0-16.0","5ea6df209d688606829ac644","5fef55e628823a0076ec12ee","602014e1101ae05c0ba310a0","Mozilla/5.0 (X11; Linux x86_64; rv:85.0) Gecko/20100101 Firefox/85.0","v1-up-stims","","","","","","","","-20,-10,0,10,20","media/audio/stims/spherical_300cm_s20_c20_cd-full_matched_a-20.wav","spherical","20","20","full","matched","-20","-10","1651"
"echo-presentation","17","322496","0.0-17.0","5ea6df209d688606829ac644","5fef55e628823a0076ec12ee","602014e1101ae05c0ba310a0","Mozilla/5.0 (X11; Linux x86_64; rv:85.0) Gecko/20100101 Firefox/85.0","v1-up-stims","","","","","","","","-20,-10,0,10,20","media/audio/stims/spherical_300cm_s20_c20_cd-full_matched_a20.wav","spherical","20","20","full","matched","20","10","2730"
"echo-presentation","18","325776","0.0-18.0","5ea6df209d688606829ac644","5fef55e628823a0076ec12ee","602014e1101ae05c0ba310a0","Mozilla/5.0 (X11; Linux x86_64; rv:85.0) Gecko/20100101 Firefox/85.0","v1-up-stims","","","","","","","","-20,-10,0,10,20","media/audio/stims/spherical_300cm_s20_c20_cd-full_matched_a0.wav","spherical","20","20","full","matched","0","-10","1961"
"echo-presentation","19","328954","0.0-19.0","5ea6df209d688606829ac644","5fef55e628823a0076ec12ee","602014e1101ae05c0ba310a0","Mozilla/5.0 (X11; Linux x86_64; rv:85.0) Gecko/20100101 Firefox/85.0","v1-up-stims","","","","","","","","-20,-10,0,10,20","media/audio/stims/spherical_300cm_s20_c20_cd-full_matched_a10.wav","spherical","20","20","full","matched","10","10","2066"
"echo-presentation","20","331111","0.0-20.0","5ea6df209d688606829ac644","5fef55e628823a0076ec12ee","602014e1101ae05c0ba310a0","Mozilla/5.0 (X11; Linux x86_64; rv:85.0) Gecko/20100101 Firefox/85.0","v1-up-stims","","","","","","","","-20,-10,0,10,20","media/audio/stims/spherical_300cm_s20_c20_cd-full_matched_a20.wav","spherical","20","20","full","matched","20","20","1223"
"echo-presentation","21","333575","0.0-21.0","5ea6df209d688606829ac644","5fef55e628823a0076ec12ee","602014e1101ae05c0ba310a0","Mozilla/5.0 (X11; Linux x86_64; rv:85.0) Gecko/20100101 Firefox/85.0","v1-up-stims","","","","","","","","-20,-10,0,10,20","media/audio/stims/spherical_300cm_s20_c20_cd-full_matched_a-20.wav","spherical","20","20","full","matched","-20","-20","1490"
"echo-presentation","22","336288","0.0-22.0","5ea6df209d688606829ac644","5fef55e628823a0076ec12ee","602014e1101ae05c0ba310a0","Mozilla/5.0 (X11; Linux x86_64; rv:85.0) Gecko/20100101 Firefox/85.0","v1-up-stims","","","","","","","","-20,-10,0,10,20","media/audio/stims/spherical_300cm_s20_c20_cd-full_matched_a-10.wav","spherical","20","20","full","matched","-10","-20","1739"
"echo-presentation","23","339271","0.0-23.0","5ea6df209d688606829ac644","5fef55e628823a0076ec12ee","602014e1101ae05c0ba310a0","Mozilla/5.0 (X11; Linux x86_64; rv:85.0) Gecko/20100101 Firefox/85.0","v1-up-stims","","","","","","","","-20,-10,0,10,20","media/audio/stims/spherical_300cm_s20_c20_cd-full_matched_a20.wav","spherical","20","20","full","matched","20","20","1954"
"echo-presentation","24","342343","0.0-24.0","5ea6df209d688606829ac644","5fef55e628823a0076ec12ee","602014e1101ae05c0ba310a0","Mozilla/5.0 (X11; Linux x86_64; rv:85.0) Gecko/20100101 Firefox/85.0","v1-up-stims","","","","","","","","-20,-10,0,10,20","media/audio/stims/spherical_300cm_s20_c20_cd-full_matched_a20.wav","spherical","20","20","full","matched","20","20","1888"
"echo-presentation","25","347543","0.0-25.0","5ea6df209d688606829ac644","5fef55e628823a0076ec12ee","602014e1101ae05c0ba310a0","Mozilla/5.0 (X11; Linux x86_64; rv:85.0) Gecko/20100101 Firefox/85.0","v1-up-stims","","","","","","","","-20,-10,0,10,20","media/audio/stims/spherical_300cm_s20_c20_cd-full_matched_a-10.wav","spherical","20","20","full","matched","-10","-10","3950"
"echo-presentation","26","350543","0.0-26.0","5ea6df209d688606829ac644","5fef55e628823a0076ec12ee","602014e1101ae05c0ba310a0","Mozilla/5.0 (X11; Linux x86_64; rv:85.0) Gecko/20100101 Firefox/85.0","v1-up-stims","","","","","","","","-20,-10,0,10,20","media/audio/stims/spherical_300cm_s20_c20_cd-full_matched_a0.wav","spherical","20","20","full","matched","0","10","1995"
"echo-presentation","27","353319","0.0-27.0","5ea6df209d688606829ac644","5fef55e628823a0076ec12ee","602014e1101ae05c0ba310a0","Mozilla/5.0 (X11; Linux x86_64; rv:85.0) Gecko/20100101 Firefox/85.0","v1-up-stims","","","","","","","","-20,-10,0,10,20","media/audio/stims/spherical_300cm_s20_c20_cd-full_matched_a0.wav","spherical","20","20","full","matched","0","0","1699"
"block-bookend","28","393608","0.0-28.0","5ea6df209d688606829ac644","5fef55e628823a0076ec12ee","602014e1101ae05c0ba310a0","Mozilla/5.0 (X11; Linux x86_64; rv:85.0) Gecko/20100101 Firefox/85.0","v1-up-stims","","","","","","","","","","","","","","","","",""
"block-bookend","29","423928","0.0-29.0","5ea6df209d688606829ac644","5fef55e628823a0076ec12ee","602014e1101ae05c0ba310a0","Mozilla/5.0 (X11; Linux x86_64; rv:85.0) Gecko/20100101 Firefox/85.0","v1-up-stims","","","","","","","","","","","","","","","","",""
"echo-presentation","30","427366","0.0-30.0","5ea6df209d688606829ac644","5fef55e628823a0076ec12ee","602014e1101ae05c0ba310a0","Mozilla/5.0 (X11; Linux x86_64; rv:85.0) Gecko/20100101 Firefox/85.0","v1-up-stims","","","","","","","","-20,-10,0,10,20","media/audio/stims/spherical_300cm_s20_c20_cd-full_matched_a10.wav","spherical","20","20","full","matched","10","10","2129"
"echo-presentation","31","431222","0.0-31.0","5ea6df209d688606829ac644","5fef55e628823a0076ec12ee","602014e1101ae05c0ba310a0","Mozilla/5.0 (X11; Linux x86_64; rv:85.0) Gecko/20100101 Firefox/85.0","v1-up-stims","","","","","","","","-20,-10,0,10,20","media/audio/stims/spherical_300cm_s20_c20_cd-full_matched_a-10.wav","spherical","20","20","full","matched","-10","-10","2906"
"echo-presentation","32","433870","0.0-32.0","5ea6df209d688606829ac644","5fef55e628823a0076ec12ee","602014e1101ae05c0ba310a0","Mozilla/5.0 (X11; Linux x86_64; rv:85.0) Gecko/20100101 Firefox/85.0","v1-up-stims","","","","","","","","-20,-10,0,10,20","media/audio/stims/spherical_300cm_s20_c20_cd-full_matched_a10.wav","spherical","20","20","full","matched","10","10","1720"
"echo-presentation","33","436505","0.0-33.0","5ea6df209d688606829ac644","5fef55e628823a0076ec12ee","602014e1101ae05c0ba310a0","Mozilla/5.0 (X11; Linux x86_64; rv:85.0) Gecko/20100101 Firefox/85.0","v1-up-stims","","","","","","","","-20,-10,0,10,20","media/audio/stims/spherical_300cm_s20_c20_cd-full_matched_a-10.wav","spherical","20","20","full","matched","-10","-20","1612"
"echo-presentation","34","439006","0.0-34.0","5ea6df209d688606829ac644","5fef55e628823a0076ec12ee","602014e1101ae05c0ba310a0","Mozilla/5.0 (X11; Linux x86_64; rv:85.0) Gecko/20100101 Firefox/85.0","v1-up-stims","","","","","","","","-20,-10,0,10,20","media/audio/stims/spherical_300cm_s20_c20_cd-full_matched_a10.wav","spherical","20","20","full","matched","10","20","1521"
"echo-presentation","35","441870","0.0-35.0","5ea6df209d688606829ac644","5fef55e628823a0076ec12ee","602014e1101ae05c0ba310a0","Mozilla/5.0 (X11; Linux x86_64; rv:85.0) Gecko/20100101 Firefox/85.0","v1-up-stims","","","","","","","","-20,-10,0,10,20","media/audio/stims/spherical_300cm_s20_c20_cd-full_matched_a0.wav","spherical","20","20","full","matched","0","10","2034"
"echo-presentation","36","444118","0.0-36.0","5ea6df209d688606829ac644","5fef55e628823a0076ec12ee","602014e1101ae05c0ba310a0","Mozilla/5.0 (X11; Linux x86_64; rv:85.0) Gecko/20100101 Firefox/85.0","v1-up-stims","","","","","","","","-20,-10,0,10,20","media/audio/stims/spherical_300cm_s20_c20_cd-full_matched_a-20.wav","spherical","20","20","full","matched","-20","-20","1384"
"echo-presentation","37","448070","0.0-37.0","5ea6df209d688606829ac644","5fef55e628823a0076ec12ee","602014e1101ae05c0ba310a0","Mozilla/5.0 (X11; Linux x86_64; rv:85.0) Gecko/20100101 Firefox/85.0","v1-up-stims","","","","","","","","-20,-10,0,10,20","media/audio/stims/spherical_300cm_s20_c20_cd-full_matched_a0.wav","spherical","20","20","full","matched","0","0","3097"
"echo-presentation","38","451518","0.0-38.0","5ea6df209d688606829ac644","5fef55e628823a0076ec12ee","602014e1101ae05c0ba310a0","Mozilla/5.0 (X11; Linux x86_64; rv:85.0) Gecko/20100101 Firefox/85.0","v1-up-stims","","","","","","","","-20,-10,0,10,20","media/audio/stims/spherical_300cm_s20_c20_cd-full_matched_a20.wav","spherical","20","20","full","matched","20","10","2521"
"echo-presentation","39","454310","0.0-39.0","5ea6df209d688606829ac644","5fef55e628823a0076ec12ee","602014e1101ae05c0ba310a0","Mozilla/5.0 (X11; Linux x86_64; rv:85.0) Gecko/20100101 Firefox/85.0","v1-up-stims","","","","","","","","-20,-10,0,10,20","media/audio/stims/spherical_300cm_s20_c20_cd-full_matched_a20.wav","spherical","20","20","full","matched","20","20","1456"
"echo-presentation","40","457462","0.0-40.0","5ea6df209d688606829ac644","5fef55e628823a0076ec12ee","602014e1101ae05c0ba310a0","Mozilla/5.0 (X11; Linux x86_64; rv:85.0) Gecko/20100101 Firefox/85.0","v1-up-stims","","","","","","","","-20,-10,0,10,20","media/audio/stims/spherical_300cm_s20_c20_cd-full_matched_a-20.wav","spherical","20","20","full","matched","-20","-20","2242"
"echo-presentation","41","459542","0.0-41.0","5ea6df209d688606829ac644","5fef55e628823a0076ec12ee","602014e1101ae05c0ba310a0","Mozilla/5.0 (X11; Linux x86_64; rv:85.0) Gecko/20100101 Firefox/85.0","v1-up-stims","","","","","","","","-20,-10,0,10,20","media/audio/stims/spherical_300cm_s20_c20_cd-full_matched_a-20.wav","spherical","20","20","full","matched","-20","-20","1161"
"echo-presentation","42","461662","0.0-42.0","5ea6df209d688606829ac644","5fef55e628823a0076ec12ee","602014e1101ae05c0ba310a0","Mozilla/5.0 (X11; Linux x86_64; rv:85.0) Gecko/20100101 Firefox/85.0","v1-up-stims","","","","","","","","-20,-10,0,10,20","media/audio/stims/spherical_300cm_s20_c20_cd-full_matched_a-10.wav","spherical","20","20","full","matched","-10","-20","1274"
"echo-presentation","43","463997","0.0-43.0","5ea6df209d688606829ac644","5fef55e628823a0076ec12ee","602014e1101ae05c0ba310a0","Mozilla/5.0 (X11; Linux x86_64; rv:85.0) Gecko/20100101 Firefox/85.0","v1-up-stims","","","","","","","","-20,-10,0,10,20","media/audio/stims/spherical_300cm_s20_c20_cd-full_matched_a-10.wav","spherical","20","20","full","matched","-10","-20","1465"
"echo-presentation","44","467776","0.0-44.0","5ea6df209d688606829ac644","5fef55e628823a0076ec12ee","602014e1101ae05c0ba310a0","Mozilla/5.0 (X11; Linux x86_64; rv:85.0) Gecko/20100101 Firefox/85.0","v1-up-stims","","","","","","","","-20,-10,0,10,20","media/audio/stims/spherical_300cm_s20_c20_cd-full_matched_a0.wav","spherical","20","20","full","matched","0","-10","2602"
"echo-presentation","45","470390","0.0-45.0","5ea6df209d688606829ac644","5fef55e628823a0076ec12ee","602014e1101ae05c0ba310a0","Mozilla/5.0 (X11; Linux x86_64; rv:85.0) Gecko/20100101 Firefox/85.0","v1-up-stims","","","","","","","","-20,-10,0,10,20","media/audio/stims/spherical_300cm_s20_c20_cd-full_matched_a-20.wav","spherical","20","20","full","matched","-20","-20","1441"
"echo-presentation","46","473270","0.0-46.0","5ea6df209d688606829ac644","5fef55e628823a0076ec12ee","602014e1101ae05c0ba310a0","Mozilla/5.0 (X11; Linux x86_64; rv:85.0) Gecko/20100101 Firefox/85.0","v1-up-stims","","","","","","","","-20,-10,0,10,20","media/audio/stims/spherical_300cm_s20_c20_cd-full_matched_a10.wav","spherical","20","20","full","matched","10","10","1977"
"echo-presentation","47","476030","0.0-47.0","5ea6df209d688606829ac644","5fef55e628823a0076ec12ee","602014e1101ae05c0ba310a0","Mozilla/5.0 (X11; Linux x86_64; rv:85.0) Gecko/20100101 Firefox/85.0","v1-up-stims","","","","","","","","-20,-10,0,10,20","media/audio/stims/spherical_300cm_s20_c20_cd-full_matched_a0.wav","spherical","20","20","full","matched","0","10","1770"
"echo-presentation","48","478897","0.0-48.0","5ea6df209d688606829ac644","5fef55e628823a0076ec12ee","602014e1101ae05c0ba310a0","Mozilla/5.0 (X11; Linux x86_64; rv:85.0) Gecko/20100101 Firefox/85.0","v1-up-stims","","","","","","","","-20,-10,0,10,20","media/audio/stims/spherical_300cm_s20_c20_cd-full_matched_a20.wav","spherical","20","20","full","matched","20","20","1446"
"echo-presentation","49","481486","0.0-49.0","5ea6df209d688606829ac644","5fef55e628823a0076ec12ee","602014e1101ae05c0ba310a0","Mozilla/5.0 (X11; Linux x86_64; rv:85.0) Gecko/20100101 Firefox/85.0","v1-up-stims","","","","","","","","-20,-10,0,10,20","media/audio/stims/spherical_300cm_s20_c20_cd-full_matched_a20.wav","spherical","20","20","full","matched","20","20","1406"
"block-bookend","50","483895","0.0-50.0","5ea6df209d688606829ac644","5fef55e628823a0076ec12ee","602014e1101ae05c0ba310a0","Mozilla/5.0 (X11; Linux x86_64; rv:85.0) Gecko/20100101 Firefox/85.0","v1-up-stims","","","","","","","","","","","","","","","","",""
"block-bookend","51","494470","0.0-51.0","5ea6df209d688606829ac644","5fef55e628823a0076ec12ee","602014e1101ae05c0ba310a0","Mozilla/5.0 (X11; Linux x86_64; rv:85.0) Gecko/20100101 Firefox/85.0","v1-up-stims","","","","","","","","","","","","","","","","",""
"echo-presentation","52","501021","0.0-52.0","5ea6df209d688606829ac644","5fef55e628823a0076ec12ee","602014e1101ae05c0ba310a0","Mozilla/5.0 (X11; Linux x86_64; rv:85.0) Gecko/20100101 Firefox/85.0","v1-up-stims","","","","","","","","40,50,60,70,80","media/audio/stims/spherical_300cm_s20_c20_cd-full_matched_a60.wav","spherical","20","20","full","matched","60","70","4001"
"echo-presentation","53","503886","0.0-53.0","5ea6df209d688606829ac644","5fef55e628823a0076ec12ee","602014e1101ae05c0ba310a0","Mozilla/5.0 (X11; Linux x86_64; rv:85.0) Gecko/20100101 Firefox/85.0","v1-up-stims","","","","","","","","40,50,60,70,80","media/audio/stims/spherical_300cm_s20_c20_cd-full_matched_a60.wav","spherical","20","20","full","matched","60","80","1906"
"echo-presentation","54","506789","0.0-54.0","5ea6df209d688606829ac644","5fef55e628823a0076ec12ee","602014e1101ae05c0ba310a0","Mozilla/5.0 (X11; Linux x86_64; rv:85.0) Gecko/20100101 Firefox/85.0","v1-up-stims","","","","","","","","40,50,60,70,80","media/audio/stims/spherical_300cm_s20_c20_cd-full_matched_a70.wav","spherical","20","20","full","matched","70","80","2074"
"echo-presentation","55","509220","0.0-55.0","5ea6df209d688606829ac644","5fef55e628823a0076ec12ee","602014e1101ae05c0ba310a0","Mozilla/5.0 (X11; Linux x86_64; rv:85.0) Gecko/20100101 Firefox/85.0","v1-up-stims","","","","","","","","40,50,60,70,80","media/audio/stims/spherical_300cm_s20_c20_cd-full_matched_a40.wav","spherical","20","20","full","matched","40","80","1378"
"echo-presentation","56","513653","0.0-56.0","5ea6df209d688606829ac644","5fef55e628823a0076ec12ee","602014e1101ae05c0ba310a0","Mozilla/5.0 (X11; Linux x86_64; rv:85.0) Gecko/20100101 Firefox/85.0","v1-up-stims","","","","","","","","40,50,60,70,80","media/audio/stims/spherical_300cm_s20_c20_cd-full_matched_a70.wav","spherical","20","20","full","matched","70","70","3210"
"echo-presentation","57","516781","0.0-57.0","5ea6df209d688606829ac644","5fef55e628823a0076ec12ee","602014e1101ae05c0ba310a0","Mozilla/5.0 (X11; Linux x86_64; rv:85.0) Gecko/20100101 Firefox/85.0","v1-up-stims","","","","","","","","40,50,60,70,80","media/audio/stims/spherical_300cm_s20_c20_cd-full_matched_a70.wav","spherical","20","20","full","matched","70","50","2202"
"echo-presentation","58","521301","0.0-58.0","5ea6df209d688606829ac644","5fef55e628823a0076ec12ee","602014e1101ae05c0ba310a0","Mozilla/5.0 (X11; Linux x86_64; rv:85.0) Gecko/20100101 Firefox/85.0","v1-up-stims","","","","","","","","40,50,60,70,80","media/audio/stims/spherical_300cm_s20_c20_cd-full_matched_a60.wav","spherical","20","20","full","matched","60","70","3506"
"echo-presentation","59","523525","0.0-59.0","5ea6df209d688606829ac644","5fef55e628823a0076ec12ee","602014e1101ae05c0ba310a0","Mozilla/5.0 (X11; Linux x86_64; rv:85.0) Gecko/20100101 Firefox/85.0","v1-up-stims","","","","","","","","40,50,60,70,80","media/audio/stims/spherical_300cm_s20_c20_cd-full_matched_a50.wav","spherical","20","20","full","matched","50","70","1321"
"echo-presentation","60","527157","0.0-60.0","5ea6df209d688606829ac644","5fef55e628823a0076ec12ee","602014e1101ae05c0ba310a0","Mozilla/5.0 (X11; Linux x86_64; rv:85.0) Gecko/20100101 Firefox/85.0","v1-up-stims","","","","","","","","40,50,60,70,80","media/audio/stims/spherical_300cm_s20_c20_cd-full_matched_a70.wav","spherical","20","20","full","matched","70","60","2554"
"echo-presentation","61","529870","0.0-61.0","5ea6df209d688606829ac644","5fef55e628823a0076ec12ee","602014e1101ae05c0ba310a0","Mozilla/5.0 (X11; Linux x86_64; rv:85.0) Gecko/20100101 Firefox/85.0","v1-up-stims","","","","","","","","40,50,60,70,80","media/audio/stims/spherical_300cm_s20_c20_cd-full_matched_a40.wav","spherical","20","20","full","matched","40","70","1592"
"echo-presentation","62","534709","0.0-62.0","5ea6df209d688606829ac644","5fef55e628823a0076ec12ee","602014e1101ae05c0ba310a0","Mozilla/5.0 (X11; Linux x86_64; rv:85.0) Gecko/20100101 Firefox/85.0","v1-up-stims","","","","","","","","40,50,60,70,80","media/audio/stims/spherical_300cm_s20_c20_cd-full_matched_a50.wav","spherical","20","20","full","matched","50","60","3977"
"echo-presentation","63","538692","0.0-63.0","5ea6df209d688606829ac644","5fef55e628823a0076ec12ee","602014e1101ae05c0ba310a0","Mozilla/5.0 (X11; Linux x86_64; rv:85.0) Gecko/20100101 Firefox/85.0","v1-up-stims","","","","","","","","40,50,60,70,80","media/audio/stims/spherical_300cm_s20_c20_cd-full_matched_a80.wav","spherical","20","20","full","matched","80","80","2665"
"echo-presentation","64","541468","0.0-64.0","5ea6df209d688606829ac644","5fef55e628823a0076ec12ee","602014e1101ae05c0ba310a0","Mozilla/5.0 (X11; Linux x86_64; rv:85.0) Gecko/20100101 Firefox/85.0","v1-up-stims","","","","","","","","40,50,60,70,80","media/audio/stims/spherical_300cm_s20_c20_cd-full_matched_a80.wav","spherical","20","20","full","matched","80","70","1802"
"echo-presentation","65","545596","0.0-65.0","5ea6df209d688606829ac644","5fef55e628823a0076ec12ee","602014e1101ae05c0ba310a0","Mozilla/5.0 (X11; Linux x86_64; rv:85.0) Gecko/20100101 Firefox/85.0","v1-up-stims","","","","","","","","40,50,60,70,80","media/audio/stims/spherical_300cm_s20_c20_cd-full_matched_a80.wav","spherical","20","20","full","matched","80","70","3138"
"echo-presentation","66","548164","0.0-66.0","5ea6df209d688606829ac644","5fef55e628823a0076ec12ee","602014e1101ae05c0ba310a0","Mozilla/5.0 (X11; Linux x86_64; rv:85.0) Gecko/20100101 Firefox/85.0","v1-up-stims","","","","","","","","40,50,60,70,80","media/audio/stims/spherical_300cm_s20_c20_cd-full_matched_a40.wav","spherical","20","20","full","matched","40","70","1641"
"echo-presentation","67","550811","0.0-67.0","5ea6df209d688606829ac644","5fef55e628823a0076ec12ee","602014e1101ae05c0ba310a0","Mozilla/5.0 (X11; Linux x86_64; rv:85.0) Gecko/20100101 Firefox/85.0","v1-up-stims","","","","","","","","40,50,60,70,80","media/audio/stims/spherical_300cm_s20_c20_cd-full_matched_a50.wav","spherical","20","20","full","matched","50","80","1408"
"echo-presentation","68","554517","0.0-68.0","5ea6df209d688606829ac644","5fef55e628823a0076ec12ee","602014e1101ae05c0ba310a0","Mozilla/5.0 (X11; Linux x86_64; rv:85.0) Gecko/20100101 Firefox/85.0","v1-up-stims","","","","","","","","40,50,60,70,80","media/audio/stims/spherical_300cm_s20_c20_cd-full_matched_a50.wav","spherical","20","20","full","matched","50","70","2819"
"echo-presentation","69","558661","0.0-69.0","5ea6df209d688606829ac644","5fef55e628823a0076ec12ee","602014e1101ae05c0ba310a0","Mozilla/5.0 (X11; Linux x86_64; rv:85.0) Gecko/20100101 Firefox/85.0","v1-up-stims","","","","","","","","40,50,60,70,80","media/audio/stims/spherical_300cm_s20_c20_cd-full_matched_a80.wav","spherical","20","20","full","matched","80","70","2595"
"echo-presentation","70","561924","0.0-70.0","5ea6df209d688606829ac644","5fef55e628823a0076ec12ee","602014e1101ae05c0ba310a0","Mozilla/5.0 (X11; Linux x86_64; rv:85.0) Gecko/20100101 Firefox/85.0","v1-up-stims","","","","","","","","40,50,60,70,80","media/audio/stims/spherical_300cm_s20_c20_cd-full_matched_a40.wav","spherical","20","20","full","matched","40","70","2264"
"echo-presentation","71","565092","0.0-71.0","5ea6df209d688606829ac644","5fef55e628823a0076ec12ee","602014e1101ae05c0ba310a0","Mozilla/5.0 (X11; Linux x86_64; rv:85.0) Gecko/20100101 Firefox/85.0","v1-up-stims","","","","","","","","40,50,60,70,80","media/audio/stims/spherical_300cm_s20_c20_cd-full_matched_a60.wav","spherical","20","20","full","matched","60","60","2097"
"block-bookend","72","589093","0.0-72.0","5ea6df209d688606829ac644","5fef55e628823a0076ec12ee","602014e1101ae05c0ba310a0","Mozilla/5.0 (X11; Linux x86_64; rv:85.0) Gecko/20100101 Firefox/85.0","v1-up-stims","","","","","","","","","","","","","","","","",""
"block-bookend","73","604909","0.0-73.0","5ea6df209d688606829ac644","5fef55e628823a0076ec12ee","602014e1101ae05c0ba310a0","Mozilla/5.0 (X11; Linux x86_64; rv:85.0) Gecko/20100101 Firefox/85.0","v1-up-stims","","","","","","","","","","","","","","","","",""
"echo-presentation","74","609852","0.0-74.0","5ea6df209d688606829ac644","5fef55e628823a0076ec12ee","602014e1101ae05c0ba310a0","Mozilla/5.0 (X11; Linux x86_64; rv:85.0) Gecko/20100101 Firefox/85.0","v1-up-stims","","","","","","","","40,50,60,70,80","media/audio/stims/spherical_300cm_s20_c20_cd-full_matched_a40.wav","spherical","20","20","full","matched","40","50","2120"
"echo-presentation","75","613227","0.0-75.0","5ea6df209d688606829ac644","5fef55e628823a0076ec12ee","602014e1101ae05c0ba310a0","Mozilla/5.0 (X11; Linux x86_64; rv:85.0) Gecko/20100101 Firefox/85.0","v1-up-stims","","","","","","","","40,50,60,70,80","media/audio/stims/spherical_300cm_s20_c20_cd-full_matched_a60.wav","spherical","20","20","full","matched","60","70","2378"
"echo-presentation","76","616435","0.0-76.0","5ea6df209d688606829ac644","5fef55e628823a0076ec12ee","602014e1101ae05c0ba310a0","Mozilla/5.0 (X11; Linux x86_64; rv:85.0) Gecko/20100101 Firefox/85.0","v1-up-stims","","","","","","","","40,50,60,70,80","media/audio/stims/spherical_300cm_s20_c20_cd-full_matched_a60.wav","spherical","20","20","full","matched","60","60","2257"
"echo-presentation","77","618755","0.0-77.0","5ea6df209d688606829ac644","5fef55e628823a0076ec12ee","602014e1101ae05c0ba310a0","Mozilla/5.0 (X11; Linux x86_64; rv:85.0) Gecko/20100101 Firefox/85.0","v1-up-stims","","","","","","","","40,50,60,70,80","media/audio/stims/spherical_300cm_s20_c20_cd-full_matched_a70.wav","spherical","20","20","full","matched","70","70","1178"
"echo-presentation","78","621283","0.0-78.0","5ea6df209d688606829ac644","5fef55e628823a0076ec12ee","602014e1101ae05c0ba310a0","Mozilla/5.0 (X11; Linux x86_64; rv:85.0) Gecko/20100101 Firefox/85.0","v1-up-stims","","","","","","","","40,50,60,70,80","media/audio/stims/spherical_300cm_s20_c20_cd-full_matched_a40.wav","spherical","20","20","full","matched","40","50","1498"
"echo-presentation","79","626331","0.0-79.0","5ea6df209d688606829ac644","5fef55e628823a0076ec12ee","602014e1101ae05c0ba310a0","Mozilla/5.0 (X11; Linux x86_64; rv:85.0) Gecko/20100101 Firefox/85.0","v1-up-stims","","","","","","","","40,50,60,70,80","media/audio/stims/spherical_300cm_s20_c20_cd-full_matched_a80.wav","spherical","20","20","full","matched","80","60","3065"
"echo-presentation","80","629595","0.0-80.0","5ea6df209d688606829ac644","5fef55e628823a0076ec12ee","602014e1101ae05c0ba310a0","Mozilla/5.0 (X11; Linux x86_64; rv:85.0) Gecko/20100101 Firefox/85.0","v1-up-stims","","","","","","","","40,50,60,70,80","media/audio/stims/spherical_300cm_s20_c20_cd-full_matched_a50.wav","spherical","20","20","full","matched","50","80","2098"
"echo-presentation","81","632715","0.0-81.0","5ea6df209d688606829ac644","5fef55e628823a0076ec12ee","602014e1101ae05c0ba310a0","Mozilla/5.0 (X11; Linux x86_64; rv:85.0) Gecko/20100101 Firefox/85.0","v1-up-stims","","","","","","","","40,50,60,70,80","media/audio/stims/spherical_300cm_s20_c20_cd-full_matched_a40.wav","spherical","20","20","full","matched","40","70","1905"
"echo-presentation","82","635883","0.0-82.0","5ea6df209d688606829ac644","5fef55e628823a0076ec12ee","602014e1101ae05c0ba310a0","Mozilla/5.0 (X11; Linux x86_64; rv:85.0) Gecko/20100101 Firefox/85.0","v1-up-stims","","","","","","","","40,50,60,70,80","media/audio/stims/spherical_300cm_s20_c20_cd-full_matched_a60.wav","spherical","20","20","full","matched","60","70","2194"
"echo-presentation","83","640995","0.0-83.0","5ea6df209d688606829ac644","5fef55e628823a0076ec12ee","602014e1101ae05c0ba310a0","Mozilla/5.0 (X11; Linux x86_64; rv:85.0) Gecko/20100101 Firefox/85.0","v1-up-stims","","","","","","","","40,50,60,70,80","media/audio/stims/spherical_300cm_s20_c20_cd-full_matched_a50.wav","spherical","20","20","full","matched","50","60","2698"
"echo-presentation","84","646115","0.0-84.0","5ea6df209d688606829ac644","5fef55e628823a0076ec12ee","602014e1101ae05c0ba310a0","Mozilla/5.0 (X11; Linux x86_64; rv:85.0) Gecko/20100101 Firefox/85.0","v1-up-stims","","","","","","","","40,50,60,70,80","media/audio/stims/spherical_300cm_s20_c20_cd-full_matched_a80.wav","spherical","20","20","full","matched","80","50","3513"
"echo-presentation","85","653019","0.0-85.0","5ea6df209d688606829ac644","5fef55e628823a0076ec12ee","602014e1101ae05c0ba310a0","Mozilla/5.0 (X11; Linux x86_64; rv:85.0) Gecko/20100101 Firefox/85.0","v1-up-stims","","","","","","","","40,50,60,70,80","media/audio/stims/spherical_300cm_s20_c20_cd-full_matched_a70.wav","spherical","20","20","full","matched","70","70","5106"
"echo-presentation","86","657394","0.0-86.0","5ea6df209d688606829ac644","5fef55e628823a0076ec12ee","602014e1101ae05c0ba310a0","Mozilla/5.0 (X11; Linux x86_64; rv:85.0) Gecko/20100101 Firefox/85.0","v1-up-stims","","","","","","","","40,50,60,70,80","media/audio/stims/spherical_300cm_s20_c20_cd-full_matched_a70.wav","spherical","20","20","full","matched","70","60","2665"
"echo-presentation","87","659467","0.0-87.0","5ea6df209d688606829ac644","5fef55e628823a0076ec12ee","602014e1101ae05c0ba310a0","Mozilla/5.0 (X11; Linux x86_64; rv:85.0) Gecko/20100101 Firefox/85.0","v1-up-stims","","","","","","","","40,50,60,70,80","media/audio/stims/spherical_300cm_s20_c20_cd-full_matched_a50.wav","spherical","20","20","full","matched","50","80","1033"
"echo-presentation","88","661939","0.0-88.0","5ea6df209d688606829ac644","5fef55e628823a0076ec12ee","602014e1101ae05c0ba310a0","Mozilla/5.0 (X11; Linux x86_64; rv:85.0) Gecko/20100101 Firefox/85.0","v1-up-stims","","","","","","","","40,50,60,70,80","media/audio/stims/spherical_300cm_s20_c20_cd-full_matched_a80.wav","spherical","20","20","full","matched","80","80","1346"
"echo-presentation","89","664666","0.0-89.0","5ea6df209d688606829ac644","5fef55e628823a0076ec12ee","602014e1101ae05c0ba310a0","Mozilla/5.0 (X11; Linux x86_64; rv:85.0) Gecko/20100101 Firefox/85.0","v1-up-stims","","","","","","","","40,50,60,70,80","media/audio/stims/spherical_300cm_s20_c20_cd-full_matched_a50.wav","spherical","20","20","full","matched","50","70","1569"
"echo-presentation","90","668218","0.0-90.0","5ea6df209d688606829ac644","5fef55e628823a0076ec12ee","602014e1101ae05c0ba310a0","Mozilla/5.0 (X11; Linux x86_64; rv:85.0) Gecko/20100101 Firefox/85.0","v1-up-stims","","","","","","","","40,50,60,70,80","media/audio/stims/spherical_300cm_s20_c20_cd-full_matched_a60.wav","spherical","20","20","full","matched","60","60","1906"
"echo-presentation","91","672522","0.0-91.0","5ea6df209d688606829ac644","5fef55e628823a0076ec12ee","602014e1101ae05c0ba310a0","Mozilla/5.0 (X11; Linux x86_64; rv:85.0) Gecko/20100101 Firefox/85.0","v1-up-stims","","","","","","","","40,50,60,70,80","media/audio/stims/spherical_300cm_s20_c20_cd-full_matched_a80.wav","spherical","20","20","full","matched","80","50","3153"
"echo-presentation","92","676434","0.0-92.0","5ea6df209d688606829ac644","5fef55e628823a0076ec12ee","602014e1101ae05c0ba310a0","Mozilla/5.0 (X11; Linux x86_64; rv:85.0) Gecko/20100101 Firefox/85.0","v1-up-stims","","","","","","","","40,50,60,70,80","media/audio/stims/spherical_300cm_s20_c20_cd-full_matched_a70.wav","spherical","20","20","full","matched","70","70","2521"
"echo-presentation","93","679162","0.0-93.0","5ea6df209d688606829ac644","5fef55e628823a0076ec12ee","602014e1101ae05c0ba310a0","Mozilla/5.0 (X11; Linux x86_64; rv:85.0) Gecko/20100101 Firefox/85.0","v1-up-stims","","","","","","","","40,50,60,70,80","media/audio/stims/spherical_300cm_s20_c20_cd-full_matched_a40.wav","spherical","20","20","full","matched","40","70","1640"
"block-bookend","94","680293","0.0-94.0","5ea6df209d688606829ac644","5fef55e628823a0076ec12ee","602014e1101ae05c0ba310a0","Mozilla/5.0 (X11; Linux x86_64; rv:85.0) Gecko/20100101 Firefox/85.0","v1-up-stims","","","","","","","","","","","","","","","","",""
"block-bookend","95","685964","0.0-95.0","5ea6df209d688606829ac644","5fef55e628823a0076ec12ee","602014e1101ae05c0ba310a0","Mozilla/5.0 (X11; Linux x86_64; rv:85.0) Gecko/20100101 Firefox/85.0","v1-up-stims","","","","","","","","","","","","","","","","",""
"echo-presentation","96","692155","0.0-96.0","5ea6df209d688606829ac644","5fef55e628823a0076ec12ee","602014e1101ae05c0ba310a0","Mozilla/5.0 (X11; Linux x86_64; rv:85.0) Gecko/20100101 Firefox/85.0","v1-up-stims","","","","","","","","-80,-70,-60,-50,-40","media/audio/stims/spherical_300cm_s20_c20_cd-full_matched_a-70.wav","spherical","20","20","full","matched","-70","-70","3490"
"echo-presentation","97","694906","0.0-97.0","5ea6df209d688606829ac644","5fef55e628823a0076ec12ee","602014e1101ae05c0ba310a0","Mozilla/5.0 (X11; Linux x86_64; rv:85.0) Gecko/20100101 Firefox/85.0","v1-up-stims","","","","","","","","-80,-70,-60,-50,-40","media/audio/stims/spherical_300cm_s20_c20_cd-full_matched_a-40.wav","spherical","20","20","full","matched","-40","-80","1630"
"echo-presentation","98","697834","0.0-98.0","5ea6df209d688606829ac644","5fef55e628823a0076ec12ee","602014e1101ae05c0ba310a0","Mozilla/5.0 (X11; Linux x86_64; rv:85.0) Gecko/20100101 Firefox/85.0","v1-up-stims","","","","","","","","-80,-70,-60,-50,-40","media/audio/stims/spherical_300cm_s20_c20_cd-full_matched_a-50.wav","spherical","20","20","full","matched","-50","-70","1955"
"echo-presentation","99","700730","0.0-99.0","5ea6df209d688606829ac644","5fef55e628823a0076ec12ee","602014e1101ae05c0ba310a0","Mozilla/5.0 (X11; Linux x86_64; rv:85.0) Gecko/20100101 Firefox/85.0","v1-up-stims","","","","","","","","-80,-70,-60,-50,-40","media/audio/stims/spherical_300cm_s20_c20_cd-full_matched_a-50.wav","spherical","20","20","full","matched","-50","-70","1809"
"echo-presentation","100","703235","0.0-100.0","5ea6df209d688606829ac644","5fef55e628823a0076ec12ee","602014e1101ae05c0ba310a0","Mozilla/5.0 (X11; Linux x86_64; rv:85.0) Gecko/20100101 Firefox/85.0","v1-up-stims","","","","","","","","-80,-70,-60,-50,-40","media/audio/stims/spherical_300cm_s20_c20_cd-full_matched_a-60.wav","spherical","20","20","full","matched","-60","-80","1418"
"echo-presentation","101","706074","0.0-101.0","5ea6df209d688606829ac644","5fef55e628823a0076ec12ee","602014e1101ae05c0ba310a0","Mozilla/5.0 (X11; Linux x86_64; rv:85.0) Gecko/20100101 Firefox/85.0","v1-up-stims","","","","","","","","-80,-70,-60,-50,-40","media/audio/stims/spherical_300cm_s20_c20_cd-full_matched_a-50.wav","spherical","20","20","full","matched","-50","-60","1825"
"echo-presentation","102","711026","0.0-102.0","5ea6df209d688606829ac644","5fef55e628823a0076ec12ee","602014e1101ae05c0ba310a0","Mozilla/5.0 (X11; Linux x86_64; rv:85.0) Gecko/20100101 Firefox/85.0","v1-up-stims","","","","","","","","-80,-70,-60,-50,-40","media/audio/stims/spherical_300cm_s20_c20_cd-full_matched_a-70.wav","spherical","20","20","full","matched","-70","-80","3874"
"echo-presentation","103","714850","0.0-103.0","5ea6df209d688606829ac644","5fef55e628823a0076ec12ee","602014e1101ae05c0ba310a0","Mozilla/5.0 (X11; Linux x86_64; rv:85.0) Gecko/20100101 Firefox/85.0","v1-up-stims","","","","","","","","-80,-70,-60,-50,-40","media/audio/stims/spherical_300cm_s20_c20_cd-full_matched_a-80.wav","spherical","20","20","full","matched","-80","-70","2546"
"echo-presentation","104","717946","0.0-104.0","5ea6df209d688606829ac644","5fef55e628823a0076ec12ee","602014e1101ae05c0ba310a0","Mozilla/5.0 (X11; Linux x86_64; rv:85.0) Gecko/20100101 Firefox/85.0","v1-up-stims","","","","","","","","-80,-70,-60,-50,-40","media/audio/stims/spherical_300cm_s20_c20_cd-full_matched_a-80.wav","spherical","20","20","full","matched","-80","-60","1968"
"echo-presentation","105","720922","0.0-105.0","5ea6df209d688606829ac644","5fef55e628823a0076ec12ee","602014e1101ae05c0ba310a0","Mozilla/5.0 (X11; Linux x86_64; rv:85.0) Gecko/20100101 Firefox/85.0","v1-up-stims","","","","","","","","-80,-70,-60,-50,-40","media/audio/stims/spherical_300cm_s20_c20_cd-full_matched_a-70.wav","spherical","20","20","full","matched","-70","-60","1905"
"echo-presentation","106","723801","0.0-106.0","5ea6df209d688606829ac644","5fef55e628823a0076ec12ee","602014e1101ae05c0ba310a0","Mozilla/5.0 (X11; Linux x86_64; rv:85.0) Gecko/20100101 Firefox/85.0","v1-up-stims","","","","","","","","-80,-70,-60,-50,-40","media/audio/stims/spherical_300cm_s20_c20_cd-full_matched_a-50.wav","spherical","20","20","full","matched","-50","-70","1929"
"echo-presentation","107","726682","0.0-107.0","5ea6df209d688606829ac644","5fef55e628823a0076ec12ee","602014e1101ae05c0ba310a0","Mozilla/5.0 (X11; Linux x86_64; rv:85.0) Gecko/20100101 Firefox/85.0","v1-up-stims","","","","","","","","-80,-70,-60,-50,-40","media/audio/stims/spherical_300cm_s20_c20_cd-full_matched_a-80.wav","spherical","20","20","full","matched","-80","-80","1346"
"echo-presentation","108","729090","0.0-108.0","5ea6df209d688606829ac644","5fef55e628823a0076ec12ee","602014e1101ae05c0ba310a0","Mozilla/5.0 (X11; Linux x86_64; rv:85.0) Gecko/20100101 Firefox/85.0","v1-up-stims","","","","","","","","-80,-70,-60,-50,-40","media/audio/stims/spherical_300cm_s20_c20_cd-full_matched_a-60.wav","spherical","20","20","full","matched","-60","-80","1481"
"echo-presentation","109","732609","0.0-109.0","5ea6df209d688606829ac644","5fef55e628823a0076ec12ee","602014e1101ae05c0ba310a0","Mozilla/5.0 (X11; Linux x86_64; rv:85.0) Gecko/20100101 Firefox/85.0","v1-up-stims","","","","","","","","-80,-70,-60,-50,-40","media/audio/stims/spherical_300cm_s20_c20_cd-full_matched_a-40.wav","spherical","20","20","full","matched","-40","-80","2313"
"echo-presentation","110","735449","0.0-110.0","5ea6df209d688606829ac644","5fef55e628823a0076ec12ee","602014e1101ae05c0ba310a0","Mozilla/5.0 (X11; Linux x86_64; rv:85.0) Gecko/20100101 Firefox/85.0","v1-up-stims","","","","","","","","-80,-70,-60,-50,-40","media/audio/stims/spherical_300cm_s20_c20_cd-full_matched_a-40.wav","spherical","20","20","full","matched","-40","-70","1585"
"echo-presentation","111","738745","0.0-111.0","5ea6df209d688606829ac644","5fef55e628823a0076ec12ee","602014e1101ae05c0ba310a0","Mozilla/5.0 (X11; Linux x86_64; rv:85.0) Gecko/20100101 Firefox/85.0","v1-up-stims","","","","","","","","-80,-70,-60,-50,-40","media/audio/stims/spherical_300cm_s20_c20_cd-full_matched_a-70.wav","spherical","20","20","full","matched","-70","-50","2201"
"echo-presentation","112","741490","0.0-112.0","5ea6df209d688606829ac644","5fef55e628823a0076ec12ee","602014e1101ae05c0ba310a0","Mozilla/5.0 (X11; Linux x86_64; rv:85.0) Gecko/20100101 Firefox/85.0","v1-up-stims","","","","","","","","-80,-70,-60,-50,-40","media/audio/stims/spherical_300cm_s20_c20_cd-full_matched_a-80.wav","spherical","20","20","full","matched","-80","-70","1601"
"echo-presentation","113","744697","0.0-113.0","5ea6df209d688606829ac644","5fef55e628823a0076ec12ee","602014e1101ae05c0ba310a0","Mozilla/5.0 (X11; Linux x86_64; rv:85.0) Gecko/20100101 Firefox/85.0","v1-up-stims","","","","","","","","-80,-70,-60,-50,-40","media/audio/stims/spherical_300cm_s20_c20_cd-full_matched_a-60.wav","spherical","20","20","full","matched","-60","-70","1801"
"echo-presentation","114","747153","0.0-114.0","5ea6df209d688606829ac644","5fef55e628823a0076ec12ee","602014e1101ae05c0ba310a0","Mozilla/5.0 (X11; Linux x86_64; rv:85.0) Gecko/20100101 Firefox/85.0","v1-up-stims","","","","","","","","-80,-70,-60,-50,-40","media/audio/stims/spherical_300cm_s20_c20_cd-full_matched_a-40.wav","spherical","20","20","full","matched","-40","-80","1536"
"echo-presentation","115","750545","0.0-115.0","5ea6df209d688606829ac644","5fef55e628823a0076ec12ee","602014e1101ae05c0ba310a0","Mozilla/5.0 (X11; Linux x86_64; rv:85.0) Gecko/20100101 Firefox/85.0","v1-up-stims","","","","","","","","-80,-70,-60,-50,-40","media/audio/stims/spherical_300cm_s20_c20_cd-full_matched_a-60.wav","spherical","20","20","full","matched","-60","-50","2001"
"block-bookend","116","753115","0.0-116.0","5ea6df209d688606829ac644","5fef55e628823a0076ec12ee","602014e1101ae05c0ba310a0","Mozilla/5.0 (X11; Linux x86_64; rv:85.0) Gecko/20100101 Firefox/85.0","v1-up-stims","","","","","","","","","","","","","","","","",""
"block-bookend","117","759723","0.0-117.0","5ea6df209d688606829ac644","5fef55e628823a0076ec12ee","602014e1101ae05c0ba310a0","Mozilla/5.0 (X11; Linux x86_64; rv:85.0) Gecko/20100101 Firefox/85.0","v1-up-stims","","","","","","","","","","","","","","","","",""
"echo-presentation","118","762777","0.0-118.0","5ea6df209d688606829ac644","5fef55e628823a0076ec12ee","602014e1101ae05c0ba310a0","Mozilla/5.0 (X11; Linux x86_64; rv:85.0) Gecko/20100101 Firefox/85.0","v1-up-stims","","","","","","","","-80,-70,-60,-50,-40","media/audio/stims/spherical_300cm_s20_c20_cd-full_matched_a-60.wav","spherical","20","20","full","matched","-60","-80","1545"
"echo-presentation","119","765738","0.0-119.0","5ea6df209d688606829ac644","5fef55e628823a0076ec12ee","602014e1101ae05c0ba310a0","Mozilla/5.0 (X11; Linux x86_64; rv:85.0) Gecko/20100101 Firefox/85.0","v1-up-stims","","","","","","","","-80,-70,-60,-50,-40","media/audio/stims/spherical_300cm_s20_c20_cd-full_matched_a-50.wav","spherical","20","20","full","matched","-50","-70","1921"
"echo-presentation","120","770881","0.0-120.0","5ea6df209d688606829ac644","5fef55e628823a0076ec12ee","602014e1101ae05c0ba310a0","Mozilla/5.0 (X11; Linux x86_64; rv:85.0) Gecko/20100101 Firefox/85.0","v1-up-stims","","","","","","","","-80,-70,-60,-50,-40","media/audio/stims/spherical_300cm_s20_c20_cd-full_matched_a-80.wav","spherical","20","20","full","matched","-80","-50","2085"
"echo-presentation","121","774113","0.0-121.0","5ea6df209d688606829ac644","5fef55e628823a0076ec12ee","602014e1101ae05c0ba310a0","Mozilla/5.0 (X11; Linux x86_64; rv:85.0) Gecko/20100101 Firefox/85.0","v1-up-stims","","","","","","","","-80,-70,-60,-50,-40","media/audio/stims/spherical_300cm_s20_c20_cd-full_matched_a-60.wav","spherical","20","20","full","matched","-60","-70","2016"
"echo-presentation","122","776785","0.0-122.0","5ea6df209d688606829ac644","5fef55e628823a0076ec12ee","602014e1101ae05c0ba310a0","Mozilla/5.0 (X11; Linux x86_64; rv:85.0) Gecko/20100101 Firefox/85.0","v1-up-stims","","","","","","","","-80,-70,-60,-50,-40","media/audio/stims/spherical_300cm_s20_c20_cd-full_matched_a-70.wav","spherical","20","20","full","matched","-70","-80","1335"
"echo-presentation","123","780745","0.0-123.0","5ea6df209d688606829ac644","5fef55e628823a0076ec12ee","602014e1101ae05c0ba310a0","Mozilla/5.0 (X11; Linux x86_64; rv:85.0) Gecko/20100101 Firefox/85.0","v1-up-stims","","","","","","","","-80,-70,-60,-50,-40","media/audio/stims/spherical_300cm_s20_c20_cd-full_matched_a-80.wav","spherical","20","20","full","matched","-80","-70","2177"
"echo-presentation","124","783594","0.0-124.0","5ea6df209d688606829ac644","5fef55e628823a0076ec12ee","602014e1101ae05c0ba310a0","Mozilla/5.0 (X11; Linux x86_64; rv:85.0) Gecko/20100101 Firefox/85.0","v1-up-stims","","","","","","","","-80,-70,-60,-50,-40","media/audio/stims/spherical_300cm_s20_c20_cd-full_matched_a-40.wav","spherical","20","20","full","matched","-40","-50","1762"
"echo-presentation","125","789145","0.0-125.0","5ea6df209d688606829ac644","5fef55e628823a0076ec12ee","602014e1101ae05c0ba310a0","Mozilla/5.0 (X11; Linux x86_64; rv:85.0) Gecko/20100101 Firefox/85.0","v1-up-stims","","","","","","","","-80,-70,-60,-50,-40","media/audio/stims/spherical_300cm_s20_c20_cd-full_matched_a-40.wav","spherical","20","20","full","matched","-40","-60","3418"
"echo-presentation","126","791977","0.0-126.0","5ea6df209d688606829ac644","5fef55e628823a0076ec12ee","602014e1101ae05c0ba310a0","Mozilla/5.0 (X11; Linux x86_64; rv:85.0) Gecko/20100101 Firefox/85.0","v1-up-stims","","","","","","","","-80,-70,-60,-50,-40","media/audio/stims/spherical_300cm_s20_c20_cd-full_matched_a-50.wav","spherical","20","20","full","matched","-50","-70","1722"
"echo-presentation","127","794473","0.0-127.0","5ea6df209d688606829ac644","5fef55e628823a0076ec12ee","602014e1101ae05c0ba310a0","Mozilla/5.0 (X11; Linux x86_64; rv:85.0) Gecko/20100101 Firefox/85.0","v1-up-stims","","","","","","","","-80,-70,-60,-50,-40","media/audio/stims/spherical_300cm_s20_c20_cd-full_matched_a-40.wav","spherical","20","20","full","matched","-40","-80","1490"
"echo-presentation","128","797632","0.0-128.0","5ea6df209d688606829ac644","5fef55e628823a0076ec12ee","602014e1101ae05c0ba310a0","Mozilla/5.0 (X11; Linux x86_64; rv:85.0) Gecko/20100101 Firefox/85.0","v1-up-stims","","","","","","","","-80,-70,-60,-50,-40","media/audio/stims/spherical_300cm_s20_c20_cd-full_matched_a-80.wav","spherical","20","20","full","matched","-80","-80","1577"
"echo-presentation","129","800393","0.0-129.0","5ea6df209d688606829ac644","5fef55e628823a0076ec12ee","602014e1101ae05c0ba310a0","Mozilla/5.0 (X11; Linux x86_64; rv:85.0) Gecko/20100101 Firefox/85.0","v1-up-stims","","","","","","","","-80,-70,-60,-50,-40","media/audio/stims/spherical_300cm_s20_c20_cd-full_matched_a-50.wav","spherical","20","20","full","matched","-50","-80","1679"
"echo-presentation","130","803289","0.0-130.0","5ea6df209d688606829ac644","5fef55e628823a0076ec12ee","602014e1101ae05c0ba310a0","Mozilla/5.0 (X11; Linux x86_64; rv:85.0) Gecko/20100101 Firefox/85.0","v1-up-stims","","","","","","","","-80,-70,-60,-50,-40","media/audio/stims/spherical_300cm_s20_c20_cd-full_matched_a-60.wav","spherical","20","20","full","matched","-60","-60","1722"
"echo-presentation","131","807593","0.0-131.0","5ea6df209d688606829ac644","5fef55e628823a0076ec12ee","602014e1101ae05c0ba310a0","Mozilla/5.0 (X11; Linux x86_64; rv:85.0) Gecko/20100101 Firefox/85.0","v1-up-stims","","","","","","","","-80,-70,-60,-50,-40","media/audio/stims/spherical_300cm_s20_c20_cd-full_matched_a-70.wav","spherical","20","20","full","matched","-70","-50","2514"
"echo-presentation","132","811761","0.0-132.0","5ea6df209d688606829ac644","5fef55e628823a0076ec12ee","602014e1101ae05c0ba310a0","Mozilla/5.0 (X11; Linux x86_64; rv:85.0) Gecko/20100101 Firefox/85.0","v1-up-stims","","","","","","","","-80,-70,-60,-50,-40","media/audio/stims/spherical_300cm_s20_c20_cd-full_matched_a-80.wav","spherical","20","20","full","matched","-80","-70","2467"
"echo-presentation","133","815416","0.0-133.0","5ea6df209d688606829ac644","5fef55e628823a0076ec12ee","602014e1101ae05c0ba310a0","Mozilla/5.0 (X11; Linux x86_64; rv:85.0) Gecko/20100101 Firefox/85.0","v1-up-stims","","","","","","","","-80,-70,-60,-50,-40","media/audio/stims/spherical_300cm_s20_c20_cd-full_matched_a-50.wav","spherical","20","20","full","matched","-50","-50","2433"
"echo-presentation","134","819065","0.0-134.0","5ea6df209d688606829ac644","5fef55e628823a0076ec12ee","602014e1101ae05c0ba310a0","Mozilla/5.0 (X11; Linux x86_64; rv:85.0) Gecko/20100101 Firefox/85.0","v1-up-stims","","","","","","","","-80,-70,-60,-50,-40","media/audio/stims/spherical_300cm_s20_c20_cd-full_matched_a-70.wav","spherical","20","20","full","matched","-70","-60","2720"
"echo-presentation","135","822208","0.0-135.0","5ea6df209d688606829ac644","5fef55e628823a0076ec12ee","602014e1101ae05c0ba310a0","Mozilla/5.0 (X11; Linux x86_64; rv:85.0) Gecko/20100101 Firefox/85.0","v1-up-stims","","","","","","","","-80,-70,-60,-50,-40","media/audio/stims/spherical_300cm_s20_c20_cd-full_matched_a-40.wav","spherical","20","20","full","matched","-40","-70","1834"
"echo-presentation","136","826049","0.0-136.0","5ea6df209d688606829ac644","5fef55e628823a0076ec12ee","602014e1101ae05c0ba310a0","Mozilla/5.0 (X11; Linux x86_64; rv:85.0) Gecko/20100101 Firefox/85.0","v1-up-stims","","","","","","","","-80,-70,-60,-50,-40","media/audio/stims/spherical_300cm_s20_c20_cd-full_matched_a-70.wav","spherical","20","20","full","matched","-70","-80","2297"
"echo-presentation","137","829264","0.0-137.0","5ea6df209d688606829ac644","5fef55e628823a0076ec12ee","602014e1101ae05c0ba310a0","Mozilla/5.0 (X11; Linux x86_64; rv:85.0) Gecko/20100101 Firefox/85.0","v1-up-stims","","","","","","","","-80,-70,-60,-50,-40","media/audio/stims/spherical_300cm_s20_c20_cd-full_matched_a-60.wav","spherical","20","20","full","matched","-60","-70","1994"
"block-bookend","138","830194","0.0-138.0","5ea6df209d688606829ac644","5fef55e628823a0076ec12ee","602014e1101ae05c0ba310a0","Mozilla/5.0 (X11; Linux x86_64; rv:85.0) Gecko/20100101 Firefox/85.0","v1-up-stims","","","","","","","","","","","","","","","","",""
