"trial_type","trial_index","time_elapsed","internal_node_id","prolificPid","studyId","sessionId","userAgent","version","rt","stimulus","key_press","chosenKeyset","failureCount","testIndex","globalVolume","choices","filename","modelName","slowdown","compensation","compensationDescriptor","receiverOrientationType","azimuth","responseAzimuth","responseDelay"
"pavlovia","0","2","0.0-0.0","5f4432700cbdc61b7ab46082","5fef55e628823a0076ec12ee","601f447c3eb6e248fae7bdff","Mozilla/5.0 (Windows NT 10.0; Win64; x64) AppleWebKit/537.36 (KHTML, like Gecko) Chrome/88.0.4324.146 Safari/537.36","v1","","","","","","","","","","","","","","","","",""
"html-keyboard-response","1","2788","0.0-1.0","5f4432700cbdc61b7ab46082","5fef55e628823a0076ec12ee","601f447c3eb6e248fae7bdff","Mozilla/5.0 (Windows NT 10.0; Win64; x64) AppleWebKit/537.36 (KHTML, like Gecko) Chrome/88.0.4324.146 Safari/537.36","v1","2785.14500008896","<div><h1>Welcome!</h1><p>Press any key to continue.</p></div>","70","","","","","","","","","","","","","",""
"consent-form","2","176320","0.0-2.0","5f4432700cbdc61b7ab46082","5fef55e628823a0076ec12ee","601f447c3eb6e248fae7bdff","Mozilla/5.0 (Windows NT 10.0; Win64; x64) AppleWebKit/537.36 (KHTML, like Gecko) Chrome/88.0.4324.146 Safari/537.36","v1","","","","","","","","","","","","","","","","",""
"keyset-select","3","1555388","0.0-3.0","5f4432700cbdc61b7ab46082","5fef55e628823a0076ec12ee","601f447c3eb6e248fae7bdff","Mozilla/5.0 (Windows NT 10.0; Win64; x64) AppleWebKit/537.36 (KHTML, like Gecko) Chrome/88.0.4324.146 Safari/537.36","v1","","","","left-hand","","","","","","","","","","","","",""
"headphone-check","4","2460023","0.0-4.0","5f4432700cbdc61b7ab46082","5fef55e628823a0076ec12ee","601f447c3eb6e248fae7bdff","Mozilla/5.0 (Windows NT 10.0; Win64; x64) AppleWebKit/537.36 (KHTML, like Gecko) Chrome/88.0.4324.146 Safari/537.36","v1","","","","","1","6","0.7","","","","","","","","","",""
"headphone-backwards-check","5","2465845","0.0-5.0","5f4432700cbdc61b7ab46082","5fef55e628823a0076ec12ee","601f447c3eb6e248fae7bdff","Mozilla/5.0 (Windows NT 10.0; Win64; x64) AppleWebKit/537.36 (KHTML, like Gecko) Chrome/88.0.4324.146 Safari/537.36","v1","","","","","0","","","","","","","","","","","",""
"training","6","2794573","0.0-6.0","5f4432700cbdc61b7ab46082","5fef55e628823a0076ec12ee","601f447c3eb6e248fae7bdff","Mozilla/5.0 (Windows NT 10.0; Win64; x64) AppleWebKit/537.36 (KHTML, like Gecko) Chrome/88.0.4324.146 Safari/537.36","v1","","","","","","","","","","","","","","","","",""
"block-bookend","7","2807277","0.0-7.0","5f4432700cbdc61b7ab46082","5fef55e628823a0076ec12ee","601f447c3eb6e248fae7bdff","Mozilla/5.0 (Windows NT 10.0; Win64; x64) AppleWebKit/537.36 (KHTML, like Gecko) Chrome/88.0.4324.146 Safari/537.36","v1","","","","","","","","","","","","","","","","",""
"echo-presentation","8","2812026","0.0-8.0","5f4432700cbdc61b7ab46082","5fef55e628823a0076ec12ee","601f447c3eb6e248fae7bdff","Mozilla/5.0 (Windows NT 10.0; Win64; x64) AppleWebKit/537.36 (KHTML, like Gecko) Chrome/88.0.4324.146 Safari/537.36","v1","","","","","","","","-20,-10,0,10,20","media/audio/stims/spherical_300cm_s20_c20_cd-full_matched_a-20.wav","spherical","20","20","full","matched","-20","-20","1549"
"echo-presentation","9","2815820","0.0-9.0","5f4432700cbdc61b7ab46082","5fef55e628823a0076ec12ee","601f447c3eb6e248fae7bdff","Mozilla/5.0 (Windows NT 10.0; Win64; x64) AppleWebKit/537.36 (KHTML, like Gecko) Chrome/88.0.4324.146 Safari/537.36","v1","","","","","","","","-20,-10,0,10,20","media/audio/stims/spherical_300cm_s20_c20_cd-full_matched_a-20.wav","spherical","20","20","full","matched","-20","-10","1866"
"echo-presentation","10","2821417","0.0-10.0","5f4432700cbdc61b7ab46082","5fef55e628823a0076ec12ee","601f447c3eb6e248fae7bdff","Mozilla/5.0 (Windows NT 10.0; Win64; x64) AppleWebKit/537.36 (KHTML, like Gecko) Chrome/88.0.4324.146 Safari/537.36","v1","","","","","","","","-20,-10,0,10,20","media/audio/stims/spherical_300cm_s20_c20_cd-full_matched_a10.wav","spherical","20","20","full","matched","10","10","3566"
"echo-presentation","11","2825835","0.0-11.0","5f4432700cbdc61b7ab46082","5fef55e628823a0076ec12ee","601f447c3eb6e248fae7bdff","Mozilla/5.0 (Windows NT 10.0; Win64; x64) AppleWebKit/537.36 (KHTML, like Gecko) Chrome/88.0.4324.146 Safari/537.36","v1","","","","","","","","-20,-10,0,10,20","media/audio/stims/spherical_300cm_s20_c20_cd-full_matched_a0.wav","spherical","20","20","full","matched","0","0","2913"
"echo-presentation","12","2829331","0.0-12.0","5f4432700cbdc61b7ab46082","5fef55e628823a0076ec12ee","601f447c3eb6e248fae7bdff","Mozilla/5.0 (Windows NT 10.0; Win64; x64) AppleWebKit/537.36 (KHTML, like Gecko) Chrome/88.0.4324.146 Safari/537.36","v1","","","","","","","","-20,-10,0,10,20","media/audio/stims/spherical_300cm_s20_c20_cd-full_matched_a10.wav","spherical","20","20","full","matched","10","-10","1960"
"echo-presentation","13","2832838","0.0-13.0","5f4432700cbdc61b7ab46082","5fef55e628823a0076ec12ee","601f447c3eb6e248fae7bdff","Mozilla/5.0 (Windows NT 10.0; Win64; x64) AppleWebKit/537.36 (KHTML, like Gecko) Chrome/88.0.4324.146 Safari/537.36","v1","","","","","","","","-20,-10,0,10,20","media/audio/stims/spherical_300cm_s20_c20_cd-full_matched_a-20.wav","spherical","20","20","full","matched","-20","-10","1791"
"echo-presentation","14","2836869","0.0-14.0","5f4432700cbdc61b7ab46082","5fef55e628823a0076ec12ee","601f447c3eb6e248fae7bdff","Mozilla/5.0 (Windows NT 10.0; Win64; x64) AppleWebKit/537.36 (KHTML, like Gecko) Chrome/88.0.4324.146 Safari/537.36","v1","","","","","","","","-20,-10,0,10,20","media/audio/stims/spherical_300cm_s20_c20_cd-full_matched_a0.wav","spherical","20","20","full","matched","0","0","2552"
"echo-presentation","15","2841560","0.0-15.0","5f4432700cbdc61b7ab46082","5fef55e628823a0076ec12ee","601f447c3eb6e248fae7bdff","Mozilla/5.0 (Windows NT 10.0; Win64; x64) AppleWebKit/537.36 (KHTML, like Gecko) Chrome/88.0.4324.146 Safari/537.36","v1","","","","","","","","-20,-10,0,10,20","media/audio/stims/spherical_300cm_s20_c20_cd-full_matched_a20.wav","spherical","20","20","full","matched","20","0","2016"
"echo-presentation","16","2844883","0.0-16.0","5f4432700cbdc61b7ab46082","5fef55e628823a0076ec12ee","601f447c3eb6e248fae7bdff","Mozilla/5.0 (Windows NT 10.0; Win64; x64) AppleWebKit/537.36 (KHTML, like Gecko) Chrome/88.0.4324.146 Safari/537.36","v1","","","","","","","","-20,-10,0,10,20","media/audio/stims/spherical_300cm_s20_c20_cd-full_matched_a10.wav","spherical","20","20","full","matched","10","-10","2124"
"echo-presentation","17","2848190","0.0-17.0","5f4432700cbdc61b7ab46082","5fef55e628823a0076ec12ee","601f447c3eb6e248fae7bdff","Mozilla/5.0 (Windows NT 10.0; Win64; x64) AppleWebKit/537.36 (KHTML, like Gecko) Chrome/88.0.4324.146 Safari/537.36","v1","","","","","","","","-20,-10,0,10,20","media/audio/stims/spherical_300cm_s20_c20_cd-full_matched_a20.wav","spherical","20","20","full","matched","20","-10","1767"
"echo-presentation","18","2851037","0.0-18.0","5f4432700cbdc61b7ab46082","5fef55e628823a0076ec12ee","601f447c3eb6e248fae7bdff","Mozilla/5.0 (Windows NT 10.0; Win64; x64) AppleWebKit/537.36 (KHTML, like Gecko) Chrome/88.0.4324.146 Safari/537.36","v1","","","","","","","","-20,-10,0,10,20","media/audio/stims/spherical_300cm_s20_c20_cd-full_matched_a20.wav","spherical","20","20","full","matched","20","0","1789"
"echo-presentation","19","2853922","0.0-19.0","5f4432700cbdc61b7ab46082","5fef55e628823a0076ec12ee","601f447c3eb6e248fae7bdff","Mozilla/5.0 (Windows NT 10.0; Win64; x64) AppleWebKit/537.36 (KHTML, like Gecko) Chrome/88.0.4324.146 Safari/537.36","v1","","","","","","","","-20,-10,0,10,20","media/audio/stims/spherical_300cm_s20_c20_cd-full_matched_a20.wav","spherical","20","20","full","matched","20","-10","2000"
"echo-presentation","20","2859052","0.0-20.0","5f4432700cbdc61b7ab46082","5fef55e628823a0076ec12ee","601f447c3eb6e248fae7bdff","Mozilla/5.0 (Windows NT 10.0; Win64; x64) AppleWebKit/537.36 (KHTML, like Gecko) Chrome/88.0.4324.146 Safari/537.36","v1","","","","","","","","-20,-10,0,10,20","media/audio/stims/spherical_300cm_s20_c20_cd-full_matched_a0.wav","spherical","20","20","full","matched","0","-10","3557"
"echo-presentation","21","2867743","0.0-21.0","5f4432700cbdc61b7ab46082","5fef55e628823a0076ec12ee","601f447c3eb6e248fae7bdff","Mozilla/5.0 (Windows NT 10.0; Win64; x64) AppleWebKit/537.36 (KHTML, like Gecko) Chrome/88.0.4324.146 Safari/537.36","v1","","","","","","","","-20,-10,0,10,20","media/audio/stims/spherical_300cm_s20_c20_cd-full_matched_a-10.wav","spherical","20","20","full","matched","-10","-10","7008"
"echo-presentation","22","2871235","0.0-22.0","5f4432700cbdc61b7ab46082","5fef55e628823a0076ec12ee","601f447c3eb6e248fae7bdff","Mozilla/5.0 (Windows NT 10.0; Win64; x64) AppleWebKit/537.36 (KHTML, like Gecko) Chrome/88.0.4324.146 Safari/537.36","v1","","","","","","","","-20,-10,0,10,20","media/audio/stims/spherical_300cm_s20_c20_cd-full_matched_a-20.wav","spherical","20","20","full","matched","-20","-20","1531"
"echo-presentation","23","2874642","0.0-23.0","5f4432700cbdc61b7ab46082","5fef55e628823a0076ec12ee","601f447c3eb6e248fae7bdff","Mozilla/5.0 (Windows NT 10.0; Win64; x64) AppleWebKit/537.36 (KHTML, like Gecko) Chrome/88.0.4324.146 Safari/537.36","v1","","","","","","","","-20,-10,0,10,20","media/audio/stims/spherical_300cm_s20_c20_cd-full_matched_a0.wav","spherical","20","20","full","matched","0","-10","1848"
"echo-presentation","24","2878451","0.0-24.0","5f4432700cbdc61b7ab46082","5fef55e628823a0076ec12ee","601f447c3eb6e248fae7bdff","Mozilla/5.0 (Windows NT 10.0; Win64; x64) AppleWebKit/537.36 (KHTML, like Gecko) Chrome/88.0.4324.146 Safari/537.36","v1","","","","","","","","-20,-10,0,10,20","media/audio/stims/spherical_300cm_s20_c20_cd-full_matched_a-10.wav","spherical","20","20","full","matched","-10","-20","1601"
"echo-presentation","25","2881277","0.0-25.0","5f4432700cbdc61b7ab46082","5fef55e628823a0076ec12ee","601f447c3eb6e248fae7bdff","Mozilla/5.0 (Windows NT 10.0; Win64; x64) AppleWebKit/537.36 (KHTML, like Gecko) Chrome/88.0.4324.146 Safari/537.36","v1","","","","","","","","-20,-10,0,10,20","media/audio/stims/spherical_300cm_s20_c20_cd-full_matched_a-10.wav","spherical","20","20","full","matched","-10","-20","1583"
"echo-presentation","26","2884310","0.0-26.0","5f4432700cbdc61b7ab46082","5fef55e628823a0076ec12ee","601f447c3eb6e248fae7bdff","Mozilla/5.0 (Windows NT 10.0; Win64; x64) AppleWebKit/537.36 (KHTML, like Gecko) Chrome/88.0.4324.146 Safari/537.36","v1","","","","","","","","-20,-10,0,10,20","media/audio/stims/spherical_300cm_s20_c20_cd-full_matched_a10.wav","spherical","20","20","full","matched","10","10","1871"
"echo-presentation","27","2887791","0.0-27.0","5f4432700cbdc61b7ab46082","5fef55e628823a0076ec12ee","601f447c3eb6e248fae7bdff","Mozilla/5.0 (Windows NT 10.0; Win64; x64) AppleWebKit/537.36 (KHTML, like Gecko) Chrome/88.0.4324.146 Safari/537.36","v1","","","","","","","","-20,-10,0,10,20","media/audio/stims/spherical_300cm_s20_c20_cd-full_matched_a-10.wav","spherical","20","20","full","matched","-10","-10","1984"
"block-bookend","28","2890534","0.0-28.0","5f4432700cbdc61b7ab46082","5fef55e628823a0076ec12ee","601f447c3eb6e248fae7bdff","Mozilla/5.0 (Windows NT 10.0; Win64; x64) AppleWebKit/537.36 (KHTML, like Gecko) Chrome/88.0.4324.146 Safari/537.36","v1","","","","","","","","","","","","","","","","",""
"block-bookend","29","2906592","0.0-29.0","5f4432700cbdc61b7ab46082","5fef55e628823a0076ec12ee","601f447c3eb6e248fae7bdff","Mozilla/5.0 (Windows NT 10.0; Win64; x64) AppleWebKit/537.36 (KHTML, like Gecko) Chrome/88.0.4324.146 Safari/537.36","v1","","","","","","","","","","","","","","","","",""
"echo-presentation","30","2915042","0.0-30.0","5f4432700cbdc61b7ab46082","5fef55e628823a0076ec12ee","601f447c3eb6e248fae7bdff","Mozilla/5.0 (Windows NT 10.0; Win64; x64) AppleWebKit/537.36 (KHTML, like Gecko) Chrome/88.0.4324.146 Safari/537.36","v1","","","","","","","","-20,-10,0,10,20","media/audio/stims/spherical_300cm_s20_c20_cd-full_matched_a10.wav","spherical","20","20","full","matched","10","20","7041"
"echo-presentation","31","2920592","0.0-31.0","5f4432700cbdc61b7ab46082","5fef55e628823a0076ec12ee","601f447c3eb6e248fae7bdff","Mozilla/5.0 (Windows NT 10.0; Win64; x64) AppleWebKit/537.36 (KHTML, like Gecko) Chrome/88.0.4324.146 Safari/537.36","v1","","","","","","","","-20,-10,0,10,20","media/audio/stims/spherical_300cm_s20_c20_cd-full_matched_a-10.wav","spherical","20","20","full","matched","-10","-20","1336"
"echo-presentation","32","2923856","0.0-32.0","5f4432700cbdc61b7ab46082","5fef55e628823a0076ec12ee","601f447c3eb6e248fae7bdff","Mozilla/5.0 (Windows NT 10.0; Win64; x64) AppleWebKit/537.36 (KHTML, like Gecko) Chrome/88.0.4324.146 Safari/537.36","v1","","","","","","","","-20,-10,0,10,20","media/audio/stims/spherical_300cm_s20_c20_cd-full_matched_a-10.wav","spherical","20","20","full","matched","-10","-10","1532"
"echo-presentation","33","2927491","0.0-33.0","5f4432700cbdc61b7ab46082","5fef55e628823a0076ec12ee","601f447c3eb6e248fae7bdff","Mozilla/5.0 (Windows NT 10.0; Win64; x64) AppleWebKit/537.36 (KHTML, like Gecko) Chrome/88.0.4324.146 Safari/537.36","v1","","","","","","","","-20,-10,0,10,20","media/audio/stims/spherical_300cm_s20_c20_cd-full_matched_a0.wav","spherical","20","20","full","matched","0","0","1839"
"echo-presentation","34","2930849","0.0-34.0","5f4432700cbdc61b7ab46082","5fef55e628823a0076ec12ee","601f447c3eb6e248fae7bdff","Mozilla/5.0 (Windows NT 10.0; Win64; x64) AppleWebKit/537.36 (KHTML, like Gecko) Chrome/88.0.4324.146 Safari/537.36","v1","","","","","","","","-20,-10,0,10,20","media/audio/stims/spherical_300cm_s20_c20_cd-full_matched_a0.wav","spherical","20","20","full","matched","0","0","1895"
"echo-presentation","35","2933554","0.0-35.0","5f4432700cbdc61b7ab46082","5fef55e628823a0076ec12ee","601f447c3eb6e248fae7bdff","Mozilla/5.0 (Windows NT 10.0; Win64; x64) AppleWebKit/537.36 (KHTML, like Gecko) Chrome/88.0.4324.146 Safari/537.36","v1","","","","","","","","-20,-10,0,10,20","media/audio/stims/spherical_300cm_s20_c20_cd-full_matched_a0.wav","spherical","20","20","full","matched","0","0","1233"
"echo-presentation","36","2936118","0.0-36.0","5f4432700cbdc61b7ab46082","5fef55e628823a0076ec12ee","601f447c3eb6e248fae7bdff","Mozilla/5.0 (Windows NT 10.0; Win64; x64) AppleWebKit/537.36 (KHTML, like Gecko) Chrome/88.0.4324.146 Safari/537.36","v1","","","","","","","","-20,-10,0,10,20","media/audio/stims/spherical_300cm_s20_c20_cd-full_matched_a-20.wav","spherical","20","20","full","matched","-20","-20","1414"
"echo-presentation","37","2939257","0.0-37.0","5f4432700cbdc61b7ab46082","5fef55e628823a0076ec12ee","601f447c3eb6e248fae7bdff","Mozilla/5.0 (Windows NT 10.0; Win64; x64) AppleWebKit/537.36 (KHTML, like Gecko) Chrome/88.0.4324.146 Safari/537.36","v1","","","","","","","","-20,-10,0,10,20","media/audio/stims/spherical_300cm_s20_c20_cd-full_matched_a20.wav","spherical","20","20","full","matched","20","20","1525"
"echo-presentation","38","2941659","0.0-38.0","5f4432700cbdc61b7ab46082","5fef55e628823a0076ec12ee","601f447c3eb6e248fae7bdff","Mozilla/5.0 (Windows NT 10.0; Win64; x64) AppleWebKit/537.36 (KHTML, like Gecko) Chrome/88.0.4324.146 Safari/537.36","v1","","","","","","","","-20,-10,0,10,20","media/audio/stims/spherical_300cm_s20_c20_cd-full_matched_a-20.wav","spherical","20","20","full","matched","-20","-10","1244"
"echo-presentation","39","2945194","0.0-39.0","5f4432700cbdc61b7ab46082","5fef55e628823a0076ec12ee","601f447c3eb6e248fae7bdff","Mozilla/5.0 (Windows NT 10.0; Win64; x64) AppleWebKit/537.36 (KHTML, like Gecko) Chrome/88.0.4324.146 Safari/537.36","v1","","","","","","","","-20,-10,0,10,20","media/audio/stims/spherical_300cm_s20_c20_cd-full_matched_a-10.wav","spherical","20","20","full","matched","-10","-20","1895"
"echo-presentation","40","2948187","0.0-40.0","5f4432700cbdc61b7ab46082","5fef55e628823a0076ec12ee","601f447c3eb6e248fae7bdff","Mozilla/5.0 (Windows NT 10.0; Win64; x64) AppleWebKit/537.36 (KHTML, like Gecko) Chrome/88.0.4324.146 Safari/537.36","v1","","","","","","","","-20,-10,0,10,20","media/audio/stims/spherical_300cm_s20_c20_cd-full_matched_a20.wav","spherical","20","20","full","matched","20","0","1765"
"echo-presentation","41","2951091","0.0-41.0","5f4432700cbdc61b7ab46082","5fef55e628823a0076ec12ee","601f447c3eb6e248fae7bdff","Mozilla/5.0 (Windows NT 10.0; Win64; x64) AppleWebKit/537.36 (KHTML, like Gecko) Chrome/88.0.4324.146 Safari/537.36","v1","","","","","","","","-20,-10,0,10,20","media/audio/stims/spherical_300cm_s20_c20_cd-full_matched_a10.wav","spherical","20","20","full","matched","10","20","1366"
"echo-presentation","42","2954828","0.0-42.0","5f4432700cbdc61b7ab46082","5fef55e628823a0076ec12ee","601f447c3eb6e248fae7bdff","Mozilla/5.0 (Windows NT 10.0; Win64; x64) AppleWebKit/537.36 (KHTML, like Gecko) Chrome/88.0.4324.146 Safari/537.36","v1","","","","","","","","-20,-10,0,10,20","media/audio/stims/spherical_300cm_s20_c20_cd-full_matched_a0.wav","spherical","20","20","full","matched","0","0","1811"
"echo-presentation","43","2957674","0.0-43.0","5f4432700cbdc61b7ab46082","5fef55e628823a0076ec12ee","601f447c3eb6e248fae7bdff","Mozilla/5.0 (Windows NT 10.0; Win64; x64) AppleWebKit/537.36 (KHTML, like Gecko) Chrome/88.0.4324.146 Safari/537.36","v1","","","","","","","","-20,-10,0,10,20","media/audio/stims/spherical_300cm_s20_c20_cd-full_matched_a10.wav","spherical","20","20","full","matched","10","10","1412"
"echo-presentation","44","2959855","0.0-44.0","5f4432700cbdc61b7ab46082","5fef55e628823a0076ec12ee","601f447c3eb6e248fae7bdff","Mozilla/5.0 (Windows NT 10.0; Win64; x64) AppleWebKit/537.36 (KHTML, like Gecko) Chrome/88.0.4324.146 Safari/537.36","v1","","","","","","","","-20,-10,0,10,20","media/audio/stims/spherical_300cm_s20_c20_cd-full_matched_a20.wav","spherical","20","20","full","matched","20","20","975"
"echo-presentation","45","2961960","0.0-45.0","5f4432700cbdc61b7ab46082","5fef55e628823a0076ec12ee","601f447c3eb6e248fae7bdff","Mozilla/5.0 (Windows NT 10.0; Win64; x64) AppleWebKit/537.36 (KHTML, like Gecko) Chrome/88.0.4324.146 Safari/537.36","v1","","","","","","","","-20,-10,0,10,20","media/audio/stims/spherical_300cm_s20_c20_cd-full_matched_a-20.wav","spherical","20","20","full","matched","-20","-20","959"
"echo-presentation","46","2966243","0.0-46.0","5f4432700cbdc61b7ab46082","5fef55e628823a0076ec12ee","601f447c3eb6e248fae7bdff","Mozilla/5.0 (Windows NT 10.0; Win64; x64) AppleWebKit/537.36 (KHTML, like Gecko) Chrome/88.0.4324.146 Safari/537.36","v1","","","","","","","","-20,-10,0,10,20","media/audio/stims/spherical_300cm_s20_c20_cd-full_matched_a-10.wav","spherical","20","20","full","matched","-10","-20","1975"
"echo-presentation","47","2968875","0.0-47.0","5f4432700cbdc61b7ab46082","5fef55e628823a0076ec12ee","601f447c3eb6e248fae7bdff","Mozilla/5.0 (Windows NT 10.0; Win64; x64) AppleWebKit/537.36 (KHTML, like Gecko) Chrome/88.0.4324.146 Safari/537.36","v1","","","","","","","","-20,-10,0,10,20","media/audio/stims/spherical_300cm_s20_c20_cd-full_matched_a10.wav","spherical","20","20","full","matched","10","20","1394"
"echo-presentation","48","2972116","0.0-48.0","5f4432700cbdc61b7ab46082","5fef55e628823a0076ec12ee","601f447c3eb6e248fae7bdff","Mozilla/5.0 (Windows NT 10.0; Win64; x64) AppleWebKit/537.36 (KHTML, like Gecko) Chrome/88.0.4324.146 Safari/537.36","v1","","","","","","","","-20,-10,0,10,20","media/audio/stims/spherical_300cm_s20_c20_cd-full_matched_a20.wav","spherical","20","20","full","matched","20","20","1842"
"echo-presentation","49","2976405","0.0-49.0","5f4432700cbdc61b7ab46082","5fef55e628823a0076ec12ee","601f447c3eb6e248fae7bdff","Mozilla/5.0 (Windows NT 10.0; Win64; x64) AppleWebKit/537.36 (KHTML, like Gecko) Chrome/88.0.4324.146 Safari/537.36","v1","","","","","","","","-20,-10,0,10,20","media/audio/stims/spherical_300cm_s20_c20_cd-full_matched_a-20.wav","spherical","20","20","full","matched","-20","-20","1858"
"block-bookend","50","2977206","0.0-50.0","5f4432700cbdc61b7ab46082","5fef55e628823a0076ec12ee","601f447c3eb6e248fae7bdff","Mozilla/5.0 (Windows NT 10.0; Win64; x64) AppleWebKit/537.36 (KHTML, like Gecko) Chrome/88.0.4324.146 Safari/537.36","v1","","","","","","","","","","","","","","","","",""
"block-bookend","51","2997146","0.0-51.0","5f4432700cbdc61b7ab46082","5fef55e628823a0076ec12ee","601f447c3eb6e248fae7bdff","Mozilla/5.0 (Windows NT 10.0; Win64; x64) AppleWebKit/537.36 (KHTML, like Gecko) Chrome/88.0.4324.146 Safari/537.36","v1","","","","","","","","","","","","","","","","",""
"echo-presentation","52","3002145","0.0-52.0","5f4432700cbdc61b7ab46082","5fef55e628823a0076ec12ee","601f447c3eb6e248fae7bdff","Mozilla/5.0 (Windows NT 10.0; Win64; x64) AppleWebKit/537.36 (KHTML, like Gecko) Chrome/88.0.4324.146 Safari/537.36","v1","","","","","","","","40,50,60,70,80","media/audio/stims/spherical_300cm_s20_c20_cd-full_matched_a80.wav","spherical","20","20","full","matched","80","80","2819"
"echo-presentation","53","3004695","0.0-53.0","5f4432700cbdc61b7ab46082","5fef55e628823a0076ec12ee","601f447c3eb6e248fae7bdff","Mozilla/5.0 (Windows NT 10.0; Win64; x64) AppleWebKit/537.36 (KHTML, like Gecko) Chrome/88.0.4324.146 Safari/537.36","v1","","","","","","","","40,50,60,70,80","media/audio/stims/spherical_300cm_s20_c20_cd-full_matched_a50.wav","spherical","20","20","full","matched","50","80","1382"
"echo-presentation","54","3007858","0.0-54.0","5f4432700cbdc61b7ab46082","5fef55e628823a0076ec12ee","601f447c3eb6e248fae7bdff","Mozilla/5.0 (Windows NT 10.0; Win64; x64) AppleWebKit/537.36 (KHTML, like Gecko) Chrome/88.0.4324.146 Safari/537.36","v1","","","","","","","","40,50,60,70,80","media/audio/stims/spherical_300cm_s20_c20_cd-full_matched_a60.wav","spherical","20","20","full","matched","60","60","2142"
"echo-presentation","55","3013036","0.0-55.0","5f4432700cbdc61b7ab46082","5fef55e628823a0076ec12ee","601f447c3eb6e248fae7bdff","Mozilla/5.0 (Windows NT 10.0; Win64; x64) AppleWebKit/537.36 (KHTML, like Gecko) Chrome/88.0.4324.146 Safari/537.36","v1","","","","","","","","40,50,60,70,80","media/audio/stims/spherical_300cm_s20_c20_cd-full_matched_a70.wav","spherical","20","20","full","matched","70","60","2644"
"echo-presentation","56","3016605","0.0-56.0","5f4432700cbdc61b7ab46082","5fef55e628823a0076ec12ee","601f447c3eb6e248fae7bdff","Mozilla/5.0 (Windows NT 10.0; Win64; x64) AppleWebKit/537.36 (KHTML, like Gecko) Chrome/88.0.4324.146 Safari/537.36","v1","","","","","","","","40,50,60,70,80","media/audio/stims/spherical_300cm_s20_c20_cd-full_matched_a60.wav","spherical","20","20","full","matched","60","50","1938"
"echo-presentation","57","3019578","0.0-57.0","5f4432700cbdc61b7ab46082","5fef55e628823a0076ec12ee","601f447c3eb6e248fae7bdff","Mozilla/5.0 (Windows NT 10.0; Win64; x64) AppleWebKit/537.36 (KHTML, like Gecko) Chrome/88.0.4324.146 Safari/537.36","v1","","","","","","","","40,50,60,70,80","media/audio/stims/spherical_300cm_s20_c20_cd-full_matched_a40.wav","spherical","20","20","full","matched","40","60","1336"
"echo-presentation","58","3022773","0.0-58.0","5f4432700cbdc61b7ab46082","5fef55e628823a0076ec12ee","601f447c3eb6e248fae7bdff","Mozilla/5.0 (Windows NT 10.0; Win64; x64) AppleWebKit/537.36 (KHTML, like Gecko) Chrome/88.0.4324.146 Safari/537.36","v1","","","","","","","","40,50,60,70,80","media/audio/stims/spherical_300cm_s20_c20_cd-full_matched_a70.wav","spherical","20","20","full","matched","70","50","1836"
"echo-presentation","59","3025714","0.0-59.0","5f4432700cbdc61b7ab46082","5fef55e628823a0076ec12ee","601f447c3eb6e248fae7bdff","Mozilla/5.0 (Windows NT 10.0; Win64; x64) AppleWebKit/537.36 (KHTML, like Gecko) Chrome/88.0.4324.146 Safari/537.36","v1","","","","","","","","40,50,60,70,80","media/audio/stims/spherical_300cm_s20_c20_cd-full_matched_a60.wav","spherical","20","20","full","matched","60","60","1604"
"echo-presentation","60","3030405","0.0-60.0","5f4432700cbdc61b7ab46082","5fef55e628823a0076ec12ee","601f447c3eb6e248fae7bdff","Mozilla/5.0 (Windows NT 10.0; Win64; x64) AppleWebKit/537.36 (KHTML, like Gecko) Chrome/88.0.4324.146 Safari/537.36","v1","","","","","","","","40,50,60,70,80","media/audio/stims/spherical_300cm_s20_c20_cd-full_matched_a50.wav","spherical","20","20","full","matched","50","70","2841"
"echo-presentation","61","3033170","0.0-61.0","5f4432700cbdc61b7ab46082","5fef55e628823a0076ec12ee","601f447c3eb6e248fae7bdff","Mozilla/5.0 (Windows NT 10.0; Win64; x64) AppleWebKit/537.36 (KHTML, like Gecko) Chrome/88.0.4324.146 Safari/537.36","v1","","","","","","","","40,50,60,70,80","media/audio/stims/spherical_300cm_s20_c20_cd-full_matched_a80.wav","spherical","20","20","full","matched","80","70","1305"
"echo-presentation","62","3036113","0.0-62.0","5f4432700cbdc61b7ab46082","5fef55e628823a0076ec12ee","601f447c3eb6e248fae7bdff","Mozilla/5.0 (Windows NT 10.0; Win64; x64) AppleWebKit/537.36 (KHTML, like Gecko) Chrome/88.0.4324.146 Safari/537.36","v1","","","","","","","","40,50,60,70,80","media/audio/stims/spherical_300cm_s20_c20_cd-full_matched_a50.wav","spherical","20","20","full","matched","50","80","1440"
"echo-presentation","63","3038422","0.0-63.0","5f4432700cbdc61b7ab46082","5fef55e628823a0076ec12ee","601f447c3eb6e248fae7bdff","Mozilla/5.0 (Windows NT 10.0; Win64; x64) AppleWebKit/537.36 (KHTML, like Gecko) Chrome/88.0.4324.146 Safari/537.36","v1","","","","","","","","40,50,60,70,80","media/audio/stims/spherical_300cm_s20_c20_cd-full_matched_a60.wav","spherical","20","20","full","matched","60","50","1355"
"echo-presentation","64","3041265","0.0-64.0","5f4432700cbdc61b7ab46082","5fef55e628823a0076ec12ee","601f447c3eb6e248fae7bdff","Mozilla/5.0 (Windows NT 10.0; Win64; x64) AppleWebKit/537.36 (KHTML, like Gecko) Chrome/88.0.4324.146 Safari/537.36","v1","","","","","","","","40,50,60,70,80","media/audio/stims/spherical_300cm_s20_c20_cd-full_matched_a50.wav","spherical","20","20","full","matched","50","80","1678"
"echo-presentation","65","3043964","0.0-65.0","5f4432700cbdc61b7ab46082","5fef55e628823a0076ec12ee","601f447c3eb6e248fae7bdff","Mozilla/5.0 (Windows NT 10.0; Win64; x64) AppleWebKit/537.36 (KHTML, like Gecko) Chrome/88.0.4324.146 Safari/537.36","v1","","","","","","","","40,50,60,70,80","media/audio/stims/spherical_300cm_s20_c20_cd-full_matched_a80.wav","spherical","20","20","full","matched","80","40","1597"
"echo-presentation","66","3046764","0.0-66.0","5f4432700cbdc61b7ab46082","5fef55e628823a0076ec12ee","601f447c3eb6e248fae7bdff","Mozilla/5.0 (Windows NT 10.0; Win64; x64) AppleWebKit/537.36 (KHTML, like Gecko) Chrome/88.0.4324.146 Safari/537.36","v1","","","","","","","","40,50,60,70,80","media/audio/stims/spherical_300cm_s20_c20_cd-full_matched_a70.wav","spherical","20","20","full","matched","70","50","1629"
"echo-presentation","67","3049376","0.0-67.0","5f4432700cbdc61b7ab46082","5fef55e628823a0076ec12ee","601f447c3eb6e248fae7bdff","Mozilla/5.0 (Windows NT 10.0; Win64; x64) AppleWebKit/537.36 (KHTML, like Gecko) Chrome/88.0.4324.146 Safari/537.36","v1","","","","","","","","40,50,60,70,80","media/audio/stims/spherical_300cm_s20_c20_cd-full_matched_a40.wav","spherical","20","20","full","matched","40","70","1197"
"echo-presentation","68","3053197","0.0-68.0","5f4432700cbdc61b7ab46082","5fef55e628823a0076ec12ee","601f447c3eb6e248fae7bdff","Mozilla/5.0 (Windows NT 10.0; Win64; x64) AppleWebKit/537.36 (KHTML, like Gecko) Chrome/88.0.4324.146 Safari/537.36","v1","","","","","","","","40,50,60,70,80","media/audio/stims/spherical_300cm_s20_c20_cd-full_matched_a70.wav","spherical","20","20","full","matched","70","70","2245"
"echo-presentation","69","3055474","0.0-69.0","5f4432700cbdc61b7ab46082","5fef55e628823a0076ec12ee","601f447c3eb6e248fae7bdff","Mozilla/5.0 (Windows NT 10.0; Win64; x64) AppleWebKit/537.36 (KHTML, like Gecko) Chrome/88.0.4324.146 Safari/537.36","v1","","","","","","","","40,50,60,70,80","media/audio/stims/spherical_300cm_s20_c20_cd-full_matched_a40.wav","spherical","20","20","full","matched","40","80","1130"
"echo-presentation","70","3059046","0.0-70.0","5f4432700cbdc61b7ab46082","5fef55e628823a0076ec12ee","601f447c3eb6e248fae7bdff","Mozilla/5.0 (Windows NT 10.0; Win64; x64) AppleWebKit/537.36 (KHTML, like Gecko) Chrome/88.0.4324.146 Safari/537.36","v1","","","","","","","","40,50,60,70,80","media/audio/stims/spherical_300cm_s20_c20_cd-full_matched_a80.wav","spherical","20","20","full","matched","80","60","2426"
"echo-presentation","71","3061176","0.0-71.0","5f4432700cbdc61b7ab46082","5fef55e628823a0076ec12ee","601f447c3eb6e248fae7bdff","Mozilla/5.0 (Windows NT 10.0; Win64; x64) AppleWebKit/537.36 (KHTML, like Gecko) Chrome/88.0.4324.146 Safari/537.36","v1","","","","","","","","40,50,60,70,80","media/audio/stims/spherical_300cm_s20_c20_cd-full_matched_a40.wav","spherical","20","20","full","matched","40","80","1133"
"block-bookend","72","3062675","0.0-72.0","5f4432700cbdc61b7ab46082","5fef55e628823a0076ec12ee","601f447c3eb6e248fae7bdff","Mozilla/5.0 (Windows NT 10.0; Win64; x64) AppleWebKit/537.36 (KHTML, like Gecko) Chrome/88.0.4324.146 Safari/537.36","v1","","","","","","","","","","","","","","","","",""
"block-bookend","73","3081113","0.0-73.0","5f4432700cbdc61b7ab46082","5fef55e628823a0076ec12ee","601f447c3eb6e248fae7bdff","Mozilla/5.0 (Windows NT 10.0; Win64; x64) AppleWebKit/537.36 (KHTML, like Gecko) Chrome/88.0.4324.146 Safari/537.36","v1","","","","","","","","","","","","","","","","",""
"echo-presentation","74","3084292","0.0-74.0","5f4432700cbdc61b7ab46082","5fef55e628823a0076ec12ee","601f447c3eb6e248fae7bdff","Mozilla/5.0 (Windows NT 10.0; Win64; x64) AppleWebKit/537.36 (KHTML, like Gecko) Chrome/88.0.4324.146 Safari/537.36","v1","","","","","","","","40,50,60,70,80","media/audio/stims/spherical_300cm_s20_c20_cd-full_matched_a60.wav","spherical","20","20","full","matched","60","70","1260"
"echo-presentation","75","3088004","0.0-75.0","5f4432700cbdc61b7ab46082","5fef55e628823a0076ec12ee","601f447c3eb6e248fae7bdff","Mozilla/5.0 (Windows NT 10.0; Win64; x64) AppleWebKit/537.36 (KHTML, like Gecko) Chrome/88.0.4324.146 Safari/537.36","v1","","","","","","","","40,50,60,70,80","media/audio/stims/spherical_300cm_s20_c20_cd-full_matched_a40.wav","spherical","20","20","full","matched","40","60","2648"
"echo-presentation","76","3091314","0.0-76.0","5f4432700cbdc61b7ab46082","5fef55e628823a0076ec12ee","601f447c3eb6e248fae7bdff","Mozilla/5.0 (Windows NT 10.0; Win64; x64) AppleWebKit/537.36 (KHTML, like Gecko) Chrome/88.0.4324.146 Safari/537.36","v1","","","","","","","","40,50,60,70,80","media/audio/stims/spherical_300cm_s20_c20_cd-full_matched_a50.wav","spherical","20","20","full","matched","50","80","2026"
"echo-presentation","77","3094044","0.0-77.0","5f4432700cbdc61b7ab46082","5fef55e628823a0076ec12ee","601f447c3eb6e248fae7bdff","Mozilla/5.0 (Windows NT 10.0; Win64; x64) AppleWebKit/537.36 (KHTML, like Gecko) Chrome/88.0.4324.146 Safari/537.36","v1","","","","","","","","40,50,60,70,80","media/audio/stims/spherical_300cm_s20_c20_cd-full_matched_a40.wav","spherical","20","20","full","matched","40","80","1182"
"echo-presentation","78","3098119","0.0-78.0","5f4432700cbdc61b7ab46082","5fef55e628823a0076ec12ee","601f447c3eb6e248fae7bdff","Mozilla/5.0 (Windows NT 10.0; Win64; x64) AppleWebKit/537.36 (KHTML, like Gecko) Chrome/88.0.4324.146 Safari/537.36","v1","","","","","","","","40,50,60,70,80","media/audio/stims/spherical_300cm_s20_c20_cd-full_matched_a80.wav","spherical","20","20","full","matched","80","80","2615"
"echo-presentation","79","3100969","0.0-79.0","5f4432700cbdc61b7ab46082","5fef55e628823a0076ec12ee","601f447c3eb6e248fae7bdff","Mozilla/5.0 (Windows NT 10.0; Win64; x64) AppleWebKit/537.36 (KHTML, like Gecko) Chrome/88.0.4324.146 Safari/537.36","v1","","","","","","","","40,50,60,70,80","media/audio/stims/spherical_300cm_s20_c20_cd-full_matched_a80.wav","spherical","20","20","full","matched","80","70","1872"
"echo-presentation","80","3103844","0.0-80.0","5f4432700cbdc61b7ab46082","5fef55e628823a0076ec12ee","601f447c3eb6e248fae7bdff","Mozilla/5.0 (Windows NT 10.0; Win64; x64) AppleWebKit/537.36 (KHTML, like Gecko) Chrome/88.0.4324.146 Safari/537.36","v1","","","","","","","","40,50,60,70,80","media/audio/stims/spherical_300cm_s20_c20_cd-full_matched_a40.wav","spherical","20","20","full","matched","40","80","1434"
"echo-presentation","81","3106167","0.0-81.0","5f4432700cbdc61b7ab46082","5fef55e628823a0076ec12ee","601f447c3eb6e248fae7bdff","Mozilla/5.0 (Windows NT 10.0; Win64; x64) AppleWebKit/537.36 (KHTML, like Gecko) Chrome/88.0.4324.146 Safari/537.36","v1","","","","","","","","40,50,60,70,80","media/audio/stims/spherical_300cm_s20_c20_cd-full_matched_a70.wav","spherical","20","20","full","matched","70","80","1246"
"echo-presentation","82","3108382","0.0-82.0","5f4432700cbdc61b7ab46082","5fef55e628823a0076ec12ee","601f447c3eb6e248fae7bdff","Mozilla/5.0 (Windows NT 10.0; Win64; x64) AppleWebKit/537.36 (KHTML, like Gecko) Chrome/88.0.4324.146 Safari/537.36","v1","","","","","","","","40,50,60,70,80","media/audio/stims/spherical_300cm_s20_c20_cd-full_matched_a80.wav","spherical","20","20","full","matched","80","80","1266"
"echo-presentation","83","3111578","0.0-83.0","5f4432700cbdc61b7ab46082","5fef55e628823a0076ec12ee","601f447c3eb6e248fae7bdff","Mozilla/5.0 (Windows NT 10.0; Win64; x64) AppleWebKit/537.36 (KHTML, like Gecko) Chrome/88.0.4324.146 Safari/537.36","v1","","","","","","","","40,50,60,70,80","media/audio/stims/spherical_300cm_s20_c20_cd-full_matched_a50.wav","spherical","20","20","full","matched","50","60","2218"
"echo-presentation","84","3114008","0.0-84.0","5f4432700cbdc61b7ab46082","5fef55e628823a0076ec12ee","601f447c3eb6e248fae7bdff","Mozilla/5.0 (Windows NT 10.0; Win64; x64) AppleWebKit/537.36 (KHTML, like Gecko) Chrome/88.0.4324.146 Safari/537.36","v1","","","","","","","","40,50,60,70,80","media/audio/stims/spherical_300cm_s20_c20_cd-full_matched_a70.wav","spherical","20","20","full","matched","70","50","1253"
"echo-presentation","85","3118115","0.0-85.0","5f4432700cbdc61b7ab46082","5fef55e628823a0076ec12ee","601f447c3eb6e248fae7bdff","Mozilla/5.0 (Windows NT 10.0; Win64; x64) AppleWebKit/537.36 (KHTML, like Gecko) Chrome/88.0.4324.146 Safari/537.36","v1","","","","","","","","40,50,60,70,80","media/audio/stims/spherical_300cm_s20_c20_cd-full_matched_a80.wav","spherical","20","20","full","matched","80","80","1487"
"echo-presentation","86","3121265","0.0-86.0","5f4432700cbdc61b7ab46082","5fef55e628823a0076ec12ee","601f447c3eb6e248fae7bdff","Mozilla/5.0 (Windows NT 10.0; Win64; x64) AppleWebKit/537.36 (KHTML, like Gecko) Chrome/88.0.4324.146 Safari/537.36","v1","","","","","","","","40,50,60,70,80","media/audio/stims/spherical_300cm_s20_c20_cd-full_matched_a60.wav","spherical","20","20","full","matched","60","60","2322"
"echo-presentation","87","3125306","0.0-87.0","5f4432700cbdc61b7ab46082","5fef55e628823a0076ec12ee","601f447c3eb6e248fae7bdff","Mozilla/5.0 (Windows NT 10.0; Win64; x64) AppleWebKit/537.36 (KHTML, like Gecko) Chrome/88.0.4324.146 Safari/537.36","v1","","","","","","","","40,50,60,70,80","media/audio/stims/spherical_300cm_s20_c20_cd-full_matched_a50.wav","spherical","20","20","full","matched","50","60","1502"
"echo-presentation","88","3130284","0.0-88.0","5f4432700cbdc61b7ab46082","5fef55e628823a0076ec12ee","601f447c3eb6e248fae7bdff","Mozilla/5.0 (Windows NT 10.0; Win64; x64) AppleWebKit/537.36 (KHTML, like Gecko) Chrome/88.0.4324.146 Safari/537.36","v1","","","","","","","","40,50,60,70,80","media/audio/stims/spherical_300cm_s20_c20_cd-full_matched_a70.wav","spherical","20","20","full","matched","70","60","3776"
"echo-presentation","89","3132657","0.0-89.0","5f4432700cbdc61b7ab46082","5fef55e628823a0076ec12ee","601f447c3eb6e248fae7bdff","Mozilla/5.0 (Windows NT 10.0; Win64; x64) AppleWebKit/537.36 (KHTML, like Gecko) Chrome/88.0.4324.146 Safari/537.36","v1","","","","","","","","40,50,60,70,80","media/audio/stims/spherical_300cm_s20_c20_cd-full_matched_a50.wav","spherical","20","20","full","matched","50","60","1443"
"echo-presentation","90","3135066","0.0-90.0","5f4432700cbdc61b7ab46082","5fef55e628823a0076ec12ee","601f447c3eb6e248fae7bdff","Mozilla/5.0 (Windows NT 10.0; Win64; x64) AppleWebKit/537.36 (KHTML, like Gecko) Chrome/88.0.4324.146 Safari/537.36","v1","","","","","","","","40,50,60,70,80","media/audio/stims/spherical_300cm_s20_c20_cd-full_matched_a60.wav","spherical","20","20","full","matched","60","60","1348"
"echo-presentation","91","3137473","0.0-91.0","5f4432700cbdc61b7ab46082","5fef55e628823a0076ec12ee","601f447c3eb6e248fae7bdff","Mozilla/5.0 (Windows NT 10.0; Win64; x64) AppleWebKit/537.36 (KHTML, like Gecko) Chrome/88.0.4324.146 Safari/537.36","v1","","","","","","","","40,50,60,70,80","media/audio/stims/spherical_300cm_s20_c20_cd-full_matched_a70.wav","spherical","20","20","full","matched","70","70","1561"
"echo-presentation","92","3143499","0.0-92.0","5f4432700cbdc61b7ab46082","5fef55e628823a0076ec12ee","601f447c3eb6e248fae7bdff","Mozilla/5.0 (Windows NT 10.0; Win64; x64) AppleWebKit/537.36 (KHTML, like Gecko) Chrome/88.0.4324.146 Safari/537.36","v1","","","","","","","","40,50,60,70,80","media/audio/stims/spherical_300cm_s20_c20_cd-full_matched_a40.wav","spherical","20","20","full","matched","40","60","5442"
"echo-presentation","93","3145858","0.0-93.0","5f4432700cbdc61b7ab46082","5fef55e628823a0076ec12ee","601f447c3eb6e248fae7bdff","Mozilla/5.0 (Windows NT 10.0; Win64; x64) AppleWebKit/537.36 (KHTML, like Gecko) Chrome/88.0.4324.146 Safari/537.36","v1","","","","","","","","40,50,60,70,80","media/audio/stims/spherical_300cm_s20_c20_cd-full_matched_a60.wav","spherical","20","20","full","matched","60","80","1214"
"block-bookend","94","3148417","0.0-94.0","5f4432700cbdc61b7ab46082","5fef55e628823a0076ec12ee","601f447c3eb6e248fae7bdff","Mozilla/5.0 (Windows NT 10.0; Win64; x64) AppleWebKit/537.36 (KHTML, like Gecko) Chrome/88.0.4324.146 Safari/537.36","v1","","","","","","","","","","","","","","","","",""
"block-bookend","95","3155370","0.0-95.0","5f4432700cbdc61b7ab46082","5fef55e628823a0076ec12ee","601f447c3eb6e248fae7bdff","Mozilla/5.0 (Windows NT 10.0; Win64; x64) AppleWebKit/537.36 (KHTML, like Gecko) Chrome/88.0.4324.146 Safari/537.36","v1","","","","","","","","","","","","","","","","",""
"echo-presentation","96","3157871","0.0-96.0","5f4432700cbdc61b7ab46082","5fef55e628823a0076ec12ee","601f447c3eb6e248fae7bdff","Mozilla/5.0 (Windows NT 10.0; Win64; x64) AppleWebKit/537.36 (KHTML, like Gecko) Chrome/88.0.4324.146 Safari/537.36","v1","","","","","","","","-80,-70,-60,-50,-40","media/audio/stims/spherical_300cm_s20_c20_cd-full_matched_a-50.wav","spherical","20","20","full","matched","-50","-80","1210"
"echo-presentation","97","3159949","0.0-97.0","5f4432700cbdc61b7ab46082","5fef55e628823a0076ec12ee","601f447c3eb6e248fae7bdff","Mozilla/5.0 (Windows NT 10.0; Win64; x64) AppleWebKit/537.36 (KHTML, like Gecko) Chrome/88.0.4324.146 Safari/537.36","v1","","","","","","","","-80,-70,-60,-50,-40","media/audio/stims/spherical_300cm_s20_c20_cd-full_matched_a-40.wav","spherical","20","20","full","matched","-40","-60","1470"
"echo-presentation","98","3162675","0.0-98.0","5f4432700cbdc61b7ab46082","5fef55e628823a0076ec12ee","601f447c3eb6e248fae7bdff","Mozilla/5.0 (Windows NT 10.0; Win64; x64) AppleWebKit/537.36 (KHTML, like Gecko) Chrome/88.0.4324.146 Safari/537.36","v1","","","","","","","","-80,-70,-60,-50,-40","media/audio/stims/spherical_300cm_s20_c20_cd-full_matched_a-40.wav","spherical","20","20","full","matched","-40","-60","1730"
"echo-presentation","99","3165019","0.0-99.0","5f4432700cbdc61b7ab46082","5fef55e628823a0076ec12ee","601f447c3eb6e248fae7bdff","Mozilla/5.0 (Windows NT 10.0; Win64; x64) AppleWebKit/537.36 (KHTML, like Gecko) Chrome/88.0.4324.146 Safari/537.36","v1","","","","","","","","-80,-70,-60,-50,-40","media/audio/stims/spherical_300cm_s20_c20_cd-full_matched_a-50.wav","spherical","20","20","full","matched","-50","-80","1801"
"echo-presentation","100","3166845","0.0-100.0","5f4432700cbdc61b7ab46082","5fef55e628823a0076ec12ee","601f447c3eb6e248fae7bdff","Mozilla/5.0 (Windows NT 10.0; Win64; x64) AppleWebKit/537.36 (KHTML, like Gecko) Chrome/88.0.4324.146 Safari/537.36","v1","","","","","","","","-80,-70,-60,-50,-40","media/audio/stims/spherical_300cm_s20_c20_cd-full_matched_a-70.wav","spherical","20","20","full","matched","-70","-80","1138"
"echo-presentation","101","3168999","0.0-101.0","5f4432700cbdc61b7ab46082","5fef55e628823a0076ec12ee","601f447c3eb6e248fae7bdff","Mozilla/5.0 (Windows NT 10.0; Win64; x64) AppleWebKit/537.36 (KHTML, like Gecko) Chrome/88.0.4324.146 Safari/537.36","v1","","","","","","","","-80,-70,-60,-50,-40","media/audio/stims/spherical_300cm_s20_c20_cd-full_matched_a-60.wav","spherical","20","20","full","matched","-60","-60","1590"
"echo-presentation","102","3171947","0.0-102.0","5f4432700cbdc61b7ab46082","5fef55e628823a0076ec12ee","601f447c3eb6e248fae7bdff","Mozilla/5.0 (Windows NT 10.0; Win64; x64) AppleWebKit/537.36 (KHTML, like Gecko) Chrome/88.0.4324.146 Safari/537.36","v1","","","","","","","","-80,-70,-60,-50,-40","media/audio/stims/spherical_300cm_s20_c20_cd-full_matched_a-60.wav","spherical","20","20","full","matched","-60","-70","1635"
"echo-presentation","103","3174387","0.0-103.0","5f4432700cbdc61b7ab46082","5fef55e628823a0076ec12ee","601f447c3eb6e248fae7bdff","Mozilla/5.0 (Windows NT 10.0; Win64; x64) AppleWebKit/537.36 (KHTML, like Gecko) Chrome/88.0.4324.146 Safari/537.36","v1","","","","","","","","-80,-70,-60,-50,-40","media/audio/stims/spherical_300cm_s20_c20_cd-full_matched_a-80.wav","spherical","20","20","full","matched","-80","-80","1318"
"echo-presentation","104","3178129","0.0-104.0","5f4432700cbdc61b7ab46082","5fef55e628823a0076ec12ee","601f447c3eb6e248fae7bdff","Mozilla/5.0 (Windows NT 10.0; Win64; x64) AppleWebKit/537.36 (KHTML, like Gecko) Chrome/88.0.4324.146 Safari/537.36","v1","","","","","","","","-80,-70,-60,-50,-40","media/audio/stims/spherical_300cm_s20_c20_cd-full_matched_a-80.wav","spherical","20","20","full","matched","-80","-60","2537"
"echo-presentation","105","3180182","0.0-105.0","5f4432700cbdc61b7ab46082","5fef55e628823a0076ec12ee","601f447c3eb6e248fae7bdff","Mozilla/5.0 (Windows NT 10.0; Win64; x64) AppleWebKit/537.36 (KHTML, like Gecko) Chrome/88.0.4324.146 Safari/537.36","v1","","","","","","","","-80,-70,-60,-50,-40","media/audio/stims/spherical_300cm_s20_c20_cd-full_matched_a-40.wav","spherical","20","20","full","matched","-40","-50","1352"
"echo-presentation","106","3184023","0.0-106.0","5f4432700cbdc61b7ab46082","5fef55e628823a0076ec12ee","601f447c3eb6e248fae7bdff","Mozilla/5.0 (Windows NT 10.0; Win64; x64) AppleWebKit/537.36 (KHTML, like Gecko) Chrome/88.0.4324.146 Safari/537.36","v1","","","","","","","","-80,-70,-60,-50,-40","media/audio/stims/spherical_300cm_s20_c20_cd-full_matched_a-50.wav","spherical","20","20","full","matched","-50","-50","2805"
"echo-presentation","107","3186431","0.0-107.0","5f4432700cbdc61b7ab46082","5fef55e628823a0076ec12ee","601f447c3eb6e248fae7bdff","Mozilla/5.0 (Windows NT 10.0; Win64; x64) AppleWebKit/537.36 (KHTML, like Gecko) Chrome/88.0.4324.146 Safari/537.36","v1","","","","","","","","-80,-70,-60,-50,-40","media/audio/stims/spherical_300cm_s20_c20_cd-full_matched_a-60.wav","spherical","20","20","full","matched","-60","-70","1383"
"echo-presentation","108","3188789","0.0-108.0","5f4432700cbdc61b7ab46082","5fef55e628823a0076ec12ee","601f447c3eb6e248fae7bdff","Mozilla/5.0 (Windows NT 10.0; Win64; x64) AppleWebKit/537.36 (KHTML, like Gecko) Chrome/88.0.4324.146 Safari/537.36","v1","","","","","","","","-80,-70,-60,-50,-40","media/audio/stims/spherical_300cm_s20_c20_cd-full_matched_a-80.wav","spherical","20","20","full","matched","-80","-80","1519"
"echo-presentation","109","3191318","0.0-109.0","5f4432700cbdc61b7ab46082","5fef55e628823a0076ec12ee","601f447c3eb6e248fae7bdff","Mozilla/5.0 (Windows NT 10.0; Win64; x64) AppleWebKit/537.36 (KHTML, like Gecko) Chrome/88.0.4324.146 Safari/537.36","v1","","","","","","","","-80,-70,-60,-50,-40","media/audio/stims/spherical_300cm_s20_c20_cd-full_matched_a-50.wav","spherical","20","20","full","matched","-50","-60","1715"
"echo-presentation","110","3194642","0.0-110.0","5f4432700cbdc61b7ab46082","5fef55e628823a0076ec12ee","601f447c3eb6e248fae7bdff","Mozilla/5.0 (Windows NT 10.0; Win64; x64) AppleWebKit/537.36 (KHTML, like Gecko) Chrome/88.0.4324.146 Safari/537.36","v1","","","","","","","","-80,-70,-60,-50,-40","media/audio/stims/spherical_300cm_s20_c20_cd-full_matched_a-70.wav","spherical","20","20","full","matched","-70","-70","2191"
"echo-presentation","111","3197160","0.0-111.0","5f4432700cbdc61b7ab46082","5fef55e628823a0076ec12ee","601f447c3eb6e248fae7bdff","Mozilla/5.0 (Windows NT 10.0; Win64; x64) AppleWebKit/537.36 (KHTML, like Gecko) Chrome/88.0.4324.146 Safari/537.36","v1","","","","","","","","-80,-70,-60,-50,-40","media/audio/stims/spherical_300cm_s20_c20_cd-full_matched_a-60.wav","spherical","20","20","full","matched","-60","-60","1546"
"echo-presentation","112","3200075","0.0-112.0","5f4432700cbdc61b7ab46082","5fef55e628823a0076ec12ee","601f447c3eb6e248fae7bdff","Mozilla/5.0 (Windows NT 10.0; Win64; x64) AppleWebKit/537.36 (KHTML, like Gecko) Chrome/88.0.4324.146 Safari/537.36","v1","","","","","","","","-80,-70,-60,-50,-40","media/audio/stims/spherical_300cm_s20_c20_cd-full_matched_a-70.wav","spherical","20","20","full","matched","-70","-80","1481"
"echo-presentation","113","3202963","0.0-113.0","5f4432700cbdc61b7ab46082","5fef55e628823a0076ec12ee","601f447c3eb6e248fae7bdff","Mozilla/5.0 (Windows NT 10.0; Win64; x64) AppleWebKit/537.36 (KHTML, like Gecko) Chrome/88.0.4324.146 Safari/537.36","v1","","","","","","","","-80,-70,-60,-50,-40","media/audio/stims/spherical_300cm_s20_c20_cd-full_matched_a-40.wav","spherical","20","20","full","matched","-40","-60","1803"
"echo-presentation","114","3205159","0.0-114.0","5f4432700cbdc61b7ab46082","5fef55e628823a0076ec12ee","601f447c3eb6e248fae7bdff","Mozilla/5.0 (Windows NT 10.0; Win64; x64) AppleWebKit/537.36 (KHTML, like Gecko) Chrome/88.0.4324.146 Safari/537.36","v1","","","","","","","","-80,-70,-60,-50,-40","media/audio/stims/spherical_300cm_s20_c20_cd-full_matched_a-80.wav","spherical","20","20","full","matched","-80","-70","1128"
"echo-presentation","115","3208259","0.0-115.0","5f4432700cbdc61b7ab46082","5fef55e628823a0076ec12ee","601f447c3eb6e248fae7bdff","Mozilla/5.0 (Windows NT 10.0; Win64; x64) AppleWebKit/537.36 (KHTML, like Gecko) Chrome/88.0.4324.146 Safari/537.36","v1","","","","","","","","-80,-70,-60,-50,-40","media/audio/stims/spherical_300cm_s20_c20_cd-full_matched_a-70.wav","spherical","20","20","full","matched","-70","-70","1247"
"block-bookend","116","3209054","0.0-116.0","5f4432700cbdc61b7ab46082","5fef55e628823a0076ec12ee","601f447c3eb6e248fae7bdff","Mozilla/5.0 (Windows NT 10.0; Win64; x64) AppleWebKit/537.36 (KHTML, like Gecko) Chrome/88.0.4324.146 Safari/537.36","v1","","","","","","","","","","","","","","","","",""
"block-bookend","117","3215581","0.0-117.0","5f4432700cbdc61b7ab46082","5fef55e628823a0076ec12ee","601f447c3eb6e248fae7bdff","Mozilla/5.0 (Windows NT 10.0; Win64; x64) AppleWebKit/537.36 (KHTML, like Gecko) Chrome/88.0.4324.146 Safari/537.36","v1","","","","","","","","","","","","","","","","",""
"echo-presentation","118","3217985","0.0-118.0","5f4432700cbdc61b7ab46082","5fef55e628823a0076ec12ee","601f447c3eb6e248fae7bdff","Mozilla/5.0 (Windows NT 10.0; Win64; x64) AppleWebKit/537.36 (KHTML, like Gecko) Chrome/88.0.4324.146 Safari/537.36","v1","","","","","","","","-80,-70,-60,-50,-40","media/audio/stims/spherical_300cm_s20_c20_cd-full_matched_a-60.wav","spherical","20","20","full","matched","-60","-70","1255"
"echo-presentation","119","3220608","0.0-119.0","5f4432700cbdc61b7ab46082","5fef55e628823a0076ec12ee","601f447c3eb6e248fae7bdff","Mozilla/5.0 (Windows NT 10.0; Win64; x64) AppleWebKit/537.36 (KHTML, like Gecko) Chrome/88.0.4324.146 Safari/537.36","v1","","","","","","","","-80,-70,-60,-50,-40","media/audio/stims/spherical_300cm_s20_c20_cd-full_matched_a-80.wav","spherical","20","20","full","matched","-80","-80","1440"
"echo-presentation","120","3222698","0.0-120.0","5f4432700cbdc61b7ab46082","5fef55e628823a0076ec12ee","601f447c3eb6e248fae7bdff","Mozilla/5.0 (Windows NT 10.0; Win64; x64) AppleWebKit/537.36 (KHTML, like Gecko) Chrome/88.0.4324.146 Safari/537.36","v1","","","","","","","","-80,-70,-60,-50,-40","media/audio/stims/spherical_300cm_s20_c20_cd-full_matched_a-80.wav","spherical","20","20","full","matched","-80","-80","1209"
"echo-presentation","121","3225027","0.0-121.0","5f4432700cbdc61b7ab46082","5fef55e628823a0076ec12ee","601f447c3eb6e248fae7bdff","Mozilla/5.0 (Windows NT 10.0; Win64; x64) AppleWebKit/537.36 (KHTML, like Gecko) Chrome/88.0.4324.146 Safari/537.36","v1","","","","","","","","-80,-70,-60,-50,-40","media/audio/stims/spherical_300cm_s20_c20_cd-full_matched_a-40.wav","spherical","20","20","full","matched","-40","-80","1322"
"echo-presentation","122","3228279","0.0-122.0","5f4432700cbdc61b7ab46082","5fef55e628823a0076ec12ee","601f447c3eb6e248fae7bdff","Mozilla/5.0 (Windows NT 10.0; Win64; x64) AppleWebKit/537.36 (KHTML, like Gecko) Chrome/88.0.4324.146 Safari/537.36","v1","","","","","","","","-80,-70,-60,-50,-40","media/audio/stims/spherical_300cm_s20_c20_cd-full_matched_a-40.wav","spherical","20","20","full","matched","-40","-60","2402"
"echo-presentation","123","3231143","0.0-123.0","5f4432700cbdc61b7ab46082","5fef55e628823a0076ec12ee","601f447c3eb6e248fae7bdff","Mozilla/5.0 (Windows NT 10.0; Win64; x64) AppleWebKit/537.36 (KHTML, like Gecko) Chrome/88.0.4324.146 Safari/537.36","v1","","","","","","","","-80,-70,-60,-50,-40","media/audio/stims/spherical_300cm_s20_c20_cd-full_matched_a-70.wav","spherical","20","20","full","matched","-70","-70","1798"
"echo-presentation","124","3233029","0.0-124.0","5f4432700cbdc61b7ab46082","5fef55e628823a0076ec12ee","601f447c3eb6e248fae7bdff","Mozilla/5.0 (Windows NT 10.0; Win64; x64) AppleWebKit/537.36 (KHTML, like Gecko) Chrome/88.0.4324.146 Safari/537.36","v1","","","","","","","","-80,-70,-60,-50,-40","media/audio/stims/spherical_300cm_s20_c20_cd-full_matched_a-50.wav","spherical","20","20","full","matched","-50","-80","1308"
"echo-presentation","125","3235242","0.0-125.0","5f4432700cbdc61b7ab46082","5fef55e628823a0076ec12ee","601f447c3eb6e248fae7bdff","Mozilla/5.0 (Windows NT 10.0; Win64; x64) AppleWebKit/537.36 (KHTML, like Gecko) Chrome/88.0.4324.146 Safari/537.36","v1","","","","","","","","-80,-70,-60,-50,-40","media/audio/stims/spherical_300cm_s20_c20_cd-full_matched_a-50.wav","spherical","20","20","full","matched","-50","-70","1224"
"echo-presentation","126","3237546","0.0-126.0","5f4432700cbdc61b7ab46082","5fef55e628823a0076ec12ee","601f447c3eb6e248fae7bdff","Mozilla/5.0 (Windows NT 10.0; Win64; x64) AppleWebKit/537.36 (KHTML, like Gecko) Chrome/88.0.4324.146 Safari/537.36","v1","","","","","","","","-80,-70,-60,-50,-40","media/audio/stims/spherical_300cm_s20_c20_cd-full_matched_a-40.wav","spherical","20","20","full","matched","-40","-60","1388"
"echo-presentation","127","3240030","0.0-127.0","5f4432700cbdc61b7ab46082","5fef55e628823a0076ec12ee","601f447c3eb6e248fae7bdff","Mozilla/5.0 (Windows NT 10.0; Win64; x64) AppleWebKit/537.36 (KHTML, like Gecko) Chrome/88.0.4324.146 Safari/537.36","v1","","","","","","","","-80,-70,-60,-50,-40","media/audio/stims/spherical_300cm_s20_c20_cd-full_matched_a-60.wav","spherical","20","20","full","matched","-60","-60","1362"
"echo-presentation","128","3242313","0.0-128.0","5f4432700cbdc61b7ab46082","5fef55e628823a0076ec12ee","601f447c3eb6e248fae7bdff","Mozilla/5.0 (Windows NT 10.0; Win64; x64) AppleWebKit/537.36 (KHTML, like Gecko) Chrome/88.0.4324.146 Safari/537.36","v1","","","","","","","","-80,-70,-60,-50,-40","media/audio/stims/spherical_300cm_s20_c20_cd-full_matched_a-60.wav","spherical","20","20","full","matched","-60","-70","1241"
"echo-presentation","129","3247133","0.0-129.0","5f4432700cbdc61b7ab46082","5fef55e628823a0076ec12ee","601f447c3eb6e248fae7bdff","Mozilla/5.0 (Windows NT 10.0; Win64; x64) AppleWebKit/537.36 (KHTML, like Gecko) Chrome/88.0.4324.146 Safari/537.36","v1","","","","","","","","-80,-70,-60,-50,-40","media/audio/stims/spherical_300cm_s20_c20_cd-full_matched_a-80.wav","spherical","20","20","full","matched","-80","-60","3926"
"echo-presentation","130","3249937","0.0-130.0","5f4432700cbdc61b7ab46082","5fef55e628823a0076ec12ee","601f447c3eb6e248fae7bdff","Mozilla/5.0 (Windows NT 10.0; Win64; x64) AppleWebKit/537.36 (KHTML, like Gecko) Chrome/88.0.4324.146 Safari/537.36","v1","","","","","","","","-80,-70,-60,-50,-40","media/audio/stims/spherical_300cm_s20_c20_cd-full_matched_a-40.wav","spherical","20","20","full","matched","-40","-60","1802"
"echo-presentation","131","3252857","0.0-131.0","5f4432700cbdc61b7ab46082","5fef55e628823a0076ec12ee","601f447c3eb6e248fae7bdff","Mozilla/5.0 (Windows NT 10.0; Win64; x64) AppleWebKit/537.36 (KHTML, like Gecko) Chrome/88.0.4324.146 Safari/537.36","v1","","","","","","","","-80,-70,-60,-50,-40","media/audio/stims/spherical_300cm_s20_c20_cd-full_matched_a-50.wav","spherical","20","20","full","matched","-50","-60","2341"
"echo-presentation","132","3255134","0.0-132.0","5f4432700cbdc61b7ab46082","5fef55e628823a0076ec12ee","601f447c3eb6e248fae7bdff","Mozilla/5.0 (Windows NT 10.0; Win64; x64) AppleWebKit/537.36 (KHTML, like Gecko) Chrome/88.0.4324.146 Safari/537.36","v1","","","","","","","","-80,-70,-60,-50,-40","media/audio/stims/spherical_300cm_s20_c20_cd-full_matched_a-70.wav","spherical","20","20","full","matched","-70","-70","1243"
"echo-presentation","133","3258971","0.0-133.0","5f4432700cbdc61b7ab46082","5fef55e628823a0076ec12ee","601f447c3eb6e248fae7bdff","Mozilla/5.0 (Windows NT 10.0; Win64; x64) AppleWebKit/537.36 (KHTML, like Gecko) Chrome/88.0.4324.146 Safari/537.36","v1","","","","","","","","-80,-70,-60,-50,-40","media/audio/stims/spherical_300cm_s20_c20_cd-full_matched_a-50.wav","spherical","20","20","full","matched","-50","-50","2840"
"echo-presentation","134","3261624","0.0-134.0","5f4432700cbdc61b7ab46082","5fef55e628823a0076ec12ee","601f447c3eb6e248fae7bdff","Mozilla/5.0 (Windows NT 10.0; Win64; x64) AppleWebKit/537.36 (KHTML, like Gecko) Chrome/88.0.4324.146 Safari/537.36","v1","","","","","","","","-80,-70,-60,-50,-40","media/audio/stims/spherical_300cm_s20_c20_cd-full_matched_a-80.wav","spherical","20","20","full","matched","-80","-80","1170"
"echo-presentation","135","3263729","0.0-135.0","5f4432700cbdc61b7ab46082","5fef55e628823a0076ec12ee","601f447c3eb6e248fae7bdff","Mozilla/5.0 (Windows NT 10.0; Win64; x64) AppleWebKit/537.36 (KHTML, like Gecko) Chrome/88.0.4324.146 Safari/537.36","v1","","","","","","","","-80,-70,-60,-50,-40","media/audio/stims/spherical_300cm_s20_c20_cd-full_matched_a-70.wav","spherical","20","20","full","matched","-70","-80","1269"
"echo-presentation","136","3265635","0.0-136.0","5f4432700cbdc61b7ab46082","5fef55e628823a0076ec12ee","601f447c3eb6e248fae7bdff","Mozilla/5.0 (Windows NT 10.0; Win64; x64) AppleWebKit/537.36 (KHTML, like Gecko) Chrome/88.0.4324.146 Safari/537.36","v1","","","","","","","","-80,-70,-60,-50,-40","media/audio/stims/spherical_300cm_s20_c20_cd-full_matched_a-70.wav","spherical","20","20","full","matched","-70","-80","1023"
"echo-presentation","137","3267756","0.0-137.0","5f4432700cbdc61b7ab46082","5fef55e628823a0076ec12ee","601f447c3eb6e248fae7bdff","Mozilla/5.0 (Windows NT 10.0; Win64; x64) AppleWebKit/537.36 (KHTML, like Gecko) Chrome/88.0.4324.146 Safari/537.36","v1","","","","","","","","-80,-70,-60,-50,-40","media/audio/stims/spherical_300cm_s20_c20_cd-full_matched_a-60.wav","spherical","20","20","full","matched","-60","-70","1186"
"block-bookend","138","3268604","0.0-138.0","5f4432700cbdc61b7ab46082","5fef55e628823a0076ec12ee","601f447c3eb6e248fae7bdff","Mozilla/5.0 (Windows NT 10.0; Win64; x64) AppleWebKit/537.36 (KHTML, like Gecko) Chrome/88.0.4324.146 Safari/537.36","v1","","","","","","","","","","","","","","","","",""
