"trial_type","trial_index","time_elapsed","internal_node_id","prolificPid","studyId","sessionId","userAgent","version","rt","stimulus","key_press","chosenKeyset","failureCount","testIndex","globalVolume","choices","filename","modelName","slowdown","compensation","compensationDescriptor","receiverOrientationType","azimuth","responseAzimuth","responseDelay"
"pavlovia","0","3","0.0-0.0","5daca079bf590700167f704d","60201dea606b8d5e5aa9e528","6020271f737cd75fd0886943","Mozilla/5.0 (Windows NT 10.0; Win64; x64) AppleWebKit/537.36 (KHTML, like Gecko) Chrome/88.0.4324.152 Safari/537.36","v1-up-stims","","","","","","","","","","","","","","","","",""
"html-keyboard-response","1","2621","0.0-1.0","5daca079bf590700167f704d","60201dea606b8d5e5aa9e528","6020271f737cd75fd0886943","Mozilla/5.0 (Windows NT 10.0; Win64; x64) AppleWebKit/537.36 (KHTML, like Gecko) Chrome/88.0.4324.152 Safari/537.36","v1-up-stims","2617.549999966286","<div><h1>Welcome!</h1><p>Press any key to continue.</p></div>","85","","","","","","","","","","","","","",""
"consent-form","2","17376","0.0-2.0","5daca079bf590700167f704d","60201dea606b8d5e5aa9e528","6020271f737cd75fd0886943","Mozilla/5.0 (Windows NT 10.0; Win64; x64) AppleWebKit/537.36 (KHTML, like Gecko) Chrome/88.0.4324.152 Safari/537.36","v1-up-stims","","","","","","","","","","","","","","","","",""
"keyset-select","3","42996","0.0-3.0","5daca079bf590700167f704d","60201dea606b8d5e5aa9e528","6020271f737cd75fd0886943","Mozilla/5.0 (Windows NT 10.0; Win64; x64) AppleWebKit/537.36 (KHTML, like Gecko) Chrome/88.0.4324.152 Safari/537.36","v1-up-stims","","","","left-hand","","","","","","","","","","","","",""
"headphone-check","4","91175","0.0-4.0","5daca079bf590700167f704d","60201dea606b8d5e5aa9e528","6020271f737cd75fd0886943","Mozilla/5.0 (Windows NT 10.0; Win64; x64) AppleWebKit/537.36 (KHTML, like Gecko) Chrome/88.0.4324.152 Safari/537.36","v1-up-stims","","","","","1","6","0.3","","","","","","","","","",""
"headphone-backwards-check","5","99075","0.0-5.0","5daca079bf590700167f704d","60201dea606b8d5e5aa9e528","6020271f737cd75fd0886943","Mozilla/5.0 (Windows NT 10.0; Win64; x64) AppleWebKit/537.36 (KHTML, like Gecko) Chrome/88.0.4324.152 Safari/537.36","v1-up-stims","","","","","0","","","","","","","","","","","",""
"training","6","194343","0.0-6.0","5daca079bf590700167f704d","60201dea606b8d5e5aa9e528","6020271f737cd75fd0886943","Mozilla/5.0 (Windows NT 10.0; Win64; x64) AppleWebKit/537.36 (KHTML, like Gecko) Chrome/88.0.4324.152 Safari/537.36","v1-up-stims","","","","","","","","","","","","","","","","",""
"block-bookend","7","207696","0.0-7.0","5daca079bf590700167f704d","60201dea606b8d5e5aa9e528","6020271f737cd75fd0886943","Mozilla/5.0 (Windows NT 10.0; Win64; x64) AppleWebKit/537.36 (KHTML, like Gecko) Chrome/88.0.4324.152 Safari/537.36","v1-up-stims","","","","","","","","","","","","","","","","",""
"echo-presentation","8","217280","0.0-8.0","5daca079bf590700167f704d","60201dea606b8d5e5aa9e528","6020271f737cd75fd0886943","Mozilla/5.0 (Windows NT 10.0; Win64; x64) AppleWebKit/537.36 (KHTML, like Gecko) Chrome/88.0.4324.152 Safari/537.36","v1-up-stims","","","","","","","","40,50,60,70,80","media/audio/stims/spherical_300cm_s20_c1_cd-1_matched_a60.wav","spherical","20","1","1","matched","60","50","7384"
"echo-presentation","9","227660","0.0-9.0","5daca079bf590700167f704d","60201dea606b8d5e5aa9e528","6020271f737cd75fd0886943","Mozilla/5.0 (Windows NT 10.0; Win64; x64) AppleWebKit/537.36 (KHTML, like Gecko) Chrome/88.0.4324.152 Safari/537.36","v1-up-stims","","","","","","","","40,50,60,70,80","media/audio/stims/spherical_300cm_s20_c1_cd-1_matched_a80.wav","spherical","20","1","1","matched","80","70","3408"
"echo-presentation","10","247334","0.0-10.0","5daca079bf590700167f704d","60201dea606b8d5e5aa9e528","6020271f737cd75fd0886943","Mozilla/5.0 (Windows NT 10.0; Win64; x64) AppleWebKit/537.36 (KHTML, like Gecko) Chrome/88.0.4324.152 Safari/537.36","v1-up-stims","","","","","","","","40,50,60,70,80","media/audio/stims/spherical_300cm_s20_c1_cd-1_matched_a40.wav","spherical","20","1","1","matched","40","50","3318"
"echo-presentation","11","250240","0.0-11.0","5daca079bf590700167f704d","60201dea606b8d5e5aa9e528","6020271f737cd75fd0886943","Mozilla/5.0 (Windows NT 10.0; Win64; x64) AppleWebKit/537.36 (KHTML, like Gecko) Chrome/88.0.4324.152 Safari/537.36","v1-up-stims","","","","","","","","40,50,60,70,80","media/audio/stims/spherical_300cm_s20_c1_cd-1_matched_a50.wav","spherical","20","1","1","matched","50","80","1739"
"echo-presentation","12","252889","0.0-12.0","5daca079bf590700167f704d","60201dea606b8d5e5aa9e528","6020271f737cd75fd0886943","Mozilla/5.0 (Windows NT 10.0; Win64; x64) AppleWebKit/537.36 (KHTML, like Gecko) Chrome/88.0.4324.152 Safari/537.36","v1-up-stims","","","","","","","","40,50,60,70,80","media/audio/stims/spherical_300cm_s20_c1_cd-1_matched_a80.wav","spherical","20","1","1","matched","80","70","1576"
"echo-presentation","13","255397","0.0-13.0","5daca079bf590700167f704d","60201dea606b8d5e5aa9e528","6020271f737cd75fd0886943","Mozilla/5.0 (Windows NT 10.0; Win64; x64) AppleWebKit/537.36 (KHTML, like Gecko) Chrome/88.0.4324.152 Safari/537.36","v1-up-stims","","","","","","","","40,50,60,70,80","media/audio/stims/spherical_300cm_s20_c1_cd-1_matched_a40.wav","spherical","20","1","1","matched","40","70","1617"
"echo-presentation","14","260233","0.0-14.0","5daca079bf590700167f704d","60201dea606b8d5e5aa9e528","6020271f737cd75fd0886943","Mozilla/5.0 (Windows NT 10.0; Win64; x64) AppleWebKit/537.36 (KHTML, like Gecko) Chrome/88.0.4324.152 Safari/537.36","v1-up-stims","","","","","","","","40,50,60,70,80","media/audio/stims/spherical_300cm_s20_c1_cd-1_matched_a50.wav","spherical","20","1","1","matched","50","80","3927"
"echo-presentation","15","265533","0.0-15.0","5daca079bf590700167f704d","60201dea606b8d5e5aa9e528","6020271f737cd75fd0886943","Mozilla/5.0 (Windows NT 10.0; Win64; x64) AppleWebKit/537.36 (KHTML, like Gecko) Chrome/88.0.4324.152 Safari/537.36","v1-up-stims","","","","","","","","40,50,60,70,80","media/audio/stims/spherical_300cm_s20_c1_cd-1_matched_a60.wav","spherical","20","1","1","matched","60","40","3843"
"echo-presentation","16","268607","0.0-16.0","5daca079bf590700167f704d","60201dea606b8d5e5aa9e528","6020271f737cd75fd0886943","Mozilla/5.0 (Windows NT 10.0; Win64; x64) AppleWebKit/537.36 (KHTML, like Gecko) Chrome/88.0.4324.152 Safari/537.36","v1-up-stims","","","","","","","","40,50,60,70,80","media/audio/stims/spherical_300cm_s20_c1_cd-1_matched_a40.wav","spherical","20","1","1","matched","40","80","1670"
"echo-presentation","17","271572","0.0-17.0","5daca079bf590700167f704d","60201dea606b8d5e5aa9e528","6020271f737cd75fd0886943","Mozilla/5.0 (Windows NT 10.0; Win64; x64) AppleWebKit/537.36 (KHTML, like Gecko) Chrome/88.0.4324.152 Safari/537.36","v1-up-stims","","","","","","","","40,50,60,70,80","media/audio/stims/spherical_300cm_s20_c1_cd-1_matched_a60.wav","spherical","20","1","1","matched","60","80","1708"
"echo-presentation","18","274305","0.0-18.0","5daca079bf590700167f704d","60201dea606b8d5e5aa9e528","6020271f737cd75fd0886943","Mozilla/5.0 (Windows NT 10.0; Win64; x64) AppleWebKit/537.36 (KHTML, like Gecko) Chrome/88.0.4324.152 Safari/537.36","v1-up-stims","","","","","","","","40,50,60,70,80","media/audio/stims/spherical_300cm_s20_c1_cd-1_matched_a50.wav","spherical","20","1","1","matched","50","50","1608"
"echo-presentation","19","278224","0.0-19.0","5daca079bf590700167f704d","60201dea606b8d5e5aa9e528","6020271f737cd75fd0886943","Mozilla/5.0 (Windows NT 10.0; Win64; x64) AppleWebKit/537.36 (KHTML, like Gecko) Chrome/88.0.4324.152 Safari/537.36","v1-up-stims","","","","","","","","40,50,60,70,80","media/audio/stims/spherical_300cm_s20_c1_cd-1_matched_a70.wav","spherical","20","1","1","matched","70","60","2683"
"echo-presentation","20","281074","0.0-20.0","5daca079bf590700167f704d","60201dea606b8d5e5aa9e528","6020271f737cd75fd0886943","Mozilla/5.0 (Windows NT 10.0; Win64; x64) AppleWebKit/537.36 (KHTML, like Gecko) Chrome/88.0.4324.152 Safari/537.36","v1-up-stims","","","","","","","","40,50,60,70,80","media/audio/stims/spherical_300cm_s20_c1_cd-1_matched_a70.wav","spherical","20","1","1","matched","70","60","1703"
"echo-presentation","21","284462","0.0-21.0","5daca079bf590700167f704d","60201dea606b8d5e5aa9e528","6020271f737cd75fd0886943","Mozilla/5.0 (Windows NT 10.0; Win64; x64) AppleWebKit/537.36 (KHTML, like Gecko) Chrome/88.0.4324.152 Safari/537.36","v1-up-stims","","","","","","","","40,50,60,70,80","media/audio/stims/spherical_300cm_s20_c1_cd-1_matched_a60.wav","spherical","20","1","1","matched","60","60","2497"
"echo-presentation","22","286905","0.0-22.0","5daca079bf590700167f704d","60201dea606b8d5e5aa9e528","6020271f737cd75fd0886943","Mozilla/5.0 (Windows NT 10.0; Win64; x64) AppleWebKit/537.36 (KHTML, like Gecko) Chrome/88.0.4324.152 Safari/537.36","v1-up-stims","","","","","","","","40,50,60,70,80","media/audio/stims/spherical_300cm_s20_c1_cd-1_matched_a50.wav","spherical","20","1","1","matched","50","70","1426"
"echo-presentation","23","289157","0.0-23.0","5daca079bf590700167f704d","60201dea606b8d5e5aa9e528","6020271f737cd75fd0886943","Mozilla/5.0 (Windows NT 10.0; Win64; x64) AppleWebKit/537.36 (KHTML, like Gecko) Chrome/88.0.4324.152 Safari/537.36","v1-up-stims","","","","","","","","40,50,60,70,80","media/audio/stims/spherical_300cm_s20_c1_cd-1_matched_a70.wav","spherical","20","1","1","matched","70","70","1315"
"echo-presentation","24","292625","0.0-24.0","5daca079bf590700167f704d","60201dea606b8d5e5aa9e528","6020271f737cd75fd0886943","Mozilla/5.0 (Windows NT 10.0; Win64; x64) AppleWebKit/537.36 (KHTML, like Gecko) Chrome/88.0.4324.152 Safari/537.36","v1-up-stims","","","","","","","","40,50,60,70,80","media/audio/stims/spherical_300cm_s20_c1_cd-1_matched_a80.wav","spherical","20","1","1","matched","80","80","2582"
"echo-presentation","25","294845","0.0-25.0","5daca079bf590700167f704d","60201dea606b8d5e5aa9e528","6020271f737cd75fd0886943","Mozilla/5.0 (Windows NT 10.0; Win64; x64) AppleWebKit/537.36 (KHTML, like Gecko) Chrome/88.0.4324.152 Safari/537.36","v1-up-stims","","","","","","","","40,50,60,70,80","media/audio/stims/spherical_300cm_s20_c1_cd-1_matched_a80.wav","spherical","20","1","1","matched","80","70","1244"
"echo-presentation","26","297254","0.0-26.0","5daca079bf590700167f704d","60201dea606b8d5e5aa9e528","6020271f737cd75fd0886943","Mozilla/5.0 (Windows NT 10.0; Win64; x64) AppleWebKit/537.36 (KHTML, like Gecko) Chrome/88.0.4324.152 Safari/537.36","v1-up-stims","","","","","","","","40,50,60,70,80","media/audio/stims/spherical_300cm_s20_c1_cd-1_matched_a40.wav","spherical","20","1","1","matched","40","50","1433"
"echo-presentation","27","299361","0.0-27.0","5daca079bf590700167f704d","60201dea606b8d5e5aa9e528","6020271f737cd75fd0886943","Mozilla/5.0 (Windows NT 10.0; Win64; x64) AppleWebKit/537.36 (KHTML, like Gecko) Chrome/88.0.4324.152 Safari/537.36","v1-up-stims","","","","","","","","40,50,60,70,80","media/audio/stims/spherical_300cm_s20_c1_cd-1_matched_a70.wav","spherical","20","1","1","matched","70","70","946"
"block-bookend","28","301508","0.0-28.0","5daca079bf590700167f704d","60201dea606b8d5e5aa9e528","6020271f737cd75fd0886943","Mozilla/5.0 (Windows NT 10.0; Win64; x64) AppleWebKit/537.36 (KHTML, like Gecko) Chrome/88.0.4324.152 Safari/537.36","v1-up-stims","","","","","","","","","","","","","","","","",""
"block-bookend","29","306093","0.0-29.0","5daca079bf590700167f704d","60201dea606b8d5e5aa9e528","6020271f737cd75fd0886943","Mozilla/5.0 (Windows NT 10.0; Win64; x64) AppleWebKit/537.36 (KHTML, like Gecko) Chrome/88.0.4324.152 Safari/537.36","v1-up-stims","","","","","","","","","","","","","","","","",""
"echo-presentation","30","311046","0.0-30.0","5daca079bf590700167f704d","60201dea606b8d5e5aa9e528","6020271f737cd75fd0886943","Mozilla/5.0 (Windows NT 10.0; Win64; x64) AppleWebKit/537.36 (KHTML, like Gecko) Chrome/88.0.4324.152 Safari/537.36","v1-up-stims","","","","","","","","40,50,60,70,80","media/audio/stims/spherical_300cm_s20_c1_cd-1_matched_a80.wav","spherical","20","1","1","matched","80","80","3585"
"echo-presentation","31","314089","0.0-31.0","5daca079bf590700167f704d","60201dea606b8d5e5aa9e528","6020271f737cd75fd0886943","Mozilla/5.0 (Windows NT 10.0; Win64; x64) AppleWebKit/537.36 (KHTML, like Gecko) Chrome/88.0.4324.152 Safari/537.36","v1-up-stims","","","","","","","","40,50,60,70,80","media/audio/stims/spherical_300cm_s20_c1_cd-1_matched_a70.wav","spherical","20","1","1","matched","70","70","2001"
"echo-presentation","32","316441","0.0-32.0","5daca079bf590700167f704d","60201dea606b8d5e5aa9e528","6020271f737cd75fd0886943","Mozilla/5.0 (Windows NT 10.0; Win64; x64) AppleWebKit/537.36 (KHTML, like Gecko) Chrome/88.0.4324.152 Safari/537.36","v1-up-stims","","","","","","","","40,50,60,70,80","media/audio/stims/spherical_300cm_s20_c1_cd-1_matched_a70.wav","spherical","20","1","1","matched","70","70","1105"
"echo-presentation","33","318433","0.0-33.0","5daca079bf590700167f704d","60201dea606b8d5e5aa9e528","6020271f737cd75fd0886943","Mozilla/5.0 (Windows NT 10.0; Win64; x64) AppleWebKit/537.36 (KHTML, like Gecko) Chrome/88.0.4324.152 Safari/537.36","v1-up-stims","","","","","","","","40,50,60,70,80","media/audio/stims/spherical_300cm_s20_c1_cd-1_matched_a60.wav","spherical","20","1","1","matched","60","50","1213"
"echo-presentation","34","320306","0.0-34.0","5daca079bf590700167f704d","60201dea606b8d5e5aa9e528","6020271f737cd75fd0886943","Mozilla/5.0 (Windows NT 10.0; Win64; x64) AppleWebKit/537.36 (KHTML, like Gecko) Chrome/88.0.4324.152 Safari/537.36","v1-up-stims","","","","","","","","40,50,60,70,80","media/audio/stims/spherical_300cm_s20_c1_cd-1_matched_a70.wav","spherical","20","1","1","matched","70","60","1104"
"echo-presentation","35","322953","0.0-35.0","5daca079bf590700167f704d","60201dea606b8d5e5aa9e528","6020271f737cd75fd0886943","Mozilla/5.0 (Windows NT 10.0; Win64; x64) AppleWebKit/537.36 (KHTML, like Gecko) Chrome/88.0.4324.152 Safari/537.36","v1-up-stims","","","","","","","","40,50,60,70,80","media/audio/stims/spherical_300cm_s20_c1_cd-1_matched_a60.wav","spherical","20","1","1","matched","60","60","1586"
"echo-presentation","36","325612","0.0-36.0","5daca079bf590700167f704d","60201dea606b8d5e5aa9e528","6020271f737cd75fd0886943","Mozilla/5.0 (Windows NT 10.0; Win64; x64) AppleWebKit/537.36 (KHTML, like Gecko) Chrome/88.0.4324.152 Safari/537.36","v1-up-stims","","","","","","","","40,50,60,70,80","media/audio/stims/spherical_300cm_s20_c1_cd-1_matched_a70.wav","spherical","20","1","1","matched","70","70","1829"
"echo-presentation","37","328492","0.0-37.0","5daca079bf590700167f704d","60201dea606b8d5e5aa9e528","6020271f737cd75fd0886943","Mozilla/5.0 (Windows NT 10.0; Win64; x64) AppleWebKit/537.36 (KHTML, like Gecko) Chrome/88.0.4324.152 Safari/537.36","v1-up-stims","","","","","","","","40,50,60,70,80","media/audio/stims/spherical_300cm_s20_c1_cd-1_matched_a50.wav","spherical","20","1","1","matched","50","50","1939"
"echo-presentation","38","331109","0.0-38.0","5daca079bf590700167f704d","60201dea606b8d5e5aa9e528","6020271f737cd75fd0886943","Mozilla/5.0 (Windows NT 10.0; Win64; x64) AppleWebKit/537.36 (KHTML, like Gecko) Chrome/88.0.4324.152 Safari/537.36","v1-up-stims","","","","","","","","40,50,60,70,80","media/audio/stims/spherical_300cm_s20_c1_cd-1_matched_a40.wav","spherical","20","1","1","matched","40","70","1513"
"echo-presentation","39","332988","0.0-39.0","5daca079bf590700167f704d","60201dea606b8d5e5aa9e528","6020271f737cd75fd0886943","Mozilla/5.0 (Windows NT 10.0; Win64; x64) AppleWebKit/537.36 (KHTML, like Gecko) Chrome/88.0.4324.152 Safari/537.36","v1-up-stims","","","","","","","","40,50,60,70,80","media/audio/stims/spherical_300cm_s20_c1_cd-1_matched_a50.wav","spherical","20","1","1","matched","50","40","1116"
"echo-presentation","40","335226","0.0-40.0","5daca079bf590700167f704d","60201dea606b8d5e5aa9e528","6020271f737cd75fd0886943","Mozilla/5.0 (Windows NT 10.0; Win64; x64) AppleWebKit/537.36 (KHTML, like Gecko) Chrome/88.0.4324.152 Safari/537.36","v1-up-stims","","","","","","","","40,50,60,70,80","media/audio/stims/spherical_300cm_s20_c1_cd-1_matched_a80.wav","spherical","20","1","1","matched","80","80","1243"
"echo-presentation","41","337097","0.0-41.0","5daca079bf590700167f704d","60201dea606b8d5e5aa9e528","6020271f737cd75fd0886943","Mozilla/5.0 (Windows NT 10.0; Win64; x64) AppleWebKit/537.36 (KHTML, like Gecko) Chrome/88.0.4324.152 Safari/537.36","v1-up-stims","","","","","","","","40,50,60,70,80","media/audio/stims/spherical_300cm_s20_c1_cd-1_matched_a40.wav","spherical","20","1","1","matched","40","70","969"
"echo-presentation","42","339132","0.0-42.0","5daca079bf590700167f704d","60201dea606b8d5e5aa9e528","6020271f737cd75fd0886943","Mozilla/5.0 (Windows NT 10.0; Win64; x64) AppleWebKit/537.36 (KHTML, like Gecko) Chrome/88.0.4324.152 Safari/537.36","v1-up-stims","","","","","","","","40,50,60,70,80","media/audio/stims/spherical_300cm_s20_c1_cd-1_matched_a60.wav","spherical","20","1","1","matched","60","50","1066"
"echo-presentation","43","341238","0.0-43.0","5daca079bf590700167f704d","60201dea606b8d5e5aa9e528","6020271f737cd75fd0886943","Mozilla/5.0 (Windows NT 10.0; Win64; x64) AppleWebKit/537.36 (KHTML, like Gecko) Chrome/88.0.4324.152 Safari/537.36","v1-up-stims","","","","","","","","40,50,60,70,80","media/audio/stims/spherical_300cm_s20_c1_cd-1_matched_a40.wav","spherical","20","1","1","matched","40","80","1133"
"echo-presentation","44","343562","0.0-44.0","5daca079bf590700167f704d","60201dea606b8d5e5aa9e528","6020271f737cd75fd0886943","Mozilla/5.0 (Windows NT 10.0; Win64; x64) AppleWebKit/537.36 (KHTML, like Gecko) Chrome/88.0.4324.152 Safari/537.36","v1-up-stims","","","","","","","","40,50,60,70,80","media/audio/stims/spherical_300cm_s20_c1_cd-1_matched_a50.wav","spherical","20","1","1","matched","50","50","1341"
"echo-presentation","45","345503","0.0-45.0","5daca079bf590700167f704d","60201dea606b8d5e5aa9e528","6020271f737cd75fd0886943","Mozilla/5.0 (Windows NT 10.0; Win64; x64) AppleWebKit/537.36 (KHTML, like Gecko) Chrome/88.0.4324.152 Safari/537.36","v1-up-stims","","","","","","","","40,50,60,70,80","media/audio/stims/spherical_300cm_s20_c1_cd-1_matched_a50.wav","spherical","20","1","1","matched","50","60","1033"
"echo-presentation","46","347525","0.0-46.0","5daca079bf590700167f704d","60201dea606b8d5e5aa9e528","6020271f737cd75fd0886943","Mozilla/5.0 (Windows NT 10.0; Win64; x64) AppleWebKit/537.36 (KHTML, like Gecko) Chrome/88.0.4324.152 Safari/537.36","v1-up-stims","","","","","","","","40,50,60,70,80","media/audio/stims/spherical_300cm_s20_c1_cd-1_matched_a80.wav","spherical","20","1","1","matched","80","70","1042"
"echo-presentation","47","349555","0.0-47.0","5daca079bf590700167f704d","60201dea606b8d5e5aa9e528","6020271f737cd75fd0886943","Mozilla/5.0 (Windows NT 10.0; Win64; x64) AppleWebKit/537.36 (KHTML, like Gecko) Chrome/88.0.4324.152 Safari/537.36","v1-up-stims","","","","","","","","40,50,60,70,80","media/audio/stims/spherical_300cm_s20_c1_cd-1_matched_a60.wav","spherical","20","1","1","matched","60","80","1056"
"echo-presentation","48","351660","0.0-48.0","5daca079bf590700167f704d","60201dea606b8d5e5aa9e528","6020271f737cd75fd0886943","Mozilla/5.0 (Windows NT 10.0; Win64; x64) AppleWebKit/537.36 (KHTML, like Gecko) Chrome/88.0.4324.152 Safari/537.36","v1-up-stims","","","","","","","","40,50,60,70,80","media/audio/stims/spherical_300cm_s20_c1_cd-1_matched_a40.wav","spherical","20","1","1","matched","40","40","878"
"echo-presentation","49","353530","0.0-49.0","5daca079bf590700167f704d","60201dea606b8d5e5aa9e528","6020271f737cd75fd0886943","Mozilla/5.0 (Windows NT 10.0; Win64; x64) AppleWebKit/537.36 (KHTML, like Gecko) Chrome/88.0.4324.152 Safari/537.36","v1-up-stims","","","","","","","","40,50,60,70,80","media/audio/stims/spherical_300cm_s20_c1_cd-1_matched_a80.wav","spherical","20","1","1","matched","80","70","932"
"block-bookend","50","354877","0.0-50.0","5daca079bf590700167f704d","60201dea606b8d5e5aa9e528","6020271f737cd75fd0886943","Mozilla/5.0 (Windows NT 10.0; Win64; x64) AppleWebKit/537.36 (KHTML, like Gecko) Chrome/88.0.4324.152 Safari/537.36","v1-up-stims","","","","","","","","","","","","","","","","",""
"block-bookend","51","362216","0.0-51.0","5daca079bf590700167f704d","60201dea606b8d5e5aa9e528","6020271f737cd75fd0886943","Mozilla/5.0 (Windows NT 10.0; Win64; x64) AppleWebKit/537.36 (KHTML, like Gecko) Chrome/88.0.4324.152 Safari/537.36","v1-up-stims","","","","","","","","","","","","","","","","",""
"echo-presentation","52","366041","0.0-52.0","5daca079bf590700167f704d","60201dea606b8d5e5aa9e528","6020271f737cd75fd0886943","Mozilla/5.0 (Windows NT 10.0; Win64; x64) AppleWebKit/537.36 (KHTML, like Gecko) Chrome/88.0.4324.152 Safari/537.36","v1-up-stims","","","","","","","","-80,-70,-60,-50,-40","media/audio/stims/spherical_300cm_s20_c1_cd-1_matched_a-80.wav","spherical","20","1","1","matched","-80","-70","1900"
"echo-presentation","53","368410","0.0-53.0","5daca079bf590700167f704d","60201dea606b8d5e5aa9e528","6020271f737cd75fd0886943","Mozilla/5.0 (Windows NT 10.0; Win64; x64) AppleWebKit/537.36 (KHTML, like Gecko) Chrome/88.0.4324.152 Safari/537.36","v1-up-stims","","","","","","","","-80,-70,-60,-50,-40","media/audio/stims/spherical_300cm_s20_c1_cd-1_matched_a-70.wav","spherical","20","1","1","matched","-70","-70","1624"
"echo-presentation","54","370079","0.0-54.0","5daca079bf590700167f704d","60201dea606b8d5e5aa9e528","6020271f737cd75fd0886943","Mozilla/5.0 (Windows NT 10.0; Win64; x64) AppleWebKit/537.36 (KHTML, like Gecko) Chrome/88.0.4324.152 Safari/537.36","v1-up-stims","","","","","","","","-80,-70,-60,-50,-40","media/audio/stims/spherical_300cm_s20_c1_cd-1_matched_a-70.wav","spherical","20","1","1","matched","-70","-80","1038"
"echo-presentation","55","372337","0.0-55.0","5daca079bf590700167f704d","60201dea606b8d5e5aa9e528","6020271f737cd75fd0886943","Mozilla/5.0 (Windows NT 10.0; Win64; x64) AppleWebKit/537.36 (KHTML, like Gecko) Chrome/88.0.4324.152 Safari/537.36","v1-up-stims","","","","","","","","-80,-70,-60,-50,-40","media/audio/stims/spherical_300cm_s20_c1_cd-1_matched_a-40.wav","spherical","20","1","1","matched","-40","-60","1512"
"echo-presentation","56","374100","0.0-56.0","5daca079bf590700167f704d","60201dea606b8d5e5aa9e528","6020271f737cd75fd0886943","Mozilla/5.0 (Windows NT 10.0; Win64; x64) AppleWebKit/537.36 (KHTML, like Gecko) Chrome/88.0.4324.152 Safari/537.36","v1-up-stims","","","","","","","","-80,-70,-60,-50,-40","media/audio/stims/spherical_300cm_s20_c1_cd-1_matched_a-60.wav","spherical","20","1","1","matched","-60","-60","1147"
"echo-presentation","57","376066","0.0-57.0","5daca079bf590700167f704d","60201dea606b8d5e5aa9e528","6020271f737cd75fd0886943","Mozilla/5.0 (Windows NT 10.0; Win64; x64) AppleWebKit/537.36 (KHTML, like Gecko) Chrome/88.0.4324.152 Safari/537.36","v1-up-stims","","","","","","","","-80,-70,-60,-50,-40","media/audio/stims/spherical_300cm_s20_c1_cd-1_matched_a-80.wav","spherical","20","1","1","matched","-80","-80","1180"
"echo-presentation","58","377800","0.0-58.0","5daca079bf590700167f704d","60201dea606b8d5e5aa9e528","6020271f737cd75fd0886943","Mozilla/5.0 (Windows NT 10.0; Win64; x64) AppleWebKit/537.36 (KHTML, like Gecko) Chrome/88.0.4324.152 Safari/537.36","v1-up-stims","","","","","","","","-80,-70,-60,-50,-40","media/audio/stims/spherical_300cm_s20_c1_cd-1_matched_a-40.wav","spherical","20","1","1","matched","-40","-70","956"
"echo-presentation","59","379884","0.0-59.0","5daca079bf590700167f704d","60201dea606b8d5e5aa9e528","6020271f737cd75fd0886943","Mozilla/5.0 (Windows NT 10.0; Win64; x64) AppleWebKit/537.36 (KHTML, like Gecko) Chrome/88.0.4324.152 Safari/537.36","v1-up-stims","","","","","","","","-80,-70,-60,-50,-40","media/audio/stims/spherical_300cm_s20_c1_cd-1_matched_a-40.wav","spherical","20","1","1","matched","-40","-40","1137"
"echo-presentation","60","381628","0.0-60.0","5daca079bf590700167f704d","60201dea606b8d5e5aa9e528","6020271f737cd75fd0886943","Mozilla/5.0 (Windows NT 10.0; Win64; x64) AppleWebKit/537.36 (KHTML, like Gecko) Chrome/88.0.4324.152 Safari/537.36","v1-up-stims","","","","","","","","-80,-70,-60,-50,-40","media/audio/stims/spherical_300cm_s20_c1_cd-1_matched_a-60.wav","spherical","20","1","1","matched","-60","-60","961"
"echo-presentation","61","383680","0.0-61.0","5daca079bf590700167f704d","60201dea606b8d5e5aa9e528","6020271f737cd75fd0886943","Mozilla/5.0 (Windows NT 10.0; Win64; x64) AppleWebKit/537.36 (KHTML, like Gecko) Chrome/88.0.4324.152 Safari/537.36","v1-up-stims","","","","","","","","-80,-70,-60,-50,-40","media/audio/stims/spherical_300cm_s20_c1_cd-1_matched_a-60.wav","spherical","20","1","1","matched","-60","-70","875"
"echo-presentation","62","385517","0.0-62.0","5daca079bf590700167f704d","60201dea606b8d5e5aa9e528","6020271f737cd75fd0886943","Mozilla/5.0 (Windows NT 10.0; Win64; x64) AppleWebKit/537.36 (KHTML, like Gecko) Chrome/88.0.4324.152 Safari/537.36","v1-up-stims","","","","","","","","-80,-70,-60,-50,-40","media/audio/stims/spherical_300cm_s20_c1_cd-1_matched_a-70.wav","spherical","20","1","1","matched","-70","-70","964"
"echo-presentation","63","387697","0.0-63.0","5daca079bf590700167f704d","60201dea606b8d5e5aa9e528","6020271f737cd75fd0886943","Mozilla/5.0 (Windows NT 10.0; Win64; x64) AppleWebKit/537.36 (KHTML, like Gecko) Chrome/88.0.4324.152 Safari/537.36","v1-up-stims","","","","","","","","-80,-70,-60,-50,-40","media/audio/stims/spherical_300cm_s20_c1_cd-1_matched_a-70.wav","spherical","20","1","1","matched","-70","-80","856"
"echo-presentation","64","389388","0.0-64.0","5daca079bf590700167f704d","60201dea606b8d5e5aa9e528","6020271f737cd75fd0886943","Mozilla/5.0 (Windows NT 10.0; Win64; x64) AppleWebKit/537.36 (KHTML, like Gecko) Chrome/88.0.4324.152 Safari/537.36","v1-up-stims","","","","","","","","-80,-70,-60,-50,-40","media/audio/stims/spherical_300cm_s20_c1_cd-1_matched_a-50.wav","spherical","20","1","1","matched","-50","-50","883"
"echo-presentation","65","391185","0.0-65.0","5daca079bf590700167f704d","60201dea606b8d5e5aa9e528","6020271f737cd75fd0886943","Mozilla/5.0 (Windows NT 10.0; Win64; x64) AppleWebKit/537.36 (KHTML, like Gecko) Chrome/88.0.4324.152 Safari/537.36","v1-up-stims","","","","","","","","-80,-70,-60,-50,-40","media/audio/stims/spherical_300cm_s20_c1_cd-1_matched_a-80.wav","spherical","20","1","1","matched","-80","-60","914"
"echo-presentation","66","392978","0.0-66.0","5daca079bf590700167f704d","60201dea606b8d5e5aa9e528","6020271f737cd75fd0886943","Mozilla/5.0 (Windows NT 10.0; Win64; x64) AppleWebKit/537.36 (KHTML, like Gecko) Chrome/88.0.4324.152 Safari/537.36","v1-up-stims","","","","","","","","-80,-70,-60,-50,-40","media/audio/stims/spherical_300cm_s20_c1_cd-1_matched_a-60.wav","spherical","20","1","1","matched","-60","-40","898"
"echo-presentation","67","394710","0.0-67.0","5daca079bf590700167f704d","60201dea606b8d5e5aa9e528","6020271f737cd75fd0886943","Mozilla/5.0 (Windows NT 10.0; Win64; x64) AppleWebKit/537.36 (KHTML, like Gecko) Chrome/88.0.4324.152 Safari/537.36","v1-up-stims","","","","","","","","-80,-70,-60,-50,-40","media/audio/stims/spherical_300cm_s20_c1_cd-1_matched_a-50.wav","spherical","20","1","1","matched","-50","-70","906"
"echo-presentation","68","397300","0.0-68.0","5daca079bf590700167f704d","60201dea606b8d5e5aa9e528","6020271f737cd75fd0886943","Mozilla/5.0 (Windows NT 10.0; Win64; x64) AppleWebKit/537.36 (KHTML, like Gecko) Chrome/88.0.4324.152 Safari/537.36","v1-up-stims","","","","","","","","-80,-70,-60,-50,-40","media/audio/stims/spherical_300cm_s20_c1_cd-1_matched_a-50.wav","spherical","20","1","1","matched","-50","-80","1702"
"echo-presentation","69","398969","0.0-69.0","5daca079bf590700167f704d","60201dea606b8d5e5aa9e528","6020271f737cd75fd0886943","Mozilla/5.0 (Windows NT 10.0; Win64; x64) AppleWebKit/537.36 (KHTML, like Gecko) Chrome/88.0.4324.152 Safari/537.36","v1-up-stims","","","","","","","","-80,-70,-60,-50,-40","media/audio/stims/spherical_300cm_s20_c1_cd-1_matched_a-80.wav","spherical","20","1","1","matched","-80","-70","909"
"echo-presentation","70","401197","0.0-70.0","5daca079bf590700167f704d","60201dea606b8d5e5aa9e528","6020271f737cd75fd0886943","Mozilla/5.0 (Windows NT 10.0; Win64; x64) AppleWebKit/537.36 (KHTML, like Gecko) Chrome/88.0.4324.152 Safari/537.36","v1-up-stims","","","","","","","","-80,-70,-60,-50,-40","media/audio/stims/spherical_300cm_s20_c1_cd-1_matched_a-50.wav","spherical","20","1","1","matched","-50","-50","1402"
"echo-presentation","71","403332","0.0-71.0","5daca079bf590700167f704d","60201dea606b8d5e5aa9e528","6020271f737cd75fd0886943","Mozilla/5.0 (Windows NT 10.0; Win64; x64) AppleWebKit/537.36 (KHTML, like Gecko) Chrome/88.0.4324.152 Safari/537.36","v1-up-stims","","","","","","","","-80,-70,-60,-50,-40","media/audio/stims/spherical_300cm_s20_c1_cd-1_matched_a-40.wav","spherical","20","1","1","matched","-40","-50","1158"
"block-bookend","72","404299","0.0-72.0","5daca079bf590700167f704d","60201dea606b8d5e5aa9e528","6020271f737cd75fd0886943","Mozilla/5.0 (Windows NT 10.0; Win64; x64) AppleWebKit/537.36 (KHTML, like Gecko) Chrome/88.0.4324.152 Safari/537.36","v1-up-stims","","","","","","","","","","","","","","","","",""
"block-bookend","73","408176","0.0-73.0","5daca079bf590700167f704d","60201dea606b8d5e5aa9e528","6020271f737cd75fd0886943","Mozilla/5.0 (Windows NT 10.0; Win64; x64) AppleWebKit/537.36 (KHTML, like Gecko) Chrome/88.0.4324.152 Safari/537.36","v1-up-stims","","","","","","","","","","","","","","","","",""
"echo-presentation","74","411142","0.0-74.0","5daca079bf590700167f704d","60201dea606b8d5e5aa9e528","6020271f737cd75fd0886943","Mozilla/5.0 (Windows NT 10.0; Win64; x64) AppleWebKit/537.36 (KHTML, like Gecko) Chrome/88.0.4324.152 Safari/537.36","v1-up-stims","","","","","","","","-80,-70,-60,-50,-40","media/audio/stims/spherical_300cm_s20_c1_cd-1_matched_a-60.wav","spherical","20","1","1","matched","-60","-70","1442"
"echo-presentation","75","413233","0.0-75.0","5daca079bf590700167f704d","60201dea606b8d5e5aa9e528","6020271f737cd75fd0886943","Mozilla/5.0 (Windows NT 10.0; Win64; x64) AppleWebKit/537.36 (KHTML, like Gecko) Chrome/88.0.4324.152 Safari/537.36","v1-up-stims","","","","","","","","-80,-70,-60,-50,-40","media/audio/stims/spherical_300cm_s20_c1_cd-1_matched_a-60.wav","spherical","20","1","1","matched","-60","-70","1257"
"echo-presentation","76","415306","0.0-76.0","5daca079bf590700167f704d","60201dea606b8d5e5aa9e528","6020271f737cd75fd0886943","Mozilla/5.0 (Windows NT 10.0; Win64; x64) AppleWebKit/537.36 (KHTML, like Gecko) Chrome/88.0.4324.152 Safari/537.36","v1-up-stims","","","","","","","","-80,-70,-60,-50,-40","media/audio/stims/spherical_300cm_s20_c1_cd-1_matched_a-70.wav","spherical","20","1","1","matched","-70","-60","1237"
"echo-presentation","77","417256","0.0-77.0","5daca079bf590700167f704d","60201dea606b8d5e5aa9e528","6020271f737cd75fd0886943","Mozilla/5.0 (Windows NT 10.0; Win64; x64) AppleWebKit/537.36 (KHTML, like Gecko) Chrome/88.0.4324.152 Safari/537.36","v1-up-stims","","","","","","","","-80,-70,-60,-50,-40","media/audio/stims/spherical_300cm_s20_c1_cd-1_matched_a-80.wav","spherical","20","1","1","matched","-80","-80","1148"
"echo-presentation","78","419490","0.0-78.0","5daca079bf590700167f704d","60201dea606b8d5e5aa9e528","6020271f737cd75fd0886943","Mozilla/5.0 (Windows NT 10.0; Win64; x64) AppleWebKit/537.36 (KHTML, like Gecko) Chrome/88.0.4324.152 Safari/537.36","v1-up-stims","","","","","","","","-80,-70,-60,-50,-40","media/audio/stims/spherical_300cm_s20_c1_cd-1_matched_a-40.wav","spherical","20","1","1","matched","-40","-60","1371"
"echo-presentation","79","421447","0.0-79.0","5daca079bf590700167f704d","60201dea606b8d5e5aa9e528","6020271f737cd75fd0886943","Mozilla/5.0 (Windows NT 10.0; Win64; x64) AppleWebKit/537.36 (KHTML, like Gecko) Chrome/88.0.4324.152 Safari/537.36","v1-up-stims","","","","","","","","-80,-70,-60,-50,-40","media/audio/stims/spherical_300cm_s20_c1_cd-1_matched_a-80.wav","spherical","20","1","1","matched","-80","-70","1190"
"echo-presentation","80","423610","0.0-80.0","5daca079bf590700167f704d","60201dea606b8d5e5aa9e528","6020271f737cd75fd0886943","Mozilla/5.0 (Windows NT 10.0; Win64; x64) AppleWebKit/537.36 (KHTML, like Gecko) Chrome/88.0.4324.152 Safari/537.36","v1-up-stims","","","","","","","","-80,-70,-60,-50,-40","media/audio/stims/spherical_300cm_s20_c1_cd-1_matched_a-60.wav","spherical","20","1","1","matched","-60","-50","1270"
"echo-presentation","81","425465","0.0-81.0","5daca079bf590700167f704d","60201dea606b8d5e5aa9e528","6020271f737cd75fd0886943","Mozilla/5.0 (Windows NT 10.0; Win64; x64) AppleWebKit/537.36 (KHTML, like Gecko) Chrome/88.0.4324.152 Safari/537.36","v1-up-stims","","","","","","","","-80,-70,-60,-50,-40","media/audio/stims/spherical_300cm_s20_c1_cd-1_matched_a-70.wav","spherical","20","1","1","matched","-70","-40","957"
"echo-presentation","82","427281","0.0-82.0","5daca079bf590700167f704d","60201dea606b8d5e5aa9e528","6020271f737cd75fd0886943","Mozilla/5.0 (Windows NT 10.0; Win64; x64) AppleWebKit/537.36 (KHTML, like Gecko) Chrome/88.0.4324.152 Safari/537.36","v1-up-stims","","","","","","","","-80,-70,-60,-50,-40","media/audio/stims/spherical_300cm_s20_c1_cd-1_matched_a-40.wav","spherical","20","1","1","matched","-40","-70","867"
"echo-presentation","83","429196","0.0-83.0","5daca079bf590700167f704d","60201dea606b8d5e5aa9e528","6020271f737cd75fd0886943","Mozilla/5.0 (Windows NT 10.0; Win64; x64) AppleWebKit/537.36 (KHTML, like Gecko) Chrome/88.0.4324.152 Safari/537.36","v1-up-stims","","","","","","","","-80,-70,-60,-50,-40","media/audio/stims/spherical_300cm_s20_c1_cd-1_matched_a-70.wav","spherical","20","1","1","matched","-70","-80","927"
"echo-presentation","84","430748","0.0-84.0","5daca079bf590700167f704d","60201dea606b8d5e5aa9e528","6020271f737cd75fd0886943","Mozilla/5.0 (Windows NT 10.0; Win64; x64) AppleWebKit/537.36 (KHTML, like Gecko) Chrome/88.0.4324.152 Safari/537.36","v1-up-stims","","","","","","","","-80,-70,-60,-50,-40","media/audio/stims/spherical_300cm_s20_c1_cd-1_matched_a-50.wav","spherical","20","1","1","matched","-50","-60","1012"
"echo-presentation","85","432660","0.0-85.0","5daca079bf590700167f704d","60201dea606b8d5e5aa9e528","6020271f737cd75fd0886943","Mozilla/5.0 (Windows NT 10.0; Win64; x64) AppleWebKit/537.36 (KHTML, like Gecko) Chrome/88.0.4324.152 Safari/537.36","v1-up-stims","","","","","","","","-80,-70,-60,-50,-40","media/audio/stims/spherical_300cm_s20_c1_cd-1_matched_a-60.wav","spherical","20","1","1","matched","-60","-50","1232"
"echo-presentation","86","434930","0.0-86.0","5daca079bf590700167f704d","60201dea606b8d5e5aa9e528","6020271f737cd75fd0886943","Mozilla/5.0 (Windows NT 10.0; Win64; x64) AppleWebKit/537.36 (KHTML, like Gecko) Chrome/88.0.4324.152 Safari/537.36","v1-up-stims","","","","","","","","-80,-70,-60,-50,-40","media/audio/stims/spherical_300cm_s20_c1_cd-1_matched_a-40.wav","spherical","20","1","1","matched","-40","-70","1059"
"echo-presentation","87","436661","0.0-87.0","5daca079bf590700167f704d","60201dea606b8d5e5aa9e528","6020271f737cd75fd0886943","Mozilla/5.0 (Windows NT 10.0; Win64; x64) AppleWebKit/537.36 (KHTML, like Gecko) Chrome/88.0.4324.152 Safari/537.36","v1-up-stims","","","","","","","","-80,-70,-60,-50,-40","media/audio/stims/spherical_300cm_s20_c1_cd-1_matched_a-50.wav","spherical","20","1","1","matched","-50","-40","907"
"echo-presentation","88","438399","0.0-88.0","5daca079bf590700167f704d","60201dea606b8d5e5aa9e528","6020271f737cd75fd0886943","Mozilla/5.0 (Windows NT 10.0; Win64; x64) AppleWebKit/537.36 (KHTML, like Gecko) Chrome/88.0.4324.152 Safari/537.36","v1-up-stims","","","","","","","","-80,-70,-60,-50,-40","media/audio/stims/spherical_300cm_s20_c1_cd-1_matched_a-80.wav","spherical","20","1","1","matched","-80","-60","905"
"echo-presentation","89","439976","0.0-89.0","5daca079bf590700167f704d","60201dea606b8d5e5aa9e528","6020271f737cd75fd0886943","Mozilla/5.0 (Windows NT 10.0; Win64; x64) AppleWebKit/537.36 (KHTML, like Gecko) Chrome/88.0.4324.152 Safari/537.36","v1-up-stims","","","","","","","","-80,-70,-60,-50,-40","media/audio/stims/spherical_300cm_s20_c1_cd-1_matched_a-50.wav","spherical","20","1","1","matched","-50","-70","981"
"echo-presentation","90","441592","0.0-90.0","5daca079bf590700167f704d","60201dea606b8d5e5aa9e528","6020271f737cd75fd0886943","Mozilla/5.0 (Windows NT 10.0; Win64; x64) AppleWebKit/537.36 (KHTML, like Gecko) Chrome/88.0.4324.152 Safari/537.36","v1-up-stims","","","","","","","","-80,-70,-60,-50,-40","media/audio/stims/spherical_300cm_s20_c1_cd-1_matched_a-70.wav","spherical","20","1","1","matched","-70","-80","813"
"echo-presentation","91","443250","0.0-91.0","5daca079bf590700167f704d","60201dea606b8d5e5aa9e528","6020271f737cd75fd0886943","Mozilla/5.0 (Windows NT 10.0; Win64; x64) AppleWebKit/537.36 (KHTML, like Gecko) Chrome/88.0.4324.152 Safari/537.36","v1-up-stims","","","","","","","","-80,-70,-60,-50,-40","media/audio/stims/spherical_300cm_s20_c1_cd-1_matched_a-40.wav","spherical","20","1","1","matched","-40","-40","845"
"echo-presentation","92","444920","0.0-92.0","5daca079bf590700167f704d","60201dea606b8d5e5aa9e528","6020271f737cd75fd0886943","Mozilla/5.0 (Windows NT 10.0; Win64; x64) AppleWebKit/537.36 (KHTML, like Gecko) Chrome/88.0.4324.152 Safari/537.36","v1-up-stims","","","","","","","","-80,-70,-60,-50,-40","media/audio/stims/spherical_300cm_s20_c1_cd-1_matched_a-80.wav","spherical","20","1","1","matched","-80","-50","889"
"echo-presentation","93","446411","0.0-93.0","5daca079bf590700167f704d","60201dea606b8d5e5aa9e528","6020271f737cd75fd0886943","Mozilla/5.0 (Windows NT 10.0; Win64; x64) AppleWebKit/537.36 (KHTML, like Gecko) Chrome/88.0.4324.152 Safari/537.36","v1-up-stims","","","","","","","","-80,-70,-60,-50,-40","media/audio/stims/spherical_300cm_s20_c1_cd-1_matched_a-50.wav","spherical","20","1","1","matched","-50","-70","890"
"block-bookend","94","447241","0.0-94.0","5daca079bf590700167f704d","60201dea606b8d5e5aa9e528","6020271f737cd75fd0886943","Mozilla/5.0 (Windows NT 10.0; Win64; x64) AppleWebKit/537.36 (KHTML, like Gecko) Chrome/88.0.4324.152 Safari/537.36","v1-up-stims","","","","","","","","","","","","","","","","",""
"block-bookend","95","451756","0.0-95.0","5daca079bf590700167f704d","60201dea606b8d5e5aa9e528","6020271f737cd75fd0886943","Mozilla/5.0 (Windows NT 10.0; Win64; x64) AppleWebKit/537.36 (KHTML, like Gecko) Chrome/88.0.4324.152 Safari/537.36","v1-up-stims","","","","","","","","","","","","","","","","",""
"echo-presentation","96","455481","0.0-96.0","5daca079bf590700167f704d","60201dea606b8d5e5aa9e528","6020271f737cd75fd0886943","Mozilla/5.0 (Windows NT 10.0; Win64; x64) AppleWebKit/537.36 (KHTML, like Gecko) Chrome/88.0.4324.152 Safari/537.36","v1-up-stims","","","","","","","","-20,-10,0,10,20","media/audio/stims/spherical_300cm_s20_c1_cd-1_matched_a20.wav","spherical","20","1","1","matched","20","10","1904"
"echo-presentation","97","458095","0.0-97.0","5daca079bf590700167f704d","60201dea606b8d5e5aa9e528","6020271f737cd75fd0886943","Mozilla/5.0 (Windows NT 10.0; Win64; x64) AppleWebKit/537.36 (KHTML, like Gecko) Chrome/88.0.4324.152 Safari/537.36","v1-up-stims","","","","","","","","-20,-10,0,10,20","media/audio/stims/spherical_300cm_s20_c1_cd-1_matched_a0.wav","spherical","20","1","1","matched","0","10","1251"
"echo-presentation","98","460353","0.0-98.0","5daca079bf590700167f704d","60201dea606b8d5e5aa9e528","6020271f737cd75fd0886943","Mozilla/5.0 (Windows NT 10.0; Win64; x64) AppleWebKit/537.36 (KHTML, like Gecko) Chrome/88.0.4324.152 Safari/537.36","v1-up-stims","","","","","","","","-20,-10,0,10,20","media/audio/stims/spherical_300cm_s20_c1_cd-1_matched_a0.wav","spherical","20","1","1","matched","0","-10","1313"
"echo-presentation","99","461936","0.0-99.0","5daca079bf590700167f704d","60201dea606b8d5e5aa9e528","6020271f737cd75fd0886943","Mozilla/5.0 (Windows NT 10.0; Win64; x64) AppleWebKit/537.36 (KHTML, like Gecko) Chrome/88.0.4324.152 Safari/537.36","v1-up-stims","","","","","","","","-20,-10,0,10,20","media/audio/stims/spherical_300cm_s20_c1_cd-1_matched_a-10.wav","spherical","20","1","1","matched","-10","0","914"
"echo-presentation","100","463580","0.0-100.0","5daca079bf590700167f704d","60201dea606b8d5e5aa9e528","6020271f737cd75fd0886943","Mozilla/5.0 (Windows NT 10.0; Win64; x64) AppleWebKit/537.36 (KHTML, like Gecko) Chrome/88.0.4324.152 Safari/537.36","v1-up-stims","","","","","","","","-20,-10,0,10,20","media/audio/stims/spherical_300cm_s20_c1_cd-1_matched_a20.wav","spherical","20","1","1","matched","20","20","812"
"echo-presentation","101","465244","0.0-101.0","5daca079bf590700167f704d","60201dea606b8d5e5aa9e528","6020271f737cd75fd0886943","Mozilla/5.0 (Windows NT 10.0; Win64; x64) AppleWebKit/537.36 (KHTML, like Gecko) Chrome/88.0.4324.152 Safari/537.36","v1-up-stims","","","","","","","","-20,-10,0,10,20","media/audio/stims/spherical_300cm_s20_c1_cd-1_matched_a20.wav","spherical","20","1","1","matched","20","-20","850"
"echo-presentation","102","466908","0.0-102.0","5daca079bf590700167f704d","60201dea606b8d5e5aa9e528","6020271f737cd75fd0886943","Mozilla/5.0 (Windows NT 10.0; Win64; x64) AppleWebKit/537.36 (KHTML, like Gecko) Chrome/88.0.4324.152 Safari/537.36","v1-up-stims","","","","","","","","-20,-10,0,10,20","media/audio/stims/spherical_300cm_s20_c1_cd-1_matched_a10.wav","spherical","20","1","1","matched","10","0","863"
"echo-presentation","103","468509","0.0-103.0","5daca079bf590700167f704d","60201dea606b8d5e5aa9e528","6020271f737cd75fd0886943","Mozilla/5.0 (Windows NT 10.0; Win64; x64) AppleWebKit/537.36 (KHTML, like Gecko) Chrome/88.0.4324.152 Safari/537.36","v1-up-stims","","","","","","","","-20,-10,0,10,20","media/audio/stims/spherical_300cm_s20_c1_cd-1_matched_a-20.wav","spherical","20","1","1","matched","-20","-10","797"
"echo-presentation","104","470218","0.0-104.0","5daca079bf590700167f704d","60201dea606b8d5e5aa9e528","6020271f737cd75fd0886943","Mozilla/5.0 (Windows NT 10.0; Win64; x64) AppleWebKit/537.36 (KHTML, like Gecko) Chrome/88.0.4324.152 Safari/537.36","v1-up-stims","","","","","","","","-20,-10,0,10,20","media/audio/stims/spherical_300cm_s20_c1_cd-1_matched_a-10.wav","spherical","20","1","1","matched","-10","10","862"
"echo-presentation","105","471823","0.0-105.0","5daca079bf590700167f704d","60201dea606b8d5e5aa9e528","6020271f737cd75fd0886943","Mozilla/5.0 (Windows NT 10.0; Win64; x64) AppleWebKit/537.36 (KHTML, like Gecko) Chrome/88.0.4324.152 Safari/537.36","v1-up-stims","","","","","","","","-20,-10,0,10,20","media/audio/stims/spherical_300cm_s20_c1_cd-1_matched_a-20.wav","spherical","20","1","1","matched","-20","0","805"
"echo-presentation","106","474193","0.0-106.0","5daca079bf590700167f704d","60201dea606b8d5e5aa9e528","6020271f737cd75fd0886943","Mozilla/5.0 (Windows NT 10.0; Win64; x64) AppleWebKit/537.36 (KHTML, like Gecko) Chrome/88.0.4324.152 Safari/537.36","v1-up-stims","","","","","","","","-20,-10,0,10,20","media/audio/stims/spherical_300cm_s20_c1_cd-1_matched_a0.wav","spherical","20","1","1","matched","0","20","1580"
"echo-presentation","107","475869","0.0-107.0","5daca079bf590700167f704d","60201dea606b8d5e5aa9e528","6020271f737cd75fd0886943","Mozilla/5.0 (Windows NT 10.0; Win64; x64) AppleWebKit/537.36 (KHTML, like Gecko) Chrome/88.0.4324.152 Safari/537.36","v1-up-stims","","","","","","","","-20,-10,0,10,20","media/audio/stims/spherical_300cm_s20_c1_cd-1_matched_a10.wav","spherical","20","1","1","matched","10","10","898"
"echo-presentation","108","477456","0.0-108.0","5daca079bf590700167f704d","60201dea606b8d5e5aa9e528","6020271f737cd75fd0886943","Mozilla/5.0 (Windows NT 10.0; Win64; x64) AppleWebKit/537.36 (KHTML, like Gecko) Chrome/88.0.4324.152 Safari/537.36","v1-up-stims","","","","","","","","-20,-10,0,10,20","media/audio/stims/spherical_300cm_s20_c1_cd-1_matched_a-10.wav","spherical","20","1","1","matched","-10","-20","790"
"echo-presentation","109","479202","0.0-109.0","5daca079bf590700167f704d","60201dea606b8d5e5aa9e528","6020271f737cd75fd0886943","Mozilla/5.0 (Windows NT 10.0; Win64; x64) AppleWebKit/537.36 (KHTML, like Gecko) Chrome/88.0.4324.152 Safari/537.36","v1-up-stims","","","","","","","","-20,-10,0,10,20","media/audio/stims/spherical_300cm_s20_c1_cd-1_matched_a0.wav","spherical","20","1","1","matched","0","-10","823"
"echo-presentation","110","481703","0.0-110.0","5daca079bf590700167f704d","60201dea606b8d5e5aa9e528","6020271f737cd75fd0886943","Mozilla/5.0 (Windows NT 10.0; Win64; x64) AppleWebKit/537.36 (KHTML, like Gecko) Chrome/88.0.4324.152 Safari/537.36","v1-up-stims","","","","","","","","-20,-10,0,10,20","media/audio/stims/spherical_300cm_s20_c1_cd-1_matched_a10.wav","spherical","20","1","1","matched","10","0","964"
"echo-presentation","111","483209","0.0-111.0","5daca079bf590700167f704d","60201dea606b8d5e5aa9e528","6020271f737cd75fd0886943","Mozilla/5.0 (Windows NT 10.0; Win64; x64) AppleWebKit/537.36 (KHTML, like Gecko) Chrome/88.0.4324.152 Safari/537.36","v1-up-stims","","","","","","","","-20,-10,0,10,20","media/audio/stims/spherical_300cm_s20_c1_cd-1_matched_a20.wav","spherical","20","1","1","matched","20","10","900"
"echo-presentation","112","484864","0.0-112.0","5daca079bf590700167f704d","60201dea606b8d5e5aa9e528","6020271f737cd75fd0886943","Mozilla/5.0 (Windows NT 10.0; Win64; x64) AppleWebKit/537.36 (KHTML, like Gecko) Chrome/88.0.4324.152 Safari/537.36","v1-up-stims","","","","","","","","-20,-10,0,10,20","media/audio/stims/spherical_300cm_s20_c1_cd-1_matched_a-20.wav","spherical","20","1","1","matched","-20","10","846"
"echo-presentation","113","486524","0.0-113.0","5daca079bf590700167f704d","60201dea606b8d5e5aa9e528","6020271f737cd75fd0886943","Mozilla/5.0 (Windows NT 10.0; Win64; x64) AppleWebKit/537.36 (KHTML, like Gecko) Chrome/88.0.4324.152 Safari/537.36","v1-up-stims","","","","","","","","-20,-10,0,10,20","media/audio/stims/spherical_300cm_s20_c1_cd-1_matched_a-10.wav","spherical","20","1","1","matched","-10","10","851"
"echo-presentation","114","488752","0.0-114.0","5daca079bf590700167f704d","60201dea606b8d5e5aa9e528","6020271f737cd75fd0886943","Mozilla/5.0 (Windows NT 10.0; Win64; x64) AppleWebKit/537.36 (KHTML, like Gecko) Chrome/88.0.4324.152 Safari/537.36","v1-up-stims","","","","","","","","-20,-10,0,10,20","media/audio/stims/spherical_300cm_s20_c1_cd-1_matched_a-20.wav","spherical","20","1","1","matched","-20","10","824"
"echo-presentation","115","490654","0.0-115.0","5daca079bf590700167f704d","60201dea606b8d5e5aa9e528","6020271f737cd75fd0886943","Mozilla/5.0 (Windows NT 10.0; Win64; x64) AppleWebKit/537.36 (KHTML, like Gecko) Chrome/88.0.4324.152 Safari/537.36","v1-up-stims","","","","","","","","-20,-10,0,10,20","media/audio/stims/spherical_300cm_s20_c1_cd-1_matched_a10.wav","spherical","20","1","1","matched","10","20","1038"
"block-bookend","116","492074","0.0-116.0","5daca079bf590700167f704d","60201dea606b8d5e5aa9e528","6020271f737cd75fd0886943","Mozilla/5.0 (Windows NT 10.0; Win64; x64) AppleWebKit/537.36 (KHTML, like Gecko) Chrome/88.0.4324.152 Safari/537.36","v1-up-stims","","","","","","","","","","","","","","","","",""
"block-bookend","117","495441","0.0-117.0","5daca079bf590700167f704d","60201dea606b8d5e5aa9e528","6020271f737cd75fd0886943","Mozilla/5.0 (Windows NT 10.0; Win64; x64) AppleWebKit/537.36 (KHTML, like Gecko) Chrome/88.0.4324.152 Safari/537.36","v1-up-stims","","","","","","","","","","","","","","","","",""
"echo-presentation","118","498205","0.0-118.0","5daca079bf590700167f704d","60201dea606b8d5e5aa9e528","6020271f737cd75fd0886943","Mozilla/5.0 (Windows NT 10.0; Win64; x64) AppleWebKit/537.36 (KHTML, like Gecko) Chrome/88.0.4324.152 Safari/537.36","v1-up-stims","","","","","","","","-20,-10,0,10,20","media/audio/stims/spherical_300cm_s20_c1_cd-1_matched_a-20.wav","spherical","20","1","1","matched","-20","-10","1064"
"echo-presentation","119","499826","0.0-119.0","5daca079bf590700167f704d","60201dea606b8d5e5aa9e528","6020271f737cd75fd0886943","Mozilla/5.0 (Windows NT 10.0; Win64; x64) AppleWebKit/537.36 (KHTML, like Gecko) Chrome/88.0.4324.152 Safari/537.36","v1-up-stims","","","","","","","","-20,-10,0,10,20","media/audio/stims/spherical_300cm_s20_c1_cd-1_matched_a10.wav","spherical","20","1","1","matched","10","-10","1039"
"echo-presentation","120","501499","0.0-120.0","5daca079bf590700167f704d","60201dea606b8d5e5aa9e528","6020271f737cd75fd0886943","Mozilla/5.0 (Windows NT 10.0; Win64; x64) AppleWebKit/537.36 (KHTML, like Gecko) Chrome/88.0.4324.152 Safari/537.36","v1-up-stims","","","","","","","","-20,-10,0,10,20","media/audio/stims/spherical_300cm_s20_c1_cd-1_matched_a0.wav","spherical","20","1","1","matched","0","-10","921"
"echo-presentation","121","503001","0.0-121.0","5daca079bf590700167f704d","60201dea606b8d5e5aa9e528","6020271f737cd75fd0886943","Mozilla/5.0 (Windows NT 10.0; Win64; x64) AppleWebKit/537.36 (KHTML, like Gecko) Chrome/88.0.4324.152 Safari/537.36","v1-up-stims","","","","","","","","-20,-10,0,10,20","media/audio/stims/spherical_300cm_s20_c1_cd-1_matched_a-10.wav","spherical","20","1","1","matched","-10","-20","923"
"echo-presentation","122","504744","0.0-122.0","5daca079bf590700167f704d","60201dea606b8d5e5aa9e528","6020271f737cd75fd0886943","Mozilla/5.0 (Windows NT 10.0; Win64; x64) AppleWebKit/537.36 (KHTML, like Gecko) Chrome/88.0.4324.152 Safari/537.36","v1-up-stims","","","","","","","","-20,-10,0,10,20","media/audio/stims/spherical_300cm_s20_c1_cd-1_matched_a0.wav","spherical","20","1","1","matched","0","-20","1027"
"echo-presentation","123","506635","0.0-123.0","5daca079bf590700167f704d","60201dea606b8d5e5aa9e528","6020271f737cd75fd0886943","Mozilla/5.0 (Windows NT 10.0; Win64; x64) AppleWebKit/537.36 (KHTML, like Gecko) Chrome/88.0.4324.152 Safari/537.36","v1-up-stims","","","","","","","","-20,-10,0,10,20","media/audio/stims/spherical_300cm_s20_c1_cd-1_matched_a-10.wav","spherical","20","1","1","matched","-10","20","937"
"echo-presentation","124","508505","0.0-124.0","5daca079bf590700167f704d","60201dea606b8d5e5aa9e528","6020271f737cd75fd0886943","Mozilla/5.0 (Windows NT 10.0; Win64; x64) AppleWebKit/537.36 (KHTML, like Gecko) Chrome/88.0.4324.152 Safari/537.36","v1-up-stims","","","","","","","","-20,-10,0,10,20","media/audio/stims/spherical_300cm_s20_c1_cd-1_matched_a10.wav","spherical","20","1","1","matched","10","10","1020"
"echo-presentation","125","510737","0.0-125.0","5daca079bf590700167f704d","60201dea606b8d5e5aa9e528","6020271f737cd75fd0886943","Mozilla/5.0 (Windows NT 10.0; Win64; x64) AppleWebKit/537.36 (KHTML, like Gecko) Chrome/88.0.4324.152 Safari/537.36","v1-up-stims","","","","","","","","-20,-10,0,10,20","media/audio/stims/spherical_300cm_s20_c1_cd-1_matched_a-20.wav","spherical","20","1","1","matched","-20","10","979"
"echo-presentation","126","512465","0.0-126.0","5daca079bf590700167f704d","60201dea606b8d5e5aa9e528","6020271f737cd75fd0886943","Mozilla/5.0 (Windows NT 10.0; Win64; x64) AppleWebKit/537.36 (KHTML, like Gecko) Chrome/88.0.4324.152 Safari/537.36","v1-up-stims","","","","","","","","-20,-10,0,10,20","media/audio/stims/spherical_300cm_s20_c1_cd-1_matched_a10.wav","spherical","20","1","1","matched","10","-20","927"
"echo-presentation","127","514115","0.0-127.0","5daca079bf590700167f704d","60201dea606b8d5e5aa9e528","6020271f737cd75fd0886943","Mozilla/5.0 (Windows NT 10.0; Win64; x64) AppleWebKit/537.36 (KHTML, like Gecko) Chrome/88.0.4324.152 Safari/537.36","v1-up-stims","","","","","","","","-20,-10,0,10,20","media/audio/stims/spherical_300cm_s20_c1_cd-1_matched_a0.wav","spherical","20","1","1","matched","0","-20","1019"
"echo-presentation","128","516349","0.0-128.0","5daca079bf590700167f704d","60201dea606b8d5e5aa9e528","6020271f737cd75fd0886943","Mozilla/5.0 (Windows NT 10.0; Win64; x64) AppleWebKit/537.36 (KHTML, like Gecko) Chrome/88.0.4324.152 Safari/537.36","v1-up-stims","","","","","","","","-20,-10,0,10,20","media/audio/stims/spherical_300cm_s20_c1_cd-1_matched_a-10.wav","spherical","20","1","1","matched","-10","-10","1241"
"echo-presentation","129","518277","0.0-129.0","5daca079bf590700167f704d","60201dea606b8d5e5aa9e528","6020271f737cd75fd0886943","Mozilla/5.0 (Windows NT 10.0; Win64; x64) AppleWebKit/537.36 (KHTML, like Gecko) Chrome/88.0.4324.152 Safari/537.36","v1-up-stims","","","","","","","","-20,-10,0,10,20","media/audio/stims/spherical_300cm_s20_c1_cd-1_matched_a10.wav","spherical","20","1","1","matched","10","0","1213"
"echo-presentation","130","519896","0.0-130.0","5daca079bf590700167f704d","60201dea606b8d5e5aa9e528","6020271f737cd75fd0886943","Mozilla/5.0 (Windows NT 10.0; Win64; x64) AppleWebKit/537.36 (KHTML, like Gecko) Chrome/88.0.4324.152 Safari/537.36","v1-up-stims","","","","","","","","-20,-10,0,10,20","media/audio/stims/spherical_300cm_s20_c1_cd-1_matched_a20.wav","spherical","20","1","1","matched","20","0","926"
"echo-presentation","131","521591","0.0-131.0","5daca079bf590700167f704d","60201dea606b8d5e5aa9e528","6020271f737cd75fd0886943","Mozilla/5.0 (Windows NT 10.0; Win64; x64) AppleWebKit/537.36 (KHTML, like Gecko) Chrome/88.0.4324.152 Safari/537.36","v1-up-stims","","","","","","","","-20,-10,0,10,20","media/audio/stims/spherical_300cm_s20_c1_cd-1_matched_a20.wav","spherical","20","1","1","matched","20","20","1116"
"echo-presentation","132","523187","0.0-132.0","5daca079bf590700167f704d","60201dea606b8d5e5aa9e528","6020271f737cd75fd0886943","Mozilla/5.0 (Windows NT 10.0; Win64; x64) AppleWebKit/537.36 (KHTML, like Gecko) Chrome/88.0.4324.152 Safari/537.36","v1-up-stims","","","","","","","","-20,-10,0,10,20","media/audio/stims/spherical_300cm_s20_c1_cd-1_matched_a-10.wav","spherical","20","1","1","matched","-10","20","906"
"echo-presentation","133","524790","0.0-133.0","5daca079bf590700167f704d","60201dea606b8d5e5aa9e528","6020271f737cd75fd0886943","Mozilla/5.0 (Windows NT 10.0; Win64; x64) AppleWebKit/537.36 (KHTML, like Gecko) Chrome/88.0.4324.152 Safari/537.36","v1-up-stims","","","","","","","","-20,-10,0,10,20","media/audio/stims/spherical_300cm_s20_c1_cd-1_matched_a20.wav","spherical","20","1","1","matched","20","20","980"
"echo-presentation","134","526531","0.0-134.0","5daca079bf590700167f704d","60201dea606b8d5e5aa9e528","6020271f737cd75fd0886943","Mozilla/5.0 (Windows NT 10.0; Win64; x64) AppleWebKit/537.36 (KHTML, like Gecko) Chrome/88.0.4324.152 Safari/537.36","v1-up-stims","","","","","","","","-20,-10,0,10,20","media/audio/stims/spherical_300cm_s20_c1_cd-1_matched_a-20.wav","spherical","20","1","1","matched","-20","10","1015"
"echo-presentation","135","528125","0.0-135.0","5daca079bf590700167f704d","60201dea606b8d5e5aa9e528","6020271f737cd75fd0886943","Mozilla/5.0 (Windows NT 10.0; Win64; x64) AppleWebKit/537.36 (KHTML, like Gecko) Chrome/88.0.4324.152 Safari/537.36","v1-up-stims","","","","","","","","-20,-10,0,10,20","media/audio/stims/spherical_300cm_s20_c1_cd-1_matched_a0.wav","spherical","20","1","1","matched","0","10","988"
"echo-presentation","136","530382","0.0-136.0","5daca079bf590700167f704d","60201dea606b8d5e5aa9e528","6020271f737cd75fd0886943","Mozilla/5.0 (Windows NT 10.0; Win64; x64) AppleWebKit/537.36 (KHTML, like Gecko) Chrome/88.0.4324.152 Safari/537.36","v1-up-stims","","","","","","","","-20,-10,0,10,20","media/audio/stims/spherical_300cm_s20_c1_cd-1_matched_a-20.wav","spherical","20","1","1","matched","-20","-20","1630"
"echo-presentation","137","533080","0.0-137.0","5daca079bf590700167f704d","60201dea606b8d5e5aa9e528","6020271f737cd75fd0886943","Mozilla/5.0 (Windows NT 10.0; Win64; x64) AppleWebKit/537.36 (KHTML, like Gecko) Chrome/88.0.4324.152 Safari/537.36","v1-up-stims","","","","","","","","-20,-10,0,10,20","media/audio/stims/spherical_300cm_s20_c1_cd-1_matched_a20.wav","spherical","20","1","1","matched","20","-10","1949"
"block-bookend","138","534109","0.0-138.0","5daca079bf590700167f704d","60201dea606b8d5e5aa9e528","6020271f737cd75fd0886943","Mozilla/5.0 (Windows NT 10.0; Win64; x64) AppleWebKit/537.36 (KHTML, like Gecko) Chrome/88.0.4324.152 Safari/537.36","v1-up-stims","","","","","","","","","","","","","","","","",""
