"trial_type","trial_index","time_elapsed","internal_node_id","prolificPid","studyId","sessionId","userAgent","version","rt","stimulus","key_press","chosenKeyset","failureCount","testIndex","globalVolume","choices","filename","modelName","slowdown","compensation","compensationDescriptor","receiverOrientationType","azimuth","responseAzimuth","responseDelay"
"pavlovia","0","2","0.0-0.0","5eaeba4b21554758db3e37a7","5fef55e628823a0076ec12ee","601f446d50c89e473ff20115","Mozilla/5.0 (Windows NT 10.0; Win64; x64) AppleWebKit/537.36 (KHTML, like Gecko) Chrome/87.0.4280.141 Safari/537.36 OPR/73.0.3856.344","v1","","","","","","","","","","","","","","","","",""
"html-keyboard-response","1","2259","0.0-1.0","5eaeba4b21554758db3e37a7","5fef55e628823a0076ec12ee","601f446d50c89e473ff20115","Mozilla/5.0 (Windows NT 10.0; Win64; x64) AppleWebKit/537.36 (KHTML, like Gecko) Chrome/87.0.4280.141 Safari/537.36 OPR/73.0.3856.344","v1","2256.5200000535697","<div><h1>Welcome!</h1><p>Press any key to continue.</p></div>","13","","","","","","","","","","","","","",""
"consent-form","2","67013","0.0-2.0","5eaeba4b21554758db3e37a7","5fef55e628823a0076ec12ee","601f446d50c89e473ff20115","Mozilla/5.0 (Windows NT 10.0; Win64; x64) AppleWebKit/537.36 (KHTML, like Gecko) Chrome/87.0.4280.141 Safari/537.36 OPR/73.0.3856.344","v1","","","","","","","","","","","","","","","","",""
"keyset-select","3","93113","0.0-3.0","5eaeba4b21554758db3e37a7","5fef55e628823a0076ec12ee","601f446d50c89e473ff20115","Mozilla/5.0 (Windows NT 10.0; Win64; x64) AppleWebKit/537.36 (KHTML, like Gecko) Chrome/87.0.4280.141 Safari/537.36 OPR/73.0.3856.344","v1","","","","left-hand","","","","","","","","","","","","",""
"headphone-check","4","132743","0.0-4.0","5eaeba4b21554758db3e37a7","5fef55e628823a0076ec12ee","601f446d50c89e473ff20115","Mozilla/5.0 (Windows NT 10.0; Win64; x64) AppleWebKit/537.36 (KHTML, like Gecko) Chrome/87.0.4280.141 Safari/537.36 OPR/73.0.3856.344","v1","","","","","0","6","0.3","","","","","","","","","",""
"headphone-backwards-check","5","139583","0.0-5.0","5eaeba4b21554758db3e37a7","5fef55e628823a0076ec12ee","601f446d50c89e473ff20115","Mozilla/5.0 (Windows NT 10.0; Win64; x64) AppleWebKit/537.36 (KHTML, like Gecko) Chrome/87.0.4280.141 Safari/537.36 OPR/73.0.3856.344","v1","","","","","0","","","","","","","","","","","",""
"training","6","206152","0.0-6.0","5eaeba4b21554758db3e37a7","5fef55e628823a0076ec12ee","601f446d50c89e473ff20115","Mozilla/5.0 (Windows NT 10.0; Win64; x64) AppleWebKit/537.36 (KHTML, like Gecko) Chrome/87.0.4280.141 Safari/537.36 OPR/73.0.3856.344","v1","","","","","","","","","","","","","","","","",""
"block-bookend","7","217400","0.0-7.0","5eaeba4b21554758db3e37a7","5fef55e628823a0076ec12ee","601f446d50c89e473ff20115","Mozilla/5.0 (Windows NT 10.0; Win64; x64) AppleWebKit/537.36 (KHTML, like Gecko) Chrome/87.0.4280.141 Safari/537.36 OPR/73.0.3856.344","v1","","","","","","","","","","","","","","","","",""
"echo-presentation","8","222412","0.0-8.0","5eaeba4b21554758db3e37a7","5fef55e628823a0076ec12ee","601f446d50c89e473ff20115","Mozilla/5.0 (Windows NT 10.0; Win64; x64) AppleWebKit/537.36 (KHTML, like Gecko) Chrome/87.0.4280.141 Safari/537.36 OPR/73.0.3856.344","v1","","","","","","","","-20,-10,0,10,20","media/audio/stims/spherical_300cm_s20_c20_cd-full_matched_a-10.wav","spherical","20","20","full","matched","-10","-20","2034"
"echo-presentation","9","228086","0.0-9.0","5eaeba4b21554758db3e37a7","5fef55e628823a0076ec12ee","601f446d50c89e473ff20115","Mozilla/5.0 (Windows NT 10.0; Win64; x64) AppleWebKit/537.36 (KHTML, like Gecko) Chrome/87.0.4280.141 Safari/537.36 OPR/73.0.3856.344","v1","","","","","","","","-20,-10,0,10,20","media/audio/stims/spherical_300cm_s20_c20_cd-full_matched_a10.wav","spherical","20","20","full","matched","10","-10","4259"
"echo-presentation","10","228090","0.0-10.0","5eaeba4b21554758db3e37a7","5fef55e628823a0076ec12ee","601f446d50c89e473ff20115","Mozilla/5.0 (Windows NT 10.0; Win64; x64) AppleWebKit/537.36 (KHTML, like Gecko) Chrome/87.0.4280.141 Safari/537.36 OPR/73.0.3856.344","v1","","","","","","","","-20,-10,0,10,20","media/audio/stims/spherical_300cm_s20_c20_cd-full_matched_a10.wav","spherical","20","20","full","matched","10","0","4260"
"echo-presentation","11","231511","0.0-11.0","5eaeba4b21554758db3e37a7","5fef55e628823a0076ec12ee","601f446d50c89e473ff20115","Mozilla/5.0 (Windows NT 10.0; Win64; x64) AppleWebKit/537.36 (KHTML, like Gecko) Chrome/87.0.4280.141 Safari/537.36 OPR/73.0.3856.344","v1","","","","","","","","-20,-10,0,10,20","media/audio/stims/spherical_300cm_s20_c20_cd-full_matched_a0.wav","spherical","20","20","full","matched","0","0","1949"
"echo-presentation","12","234772","0.0-12.0","5eaeba4b21554758db3e37a7","5fef55e628823a0076ec12ee","601f446d50c89e473ff20115","Mozilla/5.0 (Windows NT 10.0; Win64; x64) AppleWebKit/537.36 (KHTML, like Gecko) Chrome/87.0.4280.141 Safari/537.36 OPR/73.0.3856.344","v1","","","","","","","","-20,-10,0,10,20","media/audio/stims/spherical_300cm_s20_c20_cd-full_matched_a10.wav","spherical","20","20","full","matched","10","10","1982"
"echo-presentation","13","237152","0.0-13.0","5eaeba4b21554758db3e37a7","5fef55e628823a0076ec12ee","601f446d50c89e473ff20115","Mozilla/5.0 (Windows NT 10.0; Win64; x64) AppleWebKit/537.36 (KHTML, like Gecko) Chrome/87.0.4280.141 Safari/537.36 OPR/73.0.3856.344","v1","","","","","","","","-20,-10,0,10,20","media/audio/stims/spherical_300cm_s20_c20_cd-full_matched_a-20.wav","spherical","20","20","full","matched","-20","-20","1105"
"echo-presentation","14","239949","0.0-14.0","5eaeba4b21554758db3e37a7","5fef55e628823a0076ec12ee","601f446d50c89e473ff20115","Mozilla/5.0 (Windows NT 10.0; Win64; x64) AppleWebKit/537.36 (KHTML, like Gecko) Chrome/87.0.4280.141 Safari/537.36 OPR/73.0.3856.344","v1","","","","","","","","-20,-10,0,10,20","media/audio/stims/spherical_300cm_s20_c20_cd-full_matched_a-10.wav","spherical","20","20","full","matched","-10","-10","1727"
"echo-presentation","15","242291","0.0-15.0","5eaeba4b21554758db3e37a7","5fef55e628823a0076ec12ee","601f446d50c89e473ff20115","Mozilla/5.0 (Windows NT 10.0; Win64; x64) AppleWebKit/537.36 (KHTML, like Gecko) Chrome/87.0.4280.141 Safari/537.36 OPR/73.0.3856.344","v1","","","","","","","","-20,-10,0,10,20","media/audio/stims/spherical_300cm_s20_c20_cd-full_matched_a-10.wav","spherical","20","20","full","matched","-10","-10","1442"
"echo-presentation","16","244637","0.0-16.0","5eaeba4b21554758db3e37a7","5fef55e628823a0076ec12ee","601f446d50c89e473ff20115","Mozilla/5.0 (Windows NT 10.0; Win64; x64) AppleWebKit/537.36 (KHTML, like Gecko) Chrome/87.0.4280.141 Safari/537.36 OPR/73.0.3856.344","v1","","","","","","","","-20,-10,0,10,20","media/audio/stims/spherical_300cm_s20_c20_cd-full_matched_a0.wav","spherical","20","20","full","matched","0","0","1339"
"echo-presentation","17","247132","0.0-17.0","5eaeba4b21554758db3e37a7","5fef55e628823a0076ec12ee","601f446d50c89e473ff20115","Mozilla/5.0 (Windows NT 10.0; Win64; x64) AppleWebKit/537.36 (KHTML, like Gecko) Chrome/87.0.4280.141 Safari/537.36 OPR/73.0.3856.344","v1","","","","","","","","-20,-10,0,10,20","media/audio/stims/spherical_300cm_s20_c20_cd-full_matched_a-20.wav","spherical","20","20","full","matched","-20","-10","1544"
"echo-presentation","18","249382","0.0-18.0","5eaeba4b21554758db3e37a7","5fef55e628823a0076ec12ee","601f446d50c89e473ff20115","Mozilla/5.0 (Windows NT 10.0; Win64; x64) AppleWebKit/537.36 (KHTML, like Gecko) Chrome/87.0.4280.141 Safari/537.36 OPR/73.0.3856.344","v1","","","","","","","","-20,-10,0,10,20","media/audio/stims/spherical_300cm_s20_c20_cd-full_matched_a20.wav","spherical","20","20","full","matched","20","10","1315"
"echo-presentation","19","251571","0.0-19.0","5eaeba4b21554758db3e37a7","5fef55e628823a0076ec12ee","601f446d50c89e473ff20115","Mozilla/5.0 (Windows NT 10.0; Win64; x64) AppleWebKit/537.36 (KHTML, like Gecko) Chrome/87.0.4280.141 Safari/537.36 OPR/73.0.3856.344","v1","","","","","","","","-20,-10,0,10,20","media/audio/stims/spherical_300cm_s20_c20_cd-full_matched_a20.wav","spherical","20","20","full","matched","20","10","1203"
"echo-presentation","20","253815","0.0-20.0","5eaeba4b21554758db3e37a7","5fef55e628823a0076ec12ee","601f446d50c89e473ff20115","Mozilla/5.0 (Windows NT 10.0; Win64; x64) AppleWebKit/537.36 (KHTML, like Gecko) Chrome/87.0.4280.141 Safari/537.36 OPR/73.0.3856.344","v1","","","","","","","","-20,-10,0,10,20","media/audio/stims/spherical_300cm_s20_c20_cd-full_matched_a-10.wav","spherical","20","20","full","matched","-10","-20","1378"
"echo-presentation","21","256733","0.0-21.0","5eaeba4b21554758db3e37a7","5fef55e628823a0076ec12ee","601f446d50c89e473ff20115","Mozilla/5.0 (Windows NT 10.0; Win64; x64) AppleWebKit/537.36 (KHTML, like Gecko) Chrome/87.0.4280.141 Safari/537.36 OPR/73.0.3856.344","v1","","","","","","","","-20,-10,0,10,20","media/audio/stims/spherical_300cm_s20_c20_cd-full_matched_a10.wav","spherical","20","20","full","matched","10","-10","2103"
"echo-presentation","22","258617","0.0-22.0","5eaeba4b21554758db3e37a7","5fef55e628823a0076ec12ee","601f446d50c89e473ff20115","Mozilla/5.0 (Windows NT 10.0; Win64; x64) AppleWebKit/537.36 (KHTML, like Gecko) Chrome/87.0.4280.141 Safari/537.36 OPR/73.0.3856.344","v1","","","","","","","","-20,-10,0,10,20","media/audio/stims/spherical_300cm_s20_c20_cd-full_matched_a-20.wav","spherical","20","20","full","matched","-20","-10","1151"
"echo-presentation","23","266259","0.0-23.0","5eaeba4b21554758db3e37a7","5fef55e628823a0076ec12ee","601f446d50c89e473ff20115","Mozilla/5.0 (Windows NT 10.0; Win64; x64) AppleWebKit/537.36 (KHTML, like Gecko) Chrome/87.0.4280.141 Safari/537.36 OPR/73.0.3856.344","v1","","","","","","","","-20,-10,0,10,20","media/audio/stims/spherical_300cm_s20_c20_cd-full_matched_a20.wav","spherical","20","20","full","matched","20","0","6340"
"echo-presentation","24","268782","0.0-24.0","5eaeba4b21554758db3e37a7","5fef55e628823a0076ec12ee","601f446d50c89e473ff20115","Mozilla/5.0 (Windows NT 10.0; Win64; x64) AppleWebKit/537.36 (KHTML, like Gecko) Chrome/87.0.4280.141 Safari/537.36 OPR/73.0.3856.344","v1","","","","","","","","-20,-10,0,10,20","media/audio/stims/spherical_300cm_s20_c20_cd-full_matched_a-20.wav","spherical","20","20","full","matched","-20","-10","1773"
"echo-presentation","25","271397","0.0-25.0","5eaeba4b21554758db3e37a7","5fef55e628823a0076ec12ee","601f446d50c89e473ff20115","Mozilla/5.0 (Windows NT 10.0; Win64; x64) AppleWebKit/537.36 (KHTML, like Gecko) Chrome/87.0.4280.141 Safari/537.36 OPR/73.0.3856.344","v1","","","","","","","","-20,-10,0,10,20","media/audio/stims/spherical_300cm_s20_c20_cd-full_matched_a0.wav","spherical","20","20","full","matched","0","-20","1800"
"echo-presentation","26","273959","0.0-26.0","5eaeba4b21554758db3e37a7","5fef55e628823a0076ec12ee","601f446d50c89e473ff20115","Mozilla/5.0 (Windows NT 10.0; Win64; x64) AppleWebKit/537.36 (KHTML, like Gecko) Chrome/87.0.4280.141 Safari/537.36 OPR/73.0.3856.344","v1","","","","","","","","-20,-10,0,10,20","media/audio/stims/spherical_300cm_s20_c20_cd-full_matched_a20.wav","spherical","20","20","full","matched","20","0","1864"
"echo-presentation","27","276362","0.0-27.0","5eaeba4b21554758db3e37a7","5fef55e628823a0076ec12ee","601f446d50c89e473ff20115","Mozilla/5.0 (Windows NT 10.0; Win64; x64) AppleWebKit/537.36 (KHTML, like Gecko) Chrome/87.0.4280.141 Safari/537.36 OPR/73.0.3856.344","v1","","","","","","","","-20,-10,0,10,20","media/audio/stims/spherical_300cm_s20_c20_cd-full_matched_a10.wav","spherical","20","20","full","matched","10","0","1573"
"block-bookend","28","277534","0.0-28.0","5eaeba4b21554758db3e37a7","5fef55e628823a0076ec12ee","601f446d50c89e473ff20115","Mozilla/5.0 (Windows NT 10.0; Win64; x64) AppleWebKit/537.36 (KHTML, like Gecko) Chrome/87.0.4280.141 Safari/537.36 OPR/73.0.3856.344","v1","","","","","","","","","","","","","","","","",""
"block-bookend","29","283465","0.0-29.0","5eaeba4b21554758db3e37a7","5fef55e628823a0076ec12ee","601f446d50c89e473ff20115","Mozilla/5.0 (Windows NT 10.0; Win64; x64) AppleWebKit/537.36 (KHTML, like Gecko) Chrome/87.0.4280.141 Safari/537.36 OPR/73.0.3856.344","v1","","","","","","","","","","","","","","","","",""
"echo-presentation","30","288410","0.0-30.0","5eaeba4b21554758db3e37a7","5fef55e628823a0076ec12ee","601f446d50c89e473ff20115","Mozilla/5.0 (Windows NT 10.0; Win64; x64) AppleWebKit/537.36 (KHTML, like Gecko) Chrome/87.0.4280.141 Safari/537.36 OPR/73.0.3856.344","v1","","","","","","","","-20,-10,0,10,20","media/audio/stims/spherical_300cm_s20_c20_cd-full_matched_a0.wav","spherical","20","20","full","matched","0","-20","3455"
"echo-presentation","31","290769","0.0-31.0","5eaeba4b21554758db3e37a7","5fef55e628823a0076ec12ee","601f446d50c89e473ff20115","Mozilla/5.0 (Windows NT 10.0; Win64; x64) AppleWebKit/537.36 (KHTML, like Gecko) Chrome/87.0.4280.141 Safari/537.36 OPR/73.0.3856.344","v1","","","","","","","","-20,-10,0,10,20","media/audio/stims/spherical_300cm_s20_c20_cd-full_matched_a10.wav","spherical","20","20","full","matched","10","10","1441"
"echo-presentation","32","293363","0.0-32.0","5eaeba4b21554758db3e37a7","5fef55e628823a0076ec12ee","601f446d50c89e473ff20115","Mozilla/5.0 (Windows NT 10.0; Win64; x64) AppleWebKit/537.36 (KHTML, like Gecko) Chrome/87.0.4280.141 Safari/537.36 OPR/73.0.3856.344","v1","","","","","","","","-20,-10,0,10,20","media/audio/stims/spherical_300cm_s20_c20_cd-full_matched_a10.wav","spherical","20","20","full","matched","10","10","1293"
"echo-presentation","33","296726","0.0-33.0","5eaeba4b21554758db3e37a7","5fef55e628823a0076ec12ee","601f446d50c89e473ff20115","Mozilla/5.0 (Windows NT 10.0; Win64; x64) AppleWebKit/537.36 (KHTML, like Gecko) Chrome/87.0.4280.141 Safari/537.36 OPR/73.0.3856.344","v1","","","","","","","","-20,-10,0,10,20","media/audio/stims/spherical_300cm_s20_c20_cd-full_matched_a0.wav","spherical","20","20","full","matched","0","10","2570"
"echo-presentation","34","298755","0.0-34.0","5eaeba4b21554758db3e37a7","5fef55e628823a0076ec12ee","601f446d50c89e473ff20115","Mozilla/5.0 (Windows NT 10.0; Win64; x64) AppleWebKit/537.36 (KHTML, like Gecko) Chrome/87.0.4280.141 Safari/537.36 OPR/73.0.3856.344","v1","","","","","","","","-20,-10,0,10,20","media/audio/stims/spherical_300cm_s20_c20_cd-full_matched_a20.wav","spherical","20","20","full","matched","20","10","1283"
"echo-presentation","35","300553","0.0-35.0","5eaeba4b21554758db3e37a7","5fef55e628823a0076ec12ee","601f446d50c89e473ff20115","Mozilla/5.0 (Windows NT 10.0; Win64; x64) AppleWebKit/537.36 (KHTML, like Gecko) Chrome/87.0.4280.141 Safari/537.36 OPR/73.0.3856.344","v1","","","","","","","","-20,-10,0,10,20","media/audio/stims/spherical_300cm_s20_c20_cd-full_matched_a-20.wav","spherical","20","20","full","matched","-20","-20","996"
"echo-presentation","36","302451","0.0-36.0","5eaeba4b21554758db3e37a7","5fef55e628823a0076ec12ee","601f446d50c89e473ff20115","Mozilla/5.0 (Windows NT 10.0; Win64; x64) AppleWebKit/537.36 (KHTML, like Gecko) Chrome/87.0.4280.141 Safari/537.36 OPR/73.0.3856.344","v1","","","","","","","","-20,-10,0,10,20","media/audio/stims/spherical_300cm_s20_c20_cd-full_matched_a-20.wav","spherical","20","20","full","matched","-20","-10","1133"
"echo-presentation","37","304637","0.0-37.0","5eaeba4b21554758db3e37a7","5fef55e628823a0076ec12ee","601f446d50c89e473ff20115","Mozilla/5.0 (Windows NT 10.0; Win64; x64) AppleWebKit/537.36 (KHTML, like Gecko) Chrome/87.0.4280.141 Safari/537.36 OPR/73.0.3856.344","v1","","","","","","","","-20,-10,0,10,20","media/audio/stims/spherical_300cm_s20_c20_cd-full_matched_a-10.wav","spherical","20","20","full","matched","-10","0","1298"
"echo-presentation","38","306567","0.0-38.0","5eaeba4b21554758db3e37a7","5fef55e628823a0076ec12ee","601f446d50c89e473ff20115","Mozilla/5.0 (Windows NT 10.0; Win64; x64) AppleWebKit/537.36 (KHTML, like Gecko) Chrome/87.0.4280.141 Safari/537.36 OPR/73.0.3856.344","v1","","","","","","","","-20,-10,0,10,20","media/audio/stims/spherical_300cm_s20_c20_cd-full_matched_a-10.wav","spherical","20","20","full","matched","-10","-20","1081"
"echo-presentation","39","308596","0.0-39.0","5eaeba4b21554758db3e37a7","5fef55e628823a0076ec12ee","601f446d50c89e473ff20115","Mozilla/5.0 (Windows NT 10.0; Win64; x64) AppleWebKit/537.36 (KHTML, like Gecko) Chrome/87.0.4280.141 Safari/537.36 OPR/73.0.3856.344","v1","","","","","","","","-20,-10,0,10,20","media/audio/stims/spherical_300cm_s20_c20_cd-full_matched_a-10.wav","spherical","20","20","full","matched","-10","-10","1173"
"echo-presentation","40","310774","0.0-40.0","5eaeba4b21554758db3e37a7","5fef55e628823a0076ec12ee","601f446d50c89e473ff20115","Mozilla/5.0 (Windows NT 10.0; Win64; x64) AppleWebKit/537.36 (KHTML, like Gecko) Chrome/87.0.4280.141 Safari/537.36 OPR/73.0.3856.344","v1","","","","","","","","-20,-10,0,10,20","media/audio/stims/spherical_300cm_s20_c20_cd-full_matched_a0.wav","spherical","20","20","full","matched","0","-10","1213"
"echo-presentation","41","313265","0.0-41.0","5eaeba4b21554758db3e37a7","5fef55e628823a0076ec12ee","601f446d50c89e473ff20115","Mozilla/5.0 (Windows NT 10.0; Win64; x64) AppleWebKit/537.36 (KHTML, like Gecko) Chrome/87.0.4280.141 Safari/537.36 OPR/73.0.3856.344","v1","","","","","","","","-20,-10,0,10,20","media/audio/stims/spherical_300cm_s20_c20_cd-full_matched_a20.wav","spherical","20","20","full","matched","20","10","1196"
"echo-presentation","42","315026","0.0-42.0","5eaeba4b21554758db3e37a7","5fef55e628823a0076ec12ee","601f446d50c89e473ff20115","Mozilla/5.0 (Windows NT 10.0; Win64; x64) AppleWebKit/537.36 (KHTML, like Gecko) Chrome/87.0.4280.141 Safari/537.36 OPR/73.0.3856.344","v1","","","","","","","","-20,-10,0,10,20","media/audio/stims/spherical_300cm_s20_c20_cd-full_matched_a-20.wav","spherical","20","20","full","matched","-20","-10","1013"
"echo-presentation","43","317010","0.0-43.0","5eaeba4b21554758db3e37a7","5fef55e628823a0076ec12ee","601f446d50c89e473ff20115","Mozilla/5.0 (Windows NT 10.0; Win64; x64) AppleWebKit/537.36 (KHTML, like Gecko) Chrome/87.0.4280.141 Safari/537.36 OPR/73.0.3856.344","v1","","","","","","","","-20,-10,0,10,20","media/audio/stims/spherical_300cm_s20_c20_cd-full_matched_a-10.wav","spherical","20","20","full","matched","-10","-10","1093"
"echo-presentation","44","319116","0.0-44.0","5eaeba4b21554758db3e37a7","5fef55e628823a0076ec12ee","601f446d50c89e473ff20115","Mozilla/5.0 (Windows NT 10.0; Win64; x64) AppleWebKit/537.36 (KHTML, like Gecko) Chrome/87.0.4280.141 Safari/537.36 OPR/73.0.3856.344","v1","","","","","","","","-20,-10,0,10,20","media/audio/stims/spherical_300cm_s20_c20_cd-full_matched_a10.wav","spherical","20","20","full","matched","10","10","1356"
"echo-presentation","45","321013","0.0-45.0","5eaeba4b21554758db3e37a7","5fef55e628823a0076ec12ee","601f446d50c89e473ff20115","Mozilla/5.0 (Windows NT 10.0; Win64; x64) AppleWebKit/537.36 (KHTML, like Gecko) Chrome/87.0.4280.141 Safari/537.36 OPR/73.0.3856.344","v1","","","","","","","","-20,-10,0,10,20","media/audio/stims/spherical_300cm_s20_c20_cd-full_matched_a20.wav","spherical","20","20","full","matched","20","10","1190"
"echo-presentation","46","322909","0.0-46.0","5eaeba4b21554758db3e37a7","5fef55e628823a0076ec12ee","601f446d50c89e473ff20115","Mozilla/5.0 (Windows NT 10.0; Win64; x64) AppleWebKit/537.36 (KHTML, like Gecko) Chrome/87.0.4280.141 Safari/537.36 OPR/73.0.3856.344","v1","","","","","","","","-20,-10,0,10,20","media/audio/stims/spherical_300cm_s20_c20_cd-full_matched_a10.wav","spherical","20","20","full","matched","10","10","1133"
"echo-presentation","47","325158","0.0-47.0","5eaeba4b21554758db3e37a7","5fef55e628823a0076ec12ee","601f446d50c89e473ff20115","Mozilla/5.0 (Windows NT 10.0; Win64; x64) AppleWebKit/537.36 (KHTML, like Gecko) Chrome/87.0.4280.141 Safari/537.36 OPR/73.0.3856.344","v1","","","","","","","","-20,-10,0,10,20","media/audio/stims/spherical_300cm_s20_c20_cd-full_matched_a0.wav","spherical","20","20","full","matched","0","0","1476"
"echo-presentation","48","326929","0.0-48.0","5eaeba4b21554758db3e37a7","5fef55e628823a0076ec12ee","601f446d50c89e473ff20115","Mozilla/5.0 (Windows NT 10.0; Win64; x64) AppleWebKit/537.36 (KHTML, like Gecko) Chrome/87.0.4280.141 Safari/537.36 OPR/73.0.3856.344","v1","","","","","","","","-20,-10,0,10,20","media/audio/stims/spherical_300cm_s20_c20_cd-full_matched_a-20.wav","spherical","20","20","full","matched","-20","-10","985"
"echo-presentation","49","328464","0.0-49.0","5eaeba4b21554758db3e37a7","5fef55e628823a0076ec12ee","601f446d50c89e473ff20115","Mozilla/5.0 (Windows NT 10.0; Win64; x64) AppleWebKit/537.36 (KHTML, like Gecko) Chrome/87.0.4280.141 Safari/537.36 OPR/73.0.3856.344","v1","","","","","","","","-20,-10,0,10,20","media/audio/stims/spherical_300cm_s20_c20_cd-full_matched_a20.wav","spherical","20","20","full","matched","20","10","905"
"block-bookend","50","329178","0.0-50.0","5eaeba4b21554758db3e37a7","5fef55e628823a0076ec12ee","601f446d50c89e473ff20115","Mozilla/5.0 (Windows NT 10.0; Win64; x64) AppleWebKit/537.36 (KHTML, like Gecko) Chrome/87.0.4280.141 Safari/537.36 OPR/73.0.3856.344","v1","","","","","","","","","","","","","","","","",""
"block-bookend","51","333941","0.0-51.0","5eaeba4b21554758db3e37a7","5fef55e628823a0076ec12ee","601f446d50c89e473ff20115","Mozilla/5.0 (Windows NT 10.0; Win64; x64) AppleWebKit/537.36 (KHTML, like Gecko) Chrome/87.0.4280.141 Safari/537.36 OPR/73.0.3856.344","v1","","","","","","","","","","","","","","","","",""
"echo-presentation","52","339411","0.0-52.0","5eaeba4b21554758db3e37a7","5fef55e628823a0076ec12ee","601f446d50c89e473ff20115","Mozilla/5.0 (Windows NT 10.0; Win64; x64) AppleWebKit/537.36 (KHTML, like Gecko) Chrome/87.0.4280.141 Safari/537.36 OPR/73.0.3856.344","v1","","","","","","","","-80,-70,-60,-50,-40","media/audio/stims/spherical_300cm_s20_c20_cd-full_matched_a-50.wav","spherical","20","20","full","matched","-50","-80","3658"
"echo-presentation","53","342074","0.0-53.0","5eaeba4b21554758db3e37a7","5fef55e628823a0076ec12ee","601f446d50c89e473ff20115","Mozilla/5.0 (Windows NT 10.0; Win64; x64) AppleWebKit/537.36 (KHTML, like Gecko) Chrome/87.0.4280.141 Safari/537.36 OPR/73.0.3856.344","v1","","","","","","","","-80,-70,-60,-50,-40","media/audio/stims/spherical_300cm_s20_c20_cd-full_matched_a-50.wav","spherical","20","20","full","matched","-50","-80","1167"
"echo-presentation","54","344013","0.0-54.0","5eaeba4b21554758db3e37a7","5fef55e628823a0076ec12ee","601f446d50c89e473ff20115","Mozilla/5.0 (Windows NT 10.0; Win64; x64) AppleWebKit/537.36 (KHTML, like Gecko) Chrome/87.0.4280.141 Safari/537.36 OPR/73.0.3856.344","v1","","","","","","","","-80,-70,-60,-50,-40","media/audio/stims/spherical_300cm_s20_c20_cd-full_matched_a-70.wav","spherical","20","20","full","matched","-70","-80","1110"
"echo-presentation","55","345780","0.0-55.0","5eaeba4b21554758db3e37a7","5fef55e628823a0076ec12ee","601f446d50c89e473ff20115","Mozilla/5.0 (Windows NT 10.0; Win64; x64) AppleWebKit/537.36 (KHTML, like Gecko) Chrome/87.0.4280.141 Safari/537.36 OPR/73.0.3856.344","v1","","","","","","","","-80,-70,-60,-50,-40","media/audio/stims/spherical_300cm_s20_c20_cd-full_matched_a-70.wav","spherical","20","20","full","matched","-70","-80","1076"
"echo-presentation","56","347976","0.0-56.0","5eaeba4b21554758db3e37a7","5fef55e628823a0076ec12ee","601f446d50c89e473ff20115","Mozilla/5.0 (Windows NT 10.0; Win64; x64) AppleWebKit/537.36 (KHTML, like Gecko) Chrome/87.0.4280.141 Safari/537.36 OPR/73.0.3856.344","v1","","","","","","","","-80,-70,-60,-50,-40","media/audio/stims/spherical_300cm_s20_c20_cd-full_matched_a-70.wav","spherical","20","20","full","matched","-70","-80","900"
"echo-presentation","57","349691","0.0-57.0","5eaeba4b21554758db3e37a7","5fef55e628823a0076ec12ee","601f446d50c89e473ff20115","Mozilla/5.0 (Windows NT 10.0; Win64; x64) AppleWebKit/537.36 (KHTML, like Gecko) Chrome/87.0.4280.141 Safari/537.36 OPR/73.0.3856.344","v1","","","","","","","","-80,-70,-60,-50,-40","media/audio/stims/spherical_300cm_s20_c20_cd-full_matched_a-50.wav","spherical","20","20","full","matched","-50","-80","894"
"echo-presentation","58","351294","0.0-58.0","5eaeba4b21554758db3e37a7","5fef55e628823a0076ec12ee","601f446d50c89e473ff20115","Mozilla/5.0 (Windows NT 10.0; Win64; x64) AppleWebKit/537.36 (KHTML, like Gecko) Chrome/87.0.4280.141 Safari/537.36 OPR/73.0.3856.344","v1","","","","","","","","-80,-70,-60,-50,-40","media/audio/stims/spherical_300cm_s20_c20_cd-full_matched_a-80.wav","spherical","20","20","full","matched","-80","-80","849"
"echo-presentation","59","352964","0.0-59.0","5eaeba4b21554758db3e37a7","5fef55e628823a0076ec12ee","601f446d50c89e473ff20115","Mozilla/5.0 (Windows NT 10.0; Win64; x64) AppleWebKit/537.36 (KHTML, like Gecko) Chrome/87.0.4280.141 Safari/537.36 OPR/73.0.3856.344","v1","","","","","","","","-80,-70,-60,-50,-40","media/audio/stims/spherical_300cm_s20_c20_cd-full_matched_a-60.wav","spherical","20","20","full","matched","-60","-80","899"
"echo-presentation","60","355065","0.0-60.0","5eaeba4b21554758db3e37a7","5fef55e628823a0076ec12ee","601f446d50c89e473ff20115","Mozilla/5.0 (Windows NT 10.0; Win64; x64) AppleWebKit/537.36 (KHTML, like Gecko) Chrome/87.0.4280.141 Safari/537.36 OPR/73.0.3856.344","v1","","","","","","","","-80,-70,-60,-50,-40","media/audio/stims/spherical_300cm_s20_c20_cd-full_matched_a-40.wav","spherical","20","20","full","matched","-40","-80","1344"
"echo-presentation","61","356665","0.0-61.0","5eaeba4b21554758db3e37a7","5fef55e628823a0076ec12ee","601f446d50c89e473ff20115","Mozilla/5.0 (Windows NT 10.0; Win64; x64) AppleWebKit/537.36 (KHTML, like Gecko) Chrome/87.0.4280.141 Safari/537.36 OPR/73.0.3856.344","v1","","","","","","","","-80,-70,-60,-50,-40","media/audio/stims/spherical_300cm_s20_c20_cd-full_matched_a-60.wav","spherical","20","20","full","matched","-60","-80","831"
"echo-presentation","62","358300","0.0-62.0","5eaeba4b21554758db3e37a7","5fef55e628823a0076ec12ee","601f446d50c89e473ff20115","Mozilla/5.0 (Windows NT 10.0; Win64; x64) AppleWebKit/537.36 (KHTML, like Gecko) Chrome/87.0.4280.141 Safari/537.36 OPR/73.0.3856.344","v1","","","","","","","","-80,-70,-60,-50,-40","media/audio/stims/spherical_300cm_s20_c20_cd-full_matched_a-50.wav","spherical","20","20","full","matched","-50","-80","870"
"echo-presentation","63","360009","0.0-63.0","5eaeba4b21554758db3e37a7","5fef55e628823a0076ec12ee","601f446d50c89e473ff20115","Mozilla/5.0 (Windows NT 10.0; Win64; x64) AppleWebKit/537.36 (KHTML, like Gecko) Chrome/87.0.4280.141 Safari/537.36 OPR/73.0.3856.344","v1","","","","","","","","-80,-70,-60,-50,-40","media/audio/stims/spherical_300cm_s20_c20_cd-full_matched_a-60.wav","spherical","20","20","full","matched","-60","-80","962"
"echo-presentation","64","361570","0.0-64.0","5eaeba4b21554758db3e37a7","5fef55e628823a0076ec12ee","601f446d50c89e473ff20115","Mozilla/5.0 (Windows NT 10.0; Win64; x64) AppleWebKit/537.36 (KHTML, like Gecko) Chrome/87.0.4280.141 Safari/537.36 OPR/73.0.3856.344","v1","","","","","","","","-80,-70,-60,-50,-40","media/audio/stims/spherical_300cm_s20_c20_cd-full_matched_a-40.wav","spherical","20","20","full","matched","-40","-80","814"
"echo-presentation","65","363117","0.0-65.0","5eaeba4b21554758db3e37a7","5fef55e628823a0076ec12ee","601f446d50c89e473ff20115","Mozilla/5.0 (Windows NT 10.0; Win64; x64) AppleWebKit/537.36 (KHTML, like Gecko) Chrome/87.0.4280.141 Safari/537.36 OPR/73.0.3856.344","v1","","","","","","","","-80,-70,-60,-50,-40","media/audio/stims/spherical_300cm_s20_c20_cd-full_matched_a-70.wav","spherical","20","20","full","matched","-70","-80","785"
"echo-presentation","66","364704","0.0-66.0","5eaeba4b21554758db3e37a7","5fef55e628823a0076ec12ee","601f446d50c89e473ff20115","Mozilla/5.0 (Windows NT 10.0; Win64; x64) AppleWebKit/537.36 (KHTML, like Gecko) Chrome/87.0.4280.141 Safari/537.36 OPR/73.0.3856.344","v1","","","","","","","","-80,-70,-60,-50,-40","media/audio/stims/spherical_300cm_s20_c20_cd-full_matched_a-40.wav","spherical","20","20","full","matched","-40","-80","911"
"echo-presentation","67","366382","0.0-67.0","5eaeba4b21554758db3e37a7","5fef55e628823a0076ec12ee","601f446d50c89e473ff20115","Mozilla/5.0 (Windows NT 10.0; Win64; x64) AppleWebKit/537.36 (KHTML, like Gecko) Chrome/87.0.4280.141 Safari/537.36 OPR/73.0.3856.344","v1","","","","","","","","-80,-70,-60,-50,-40","media/audio/stims/spherical_300cm_s20_c20_cd-full_matched_a-80.wav","spherical","20","20","full","matched","-80","-80","882"
"echo-presentation","68","368123","0.0-68.0","5eaeba4b21554758db3e37a7","5fef55e628823a0076ec12ee","601f446d50c89e473ff20115","Mozilla/5.0 (Windows NT 10.0; Win64; x64) AppleWebKit/537.36 (KHTML, like Gecko) Chrome/87.0.4280.141 Safari/537.36 OPR/73.0.3856.344","v1","","","","","","","","-80,-70,-60,-50,-40","media/audio/stims/spherical_300cm_s20_c20_cd-full_matched_a-80.wav","spherical","20","20","full","matched","-80","-80","951"
"echo-presentation","69","369731","0.0-69.0","5eaeba4b21554758db3e37a7","5fef55e628823a0076ec12ee","601f446d50c89e473ff20115","Mozilla/5.0 (Windows NT 10.0; Win64; x64) AppleWebKit/537.36 (KHTML, like Gecko) Chrome/87.0.4280.141 Safari/537.36 OPR/73.0.3856.344","v1","","","","","","","","-80,-70,-60,-50,-40","media/audio/stims/spherical_300cm_s20_c20_cd-full_matched_a-80.wav","spherical","20","20","full","matched","-80","-80","848"
"echo-presentation","70","371407","0.0-70.0","5eaeba4b21554758db3e37a7","5fef55e628823a0076ec12ee","601f446d50c89e473ff20115","Mozilla/5.0 (Windows NT 10.0; Win64; x64) AppleWebKit/537.36 (KHTML, like Gecko) Chrome/87.0.4280.141 Safari/537.36 OPR/73.0.3856.344","v1","","","","","","","","-80,-70,-60,-50,-40","media/audio/stims/spherical_300cm_s20_c20_cd-full_matched_a-60.wav","spherical","20","20","full","matched","-60","-80","973"
"echo-presentation","71","373123","0.0-71.0","5eaeba4b21554758db3e37a7","5fef55e628823a0076ec12ee","601f446d50c89e473ff20115","Mozilla/5.0 (Windows NT 10.0; Win64; x64) AppleWebKit/537.36 (KHTML, like Gecko) Chrome/87.0.4280.141 Safari/537.36 OPR/73.0.3856.344","v1","","","","","","","","-80,-70,-60,-50,-40","media/audio/stims/spherical_300cm_s20_c20_cd-full_matched_a-40.wav","spherical","20","20","full","matched","-40","-80","905"
"block-bookend","72","374115","0.0-72.0","5eaeba4b21554758db3e37a7","5fef55e628823a0076ec12ee","601f446d50c89e473ff20115","Mozilla/5.0 (Windows NT 10.0; Win64; x64) AppleWebKit/537.36 (KHTML, like Gecko) Chrome/87.0.4280.141 Safari/537.36 OPR/73.0.3856.344","v1","","","","","","","","","","","","","","","","",""
"block-bookend","73","381672","0.0-73.0","5eaeba4b21554758db3e37a7","5fef55e628823a0076ec12ee","601f446d50c89e473ff20115","Mozilla/5.0 (Windows NT 10.0; Win64; x64) AppleWebKit/537.36 (KHTML, like Gecko) Chrome/87.0.4280.141 Safari/537.36 OPR/73.0.3856.344","v1","","","","","","","","","","","","","","","","",""
"echo-presentation","74","386932","0.0-74.0","5eaeba4b21554758db3e37a7","5fef55e628823a0076ec12ee","601f446d50c89e473ff20115","Mozilla/5.0 (Windows NT 10.0; Win64; x64) AppleWebKit/537.36 (KHTML, like Gecko) Chrome/87.0.4280.141 Safari/537.36 OPR/73.0.3856.344","v1","","","","","","","","-80,-70,-60,-50,-40","media/audio/stims/spherical_300cm_s20_c20_cd-full_matched_a-40.wav","spherical","20","20","full","matched","-40","-70","2234"
"echo-presentation","75","389578","0.0-75.0","5eaeba4b21554758db3e37a7","5fef55e628823a0076ec12ee","601f446d50c89e473ff20115","Mozilla/5.0 (Windows NT 10.0; Win64; x64) AppleWebKit/537.36 (KHTML, like Gecko) Chrome/87.0.4280.141 Safari/537.36 OPR/73.0.3856.344","v1","","","","","","","","-80,-70,-60,-50,-40","media/audio/stims/spherical_300cm_s20_c20_cd-full_matched_a-40.wav","spherical","20","20","full","matched","-40","-80","1435"
"echo-presentation","76","391799","0.0-76.0","5eaeba4b21554758db3e37a7","5fef55e628823a0076ec12ee","601f446d50c89e473ff20115","Mozilla/5.0 (Windows NT 10.0; Win64; x64) AppleWebKit/537.36 (KHTML, like Gecko) Chrome/87.0.4280.141 Safari/537.36 OPR/73.0.3856.344","v1","","","","","","","","-80,-70,-60,-50,-40","media/audio/stims/spherical_300cm_s20_c20_cd-full_matched_a-70.wav","spherical","20","20","full","matched","-70","-80","958"
"echo-presentation","77","393649","0.0-77.0","5eaeba4b21554758db3e37a7","5fef55e628823a0076ec12ee","601f446d50c89e473ff20115","Mozilla/5.0 (Windows NT 10.0; Win64; x64) AppleWebKit/537.36 (KHTML, like Gecko) Chrome/87.0.4280.141 Safari/537.36 OPR/73.0.3856.344","v1","","","","","","","","-80,-70,-60,-50,-40","media/audio/stims/spherical_300cm_s20_c20_cd-full_matched_a-80.wav","spherical","20","20","full","matched","-80","-80","928"
"echo-presentation","78","395513","0.0-78.0","5eaeba4b21554758db3e37a7","5fef55e628823a0076ec12ee","601f446d50c89e473ff20115","Mozilla/5.0 (Windows NT 10.0; Win64; x64) AppleWebKit/537.36 (KHTML, like Gecko) Chrome/87.0.4280.141 Safari/537.36 OPR/73.0.3856.344","v1","","","","","","","","-80,-70,-60,-50,-40","media/audio/stims/spherical_300cm_s20_c20_cd-full_matched_a-50.wav","spherical","20","20","full","matched","-50","-80","1116"
"echo-presentation","79","397673","0.0-79.0","5eaeba4b21554758db3e37a7","5fef55e628823a0076ec12ee","601f446d50c89e473ff20115","Mozilla/5.0 (Windows NT 10.0; Win64; x64) AppleWebKit/537.36 (KHTML, like Gecko) Chrome/87.0.4280.141 Safari/537.36 OPR/73.0.3856.344","v1","","","","","","","","-80,-70,-60,-50,-40","media/audio/stims/spherical_300cm_s20_c20_cd-full_matched_a-80.wav","spherical","20","20","full","matched","-80","-80","1180"
"echo-presentation","80","399260","0.0-80.0","5eaeba4b21554758db3e37a7","5fef55e628823a0076ec12ee","601f446d50c89e473ff20115","Mozilla/5.0 (Windows NT 10.0; Win64; x64) AppleWebKit/537.36 (KHTML, like Gecko) Chrome/87.0.4280.141 Safari/537.36 OPR/73.0.3856.344","v1","","","","","","","","-80,-70,-60,-50,-40","media/audio/stims/spherical_300cm_s20_c20_cd-full_matched_a-40.wav","spherical","20","20","full","matched","-40","-80","845"
"echo-presentation","81","400865","0.0-81.0","5eaeba4b21554758db3e37a7","5fef55e628823a0076ec12ee","601f446d50c89e473ff20115","Mozilla/5.0 (Windows NT 10.0; Win64; x64) AppleWebKit/537.36 (KHTML, like Gecko) Chrome/87.0.4280.141 Safari/537.36 OPR/73.0.3856.344","v1","","","","","","","","-80,-70,-60,-50,-40","media/audio/stims/spherical_300cm_s20_c20_cd-full_matched_a-50.wav","spherical","20","20","full","matched","-50","-80","860"
"echo-presentation","82","402566","0.0-82.0","5eaeba4b21554758db3e37a7","5fef55e628823a0076ec12ee","601f446d50c89e473ff20115","Mozilla/5.0 (Windows NT 10.0; Win64; x64) AppleWebKit/537.36 (KHTML, like Gecko) Chrome/87.0.4280.141 Safari/537.36 OPR/73.0.3856.344","v1","","","","","","","","-80,-70,-60,-50,-40","media/audio/stims/spherical_300cm_s20_c20_cd-full_matched_a-60.wav","spherical","20","20","full","matched","-60","-80","950"
"echo-presentation","83","404232","0.0-83.0","5eaeba4b21554758db3e37a7","5fef55e628823a0076ec12ee","601f446d50c89e473ff20115","Mozilla/5.0 (Windows NT 10.0; Win64; x64) AppleWebKit/537.36 (KHTML, like Gecko) Chrome/87.0.4280.141 Safari/537.36 OPR/73.0.3856.344","v1","","","","","","","","-80,-70,-60,-50,-40","media/audio/stims/spherical_300cm_s20_c20_cd-full_matched_a-50.wav","spherical","20","20","full","matched","-50","-80","899"
"echo-presentation","84","406017","0.0-84.0","5eaeba4b21554758db3e37a7","5fef55e628823a0076ec12ee","601f446d50c89e473ff20115","Mozilla/5.0 (Windows NT 10.0; Win64; x64) AppleWebKit/537.36 (KHTML, like Gecko) Chrome/87.0.4280.141 Safari/537.36 OPR/73.0.3856.344","v1","","","","","","","","-80,-70,-60,-50,-40","media/audio/stims/spherical_300cm_s20_c20_cd-full_matched_a-80.wav","spherical","20","20","full","matched","-80","-70","1111"
"echo-presentation","85","407702","0.0-85.0","5eaeba4b21554758db3e37a7","5fef55e628823a0076ec12ee","601f446d50c89e473ff20115","Mozilla/5.0 (Windows NT 10.0; Win64; x64) AppleWebKit/537.36 (KHTML, like Gecko) Chrome/87.0.4280.141 Safari/537.36 OPR/73.0.3856.344","v1","","","","","","","","-80,-70,-60,-50,-40","media/audio/stims/spherical_300cm_s20_c20_cd-full_matched_a-60.wav","spherical","20","20","full","matched","-60","-70","973"
"echo-presentation","86","409379","0.0-86.0","5eaeba4b21554758db3e37a7","5fef55e628823a0076ec12ee","601f446d50c89e473ff20115","Mozilla/5.0 (Windows NT 10.0; Win64; x64) AppleWebKit/537.36 (KHTML, like Gecko) Chrome/87.0.4280.141 Safari/537.36 OPR/73.0.3856.344","v1","","","","","","","","-80,-70,-60,-50,-40","media/audio/stims/spherical_300cm_s20_c20_cd-full_matched_a-50.wav","spherical","20","20","full","matched","-50","-70","922"
"echo-presentation","87","411279","0.0-87.0","5eaeba4b21554758db3e37a7","5fef55e628823a0076ec12ee","601f446d50c89e473ff20115","Mozilla/5.0 (Windows NT 10.0; Win64; x64) AppleWebKit/537.36 (KHTML, like Gecko) Chrome/87.0.4280.141 Safari/537.36 OPR/73.0.3856.344","v1","","","","","","","","-80,-70,-60,-50,-40","media/audio/stims/spherical_300cm_s20_c20_cd-full_matched_a-40.wav","spherical","20","20","full","matched","-40","-70","1127"
"echo-presentation","88","412896","0.0-88.0","5eaeba4b21554758db3e37a7","5fef55e628823a0076ec12ee","601f446d50c89e473ff20115","Mozilla/5.0 (Windows NT 10.0; Win64; x64) AppleWebKit/537.36 (KHTML, like Gecko) Chrome/87.0.4280.141 Safari/537.36 OPR/73.0.3856.344","v1","","","","","","","","-80,-70,-60,-50,-40","media/audio/stims/spherical_300cm_s20_c20_cd-full_matched_a-70.wav","spherical","20","20","full","matched","-70","-70","933"
"echo-presentation","89","414542","0.0-89.0","5eaeba4b21554758db3e37a7","5fef55e628823a0076ec12ee","601f446d50c89e473ff20115","Mozilla/5.0 (Windows NT 10.0; Win64; x64) AppleWebKit/537.36 (KHTML, like Gecko) Chrome/87.0.4280.141 Safari/537.36 OPR/73.0.3856.344","v1","","","","","","","","-80,-70,-60,-50,-40","media/audio/stims/spherical_300cm_s20_c20_cd-full_matched_a-60.wav","spherical","20","20","full","matched","-60","-70","894"
"echo-presentation","90","416063","0.0-90.0","5eaeba4b21554758db3e37a7","5fef55e628823a0076ec12ee","601f446d50c89e473ff20115","Mozilla/5.0 (Windows NT 10.0; Win64; x64) AppleWebKit/537.36 (KHTML, like Gecko) Chrome/87.0.4280.141 Safari/537.36 OPR/73.0.3856.344","v1","","","","","","","","-80,-70,-60,-50,-40","media/audio/stims/spherical_300cm_s20_c20_cd-full_matched_a-70.wav","spherical","20","20","full","matched","-70","-70","774"
"echo-presentation","91","417509","0.0-91.0","5eaeba4b21554758db3e37a7","5fef55e628823a0076ec12ee","601f446d50c89e473ff20115","Mozilla/5.0 (Windows NT 10.0; Win64; x64) AppleWebKit/537.36 (KHTML, like Gecko) Chrome/87.0.4280.141 Safari/537.36 OPR/73.0.3856.344","v1","","","","","","","","-80,-70,-60,-50,-40","media/audio/stims/spherical_300cm_s20_c20_cd-full_matched_a-70.wav","spherical","20","20","full","matched","-70","-70","763"
"echo-presentation","92","418835","0.0-92.0","5eaeba4b21554758db3e37a7","5fef55e628823a0076ec12ee","601f446d50c89e473ff20115","Mozilla/5.0 (Windows NT 10.0; Win64; x64) AppleWebKit/537.36 (KHTML, like Gecko) Chrome/87.0.4280.141 Safari/537.36 OPR/73.0.3856.344","v1","","","","","","","","-80,-70,-60,-50,-40","media/audio/stims/spherical_300cm_s20_c20_cd-full_matched_a-60.wav","spherical","20","20","full","matched","-60","-70","614"
"echo-presentation","93","420412","0.0-93.0","5eaeba4b21554758db3e37a7","5fef55e628823a0076ec12ee","601f446d50c89e473ff20115","Mozilla/5.0 (Windows NT 10.0; Win64; x64) AppleWebKit/537.36 (KHTML, like Gecko) Chrome/87.0.4280.141 Safari/537.36 OPR/73.0.3856.344","v1","","","","","","","","-80,-70,-60,-50,-40","media/audio/stims/spherical_300cm_s20_c20_cd-full_matched_a-80.wav","spherical","20","20","full","matched","-80","-80","774"
"block-bookend","94","421120","0.0-94.0","5eaeba4b21554758db3e37a7","5fef55e628823a0076ec12ee","601f446d50c89e473ff20115","Mozilla/5.0 (Windows NT 10.0; Win64; x64) AppleWebKit/537.36 (KHTML, like Gecko) Chrome/87.0.4280.141 Safari/537.36 OPR/73.0.3856.344","v1","","","","","","","","","","","","","","","","",""
"block-bookend","95","425535","0.0-95.0","5eaeba4b21554758db3e37a7","5fef55e628823a0076ec12ee","601f446d50c89e473ff20115","Mozilla/5.0 (Windows NT 10.0; Win64; x64) AppleWebKit/537.36 (KHTML, like Gecko) Chrome/87.0.4280.141 Safari/537.36 OPR/73.0.3856.344","v1","","","","","","","","","","","","","","","","",""
"echo-presentation","96","427672","0.0-96.0","5eaeba4b21554758db3e37a7","5fef55e628823a0076ec12ee","601f446d50c89e473ff20115","Mozilla/5.0 (Windows NT 10.0; Win64; x64) AppleWebKit/537.36 (KHTML, like Gecko) Chrome/87.0.4280.141 Safari/537.36 OPR/73.0.3856.344","v1","","","","","","","","40,50,60,70,80","media/audio/stims/spherical_300cm_s20_c20_cd-full_matched_a40.wav","spherical","20","20","full","matched","40","60","956"
"echo-presentation","97","430283","0.0-97.0","5eaeba4b21554758db3e37a7","5fef55e628823a0076ec12ee","601f446d50c89e473ff20115","Mozilla/5.0 (Windows NT 10.0; Win64; x64) AppleWebKit/537.36 (KHTML, like Gecko) Chrome/87.0.4280.141 Safari/537.36 OPR/73.0.3856.344","v1","","","","","","","","40,50,60,70,80","media/audio/stims/spherical_300cm_s20_c20_cd-full_matched_a80.wav","spherical","20","20","full","matched","80","60","990"
"echo-presentation","98","432069","0.0-98.0","5eaeba4b21554758db3e37a7","5fef55e628823a0076ec12ee","601f446d50c89e473ff20115","Mozilla/5.0 (Windows NT 10.0; Win64; x64) AppleWebKit/537.36 (KHTML, like Gecko) Chrome/87.0.4280.141 Safari/537.36 OPR/73.0.3856.344","v1","","","","","","","","40,50,60,70,80","media/audio/stims/spherical_300cm_s20_c20_cd-full_matched_a80.wav","spherical","20","20","full","matched","80","80","813"
"echo-presentation","99","433734","0.0-99.0","5eaeba4b21554758db3e37a7","5fef55e628823a0076ec12ee","601f446d50c89e473ff20115","Mozilla/5.0 (Windows NT 10.0; Win64; x64) AppleWebKit/537.36 (KHTML, like Gecko) Chrome/87.0.4280.141 Safari/537.36 OPR/73.0.3856.344","v1","","","","","","","","40,50,60,70,80","media/audio/stims/spherical_300cm_s20_c20_cd-full_matched_a50.wav","spherical","20","20","full","matched","50","80","894"
"echo-presentation","100","435400","0.0-100.0","5eaeba4b21554758db3e37a7","5fef55e628823a0076ec12ee","601f446d50c89e473ff20115","Mozilla/5.0 (Windows NT 10.0; Win64; x64) AppleWebKit/537.36 (KHTML, like Gecko) Chrome/87.0.4280.141 Safari/537.36 OPR/73.0.3856.344","v1","","","","","","","","40,50,60,70,80","media/audio/stims/spherical_300cm_s20_c20_cd-full_matched_a50.wav","spherical","20","20","full","matched","50","80","819"
"echo-presentation","101","436862","0.0-101.0","5eaeba4b21554758db3e37a7","5fef55e628823a0076ec12ee","601f446d50c89e473ff20115","Mozilla/5.0 (Windows NT 10.0; Win64; x64) AppleWebKit/537.36 (KHTML, like Gecko) Chrome/87.0.4280.141 Safari/537.36 OPR/73.0.3856.344","v1","","","","","","","","40,50,60,70,80","media/audio/stims/spherical_300cm_s20_c20_cd-full_matched_a70.wav","spherical","20","20","full","matched","70","80","744"
"echo-presentation","102","438417","0.0-102.0","5eaeba4b21554758db3e37a7","5fef55e628823a0076ec12ee","601f446d50c89e473ff20115","Mozilla/5.0 (Windows NT 10.0; Win64; x64) AppleWebKit/537.36 (KHTML, like Gecko) Chrome/87.0.4280.141 Safari/537.36 OPR/73.0.3856.344","v1","","","","","","","","40,50,60,70,80","media/audio/stims/spherical_300cm_s20_c20_cd-full_matched_a70.wav","spherical","20","20","full","matched","70","80","831"
"echo-presentation","103","439873","0.0-103.0","5eaeba4b21554758db3e37a7","5fef55e628823a0076ec12ee","601f446d50c89e473ff20115","Mozilla/5.0 (Windows NT 10.0; Win64; x64) AppleWebKit/537.36 (KHTML, like Gecko) Chrome/87.0.4280.141 Safari/537.36 OPR/73.0.3856.344","v1","","","","","","","","40,50,60,70,80","media/audio/stims/spherical_300cm_s20_c20_cd-full_matched_a60.wav","spherical","20","20","full","matched","60","80","757"
"echo-presentation","104","441183","0.0-104.0","5eaeba4b21554758db3e37a7","5fef55e628823a0076ec12ee","601f446d50c89e473ff20115","Mozilla/5.0 (Windows NT 10.0; Win64; x64) AppleWebKit/537.36 (KHTML, like Gecko) Chrome/87.0.4280.141 Safari/537.36 OPR/73.0.3856.344","v1","","","","","","","","40,50,60,70,80","media/audio/stims/spherical_300cm_s20_c20_cd-full_matched_a60.wav","spherical","20","20","full","matched","60","80","665"
"echo-presentation","105","442688","0.0-105.0","5eaeba4b21554758db3e37a7","5fef55e628823a0076ec12ee","601f446d50c89e473ff20115","Mozilla/5.0 (Windows NT 10.0; Win64; x64) AppleWebKit/537.36 (KHTML, like Gecko) Chrome/87.0.4280.141 Safari/537.36 OPR/73.0.3856.344","v1","","","","","","","","40,50,60,70,80","media/audio/stims/spherical_300cm_s20_c20_cd-full_matched_a80.wav","spherical","20","20","full","matched","80","80","780"
"echo-presentation","106","444100","0.0-106.0","5eaeba4b21554758db3e37a7","5fef55e628823a0076ec12ee","601f446d50c89e473ff20115","Mozilla/5.0 (Windows NT 10.0; Win64; x64) AppleWebKit/537.36 (KHTML, like Gecko) Chrome/87.0.4280.141 Safari/537.36 OPR/73.0.3856.344","v1","","","","","","","","40,50,60,70,80","media/audio/stims/spherical_300cm_s20_c20_cd-full_matched_a40.wav","spherical","20","20","full","matched","40","80","728"
"echo-presentation","107","445479","0.0-107.0","5eaeba4b21554758db3e37a7","5fef55e628823a0076ec12ee","601f446d50c89e473ff20115","Mozilla/5.0 (Windows NT 10.0; Win64; x64) AppleWebKit/537.36 (KHTML, like Gecko) Chrome/87.0.4280.141 Safari/537.36 OPR/73.0.3856.344","v1","","","","","","","","40,50,60,70,80","media/audio/stims/spherical_300cm_s20_c20_cd-full_matched_a40.wav","spherical","20","20","full","matched","40","80","757"
"echo-presentation","108","446837","0.0-108.0","5eaeba4b21554758db3e37a7","5fef55e628823a0076ec12ee","601f446d50c89e473ff20115","Mozilla/5.0 (Windows NT 10.0; Win64; x64) AppleWebKit/537.36 (KHTML, like Gecko) Chrome/87.0.4280.141 Safari/537.36 OPR/73.0.3856.344","v1","","","","","","","","40,50,60,70,80","media/audio/stims/spherical_300cm_s20_c20_cd-full_matched_a40.wav","spherical","20","20","full","matched","40","80","659"
"echo-presentation","109","448168","0.0-109.0","5eaeba4b21554758db3e37a7","5fef55e628823a0076ec12ee","601f446d50c89e473ff20115","Mozilla/5.0 (Windows NT 10.0; Win64; x64) AppleWebKit/537.36 (KHTML, like Gecko) Chrome/87.0.4280.141 Safari/537.36 OPR/73.0.3856.344","v1","","","","","","","","40,50,60,70,80","media/audio/stims/spherical_300cm_s20_c20_cd-full_matched_a50.wav","spherical","20","20","full","matched","50","80","671"
"echo-presentation","110","449515","0.0-110.0","5eaeba4b21554758db3e37a7","5fef55e628823a0076ec12ee","601f446d50c89e473ff20115","Mozilla/5.0 (Windows NT 10.0; Win64; x64) AppleWebKit/537.36 (KHTML, like Gecko) Chrome/87.0.4280.141 Safari/537.36 OPR/73.0.3856.344","v1","","","","","","","","40,50,60,70,80","media/audio/stims/spherical_300cm_s20_c20_cd-full_matched_a60.wav","spherical","20","20","full","matched","60","80","758"
"echo-presentation","111","451895","0.0-111.0","5eaeba4b21554758db3e37a7","5fef55e628823a0076ec12ee","601f446d50c89e473ff20115","Mozilla/5.0 (Windows NT 10.0; Win64; x64) AppleWebKit/537.36 (KHTML, like Gecko) Chrome/87.0.4280.141 Safari/537.36 OPR/73.0.3856.344","v1","","","","","","","","40,50,60,70,80","media/audio/stims/spherical_300cm_s20_c20_cd-full_matched_a60.wav","spherical","20","20","full","matched","60","80","1071"
"echo-presentation","112","453560","0.0-112.0","5eaeba4b21554758db3e37a7","5fef55e628823a0076ec12ee","601f446d50c89e473ff20115","Mozilla/5.0 (Windows NT 10.0; Win64; x64) AppleWebKit/537.36 (KHTML, like Gecko) Chrome/87.0.4280.141 Safari/537.36 OPR/73.0.3856.344","v1","","","","","","","","40,50,60,70,80","media/audio/stims/spherical_300cm_s20_c20_cd-full_matched_a70.wav","spherical","20","20","full","matched","70","80","722"
"echo-presentation","113","455076","0.0-113.0","5eaeba4b21554758db3e37a7","5fef55e628823a0076ec12ee","601f446d50c89e473ff20115","Mozilla/5.0 (Windows NT 10.0; Win64; x64) AppleWebKit/537.36 (KHTML, like Gecko) Chrome/87.0.4280.141 Safari/537.36 OPR/73.0.3856.344","v1","","","","","","","","40,50,60,70,80","media/audio/stims/spherical_300cm_s20_c20_cd-full_matched_a80.wav","spherical","20","20","full","matched","80","80","750"
"echo-presentation","114","456572","0.0-114.0","5eaeba4b21554758db3e37a7","5fef55e628823a0076ec12ee","601f446d50c89e473ff20115","Mozilla/5.0 (Windows NT 10.0; Win64; x64) AppleWebKit/537.36 (KHTML, like Gecko) Chrome/87.0.4280.141 Safari/537.36 OPR/73.0.3856.344","v1","","","","","","","","40,50,60,70,80","media/audio/stims/spherical_300cm_s20_c20_cd-full_matched_a50.wav","spherical","20","20","full","matched","50","80","746"
"echo-presentation","115","458094","0.0-115.0","5eaeba4b21554758db3e37a7","5fef55e628823a0076ec12ee","601f446d50c89e473ff20115","Mozilla/5.0 (Windows NT 10.0; Win64; x64) AppleWebKit/537.36 (KHTML, like Gecko) Chrome/87.0.4280.141 Safari/537.36 OPR/73.0.3856.344","v1","","","","","","","","40,50,60,70,80","media/audio/stims/spherical_300cm_s20_c20_cd-full_matched_a70.wav","spherical","20","20","full","matched","70","80","780"
"block-bookend","116","458785","0.0-116.0","5eaeba4b21554758db3e37a7","5fef55e628823a0076ec12ee","601f446d50c89e473ff20115","Mozilla/5.0 (Windows NT 10.0; Win64; x64) AppleWebKit/537.36 (KHTML, like Gecko) Chrome/87.0.4280.141 Safari/537.36 OPR/73.0.3856.344","v1","","","","","","","","","","","","","","","","",""
"block-bookend","117","463273","0.0-117.0","5eaeba4b21554758db3e37a7","5fef55e628823a0076ec12ee","601f446d50c89e473ff20115","Mozilla/5.0 (Windows NT 10.0; Win64; x64) AppleWebKit/537.36 (KHTML, like Gecko) Chrome/87.0.4280.141 Safari/537.36 OPR/73.0.3856.344","v1","","","","","","","","","","","","","","","","",""
"echo-presentation","118","467248","0.0-118.0","5eaeba4b21554758db3e37a7","5fef55e628823a0076ec12ee","601f446d50c89e473ff20115","Mozilla/5.0 (Windows NT 10.0; Win64; x64) AppleWebKit/537.36 (KHTML, like Gecko) Chrome/87.0.4280.141 Safari/537.36 OPR/73.0.3856.344","v1","","","","","","","","40,50,60,70,80","media/audio/stims/spherical_300cm_s20_c20_cd-full_matched_a60.wav","spherical","20","20","full","matched","60","70","2883"
"echo-presentation","119","469104","0.0-119.0","5eaeba4b21554758db3e37a7","5fef55e628823a0076ec12ee","601f446d50c89e473ff20115","Mozilla/5.0 (Windows NT 10.0; Win64; x64) AppleWebKit/537.36 (KHTML, like Gecko) Chrome/87.0.4280.141 Safari/537.36 OPR/73.0.3856.344","v1","","","","","","","","40,50,60,70,80","media/audio/stims/spherical_300cm_s20_c20_cd-full_matched_a50.wav","spherical","20","20","full","matched","50","80","961"
"echo-presentation","120","472301","0.0-120.0","5eaeba4b21554758db3e37a7","5fef55e628823a0076ec12ee","601f446d50c89e473ff20115","Mozilla/5.0 (Windows NT 10.0; Win64; x64) AppleWebKit/537.36 (KHTML, like Gecko) Chrome/87.0.4280.141 Safari/537.36 OPR/73.0.3856.344","v1","","","","","","","","40,50,60,70,80","media/audio/stims/spherical_300cm_s20_c20_cd-full_matched_a40.wav","spherical","20","20","full","matched","40","70","2314"
"echo-presentation","121","473983","0.0-121.0","5eaeba4b21554758db3e37a7","5fef55e628823a0076ec12ee","601f446d50c89e473ff20115","Mozilla/5.0 (Windows NT 10.0; Win64; x64) AppleWebKit/537.36 (KHTML, like Gecko) Chrome/87.0.4280.141 Safari/537.36 OPR/73.0.3856.344","v1","","","","","","","","40,50,60,70,80","media/audio/stims/spherical_300cm_s20_c20_cd-full_matched_a60.wav","spherical","20","20","full","matched","60","80","814"
"echo-presentation","122","475455","0.0-122.0","5eaeba4b21554758db3e37a7","5fef55e628823a0076ec12ee","601f446d50c89e473ff20115","Mozilla/5.0 (Windows NT 10.0; Win64; x64) AppleWebKit/537.36 (KHTML, like Gecko) Chrome/87.0.4280.141 Safari/537.36 OPR/73.0.3856.344","v1","","","","","","","","40,50,60,70,80","media/audio/stims/spherical_300cm_s20_c20_cd-full_matched_a40.wav","spherical","20","20","full","matched","40","80","762"
"echo-presentation","123","477037","0.0-123.0","5eaeba4b21554758db3e37a7","5fef55e628823a0076ec12ee","601f446d50c89e473ff20115","Mozilla/5.0 (Windows NT 10.0; Win64; x64) AppleWebKit/537.36 (KHTML, like Gecko) Chrome/87.0.4280.141 Safari/537.36 OPR/73.0.3856.344","v1","","","","","","","","40,50,60,70,80","media/audio/stims/spherical_300cm_s20_c20_cd-full_matched_a80.wav","spherical","20","20","full","matched","80","80","882"
"echo-presentation","124","478517","0.0-124.0","5eaeba4b21554758db3e37a7","5fef55e628823a0076ec12ee","601f446d50c89e473ff20115","Mozilla/5.0 (Windows NT 10.0; Win64; x64) AppleWebKit/537.36 (KHTML, like Gecko) Chrome/87.0.4280.141 Safari/537.36 OPR/73.0.3856.344","v1","","","","","","","","40,50,60,70,80","media/audio/stims/spherical_300cm_s20_c20_cd-full_matched_a60.wav","spherical","20","20","full","matched","60","80","951"
"echo-presentation","125","480746","0.0-125.0","5eaeba4b21554758db3e37a7","5fef55e628823a0076ec12ee","601f446d50c89e473ff20115","Mozilla/5.0 (Windows NT 10.0; Win64; x64) AppleWebKit/537.36 (KHTML, like Gecko) Chrome/87.0.4280.141 Safari/537.36 OPR/73.0.3856.344","v1","","","","","","","","40,50,60,70,80","media/audio/stims/spherical_300cm_s20_c20_cd-full_matched_a50.wav","spherical","20","20","full","matched","50","80","916"
"echo-presentation","126","482319","0.0-126.0","5eaeba4b21554758db3e37a7","5fef55e628823a0076ec12ee","601f446d50c89e473ff20115","Mozilla/5.0 (Windows NT 10.0; Win64; x64) AppleWebKit/537.36 (KHTML, like Gecko) Chrome/87.0.4280.141 Safari/537.36 OPR/73.0.3856.344","v1","","","","","","","","40,50,60,70,80","media/audio/stims/spherical_300cm_s20_c20_cd-full_matched_a50.wav","spherical","20","20","full","matched","50","80","957"
"echo-presentation","127","484727","0.0-127.0","5eaeba4b21554758db3e37a7","5fef55e628823a0076ec12ee","601f446d50c89e473ff20115","Mozilla/5.0 (Windows NT 10.0; Win64; x64) AppleWebKit/537.36 (KHTML, like Gecko) Chrome/87.0.4280.141 Safari/537.36 OPR/73.0.3856.344","v1","","","","","","","","40,50,60,70,80","media/audio/stims/spherical_300cm_s20_c20_cd-full_matched_a50.wav","spherical","20","20","full","matched","50","80","1796"
"echo-presentation","128","486325","0.0-128.0","5eaeba4b21554758db3e37a7","5fef55e628823a0076ec12ee","601f446d50c89e473ff20115","Mozilla/5.0 (Windows NT 10.0; Win64; x64) AppleWebKit/537.36 (KHTML, like Gecko) Chrome/87.0.4280.141 Safari/537.36 OPR/73.0.3856.344","v1","","","","","","","","40,50,60,70,80","media/audio/stims/spherical_300cm_s20_c20_cd-full_matched_a70.wav","spherical","20","20","full","matched","70","80","825"
"echo-presentation","129","487839","0.0-129.0","5eaeba4b21554758db3e37a7","5fef55e628823a0076ec12ee","601f446d50c89e473ff20115","Mozilla/5.0 (Windows NT 10.0; Win64; x64) AppleWebKit/537.36 (KHTML, like Gecko) Chrome/87.0.4280.141 Safari/537.36 OPR/73.0.3856.344","v1","","","","","","","","40,50,60,70,80","media/audio/stims/spherical_300cm_s20_c20_cd-full_matched_a40.wav","spherical","20","20","full","matched","40","80","773"
"echo-presentation","130","489330","0.0-130.0","5eaeba4b21554758db3e37a7","5fef55e628823a0076ec12ee","601f446d50c89e473ff20115","Mozilla/5.0 (Windows NT 10.0; Win64; x64) AppleWebKit/537.36 (KHTML, like Gecko) Chrome/87.0.4280.141 Safari/537.36 OPR/73.0.3856.344","v1","","","","","","","","40,50,60,70,80","media/audio/stims/spherical_300cm_s20_c20_cd-full_matched_a80.wav","spherical","20","20","full","matched","80","80","813"
"echo-presentation","131","490703","0.0-131.0","5eaeba4b21554758db3e37a7","5fef55e628823a0076ec12ee","601f446d50c89e473ff20115","Mozilla/5.0 (Windows NT 10.0; Win64; x64) AppleWebKit/537.36 (KHTML, like Gecko) Chrome/87.0.4280.141 Safari/537.36 OPR/73.0.3856.344","v1","","","","","","","","40,50,60,70,80","media/audio/stims/spherical_300cm_s20_c20_cd-full_matched_a70.wav","spherical","20","20","full","matched","70","80","763"
"echo-presentation","132","492070","0.0-132.0","5eaeba4b21554758db3e37a7","5fef55e628823a0076ec12ee","601f446d50c89e473ff20115","Mozilla/5.0 (Windows NT 10.0; Win64; x64) AppleWebKit/537.36 (KHTML, like Gecko) Chrome/87.0.4280.141 Safari/537.36 OPR/73.0.3856.344","v1","","","","","","","","40,50,60,70,80","media/audio/stims/spherical_300cm_s20_c20_cd-full_matched_a70.wav","spherical","20","20","full","matched","70","80","700"
"echo-presentation","133","493975","0.0-133.0","5eaeba4b21554758db3e37a7","5fef55e628823a0076ec12ee","601f446d50c89e473ff20115","Mozilla/5.0 (Windows NT 10.0; Win64; x64) AppleWebKit/537.36 (KHTML, like Gecko) Chrome/87.0.4280.141 Safari/537.36 OPR/73.0.3856.344","v1","","","","","","","","40,50,60,70,80","media/audio/stims/spherical_300cm_s20_c20_cd-full_matched_a80.wav","spherical","20","20","full","matched","80","80","1103"
"echo-presentation","134","495813","0.0-134.0","5eaeba4b21554758db3e37a7","5fef55e628823a0076ec12ee","601f446d50c89e473ff20115","Mozilla/5.0 (Windows NT 10.0; Win64; x64) AppleWebKit/537.36 (KHTML, like Gecko) Chrome/87.0.4280.141 Safari/537.36 OPR/73.0.3856.344","v1","","","","","","","","40,50,60,70,80","media/audio/stims/spherical_300cm_s20_c20_cd-full_matched_a70.wav","spherical","20","20","full","matched","70","80","910"
"echo-presentation","135","497672","0.0-135.0","5eaeba4b21554758db3e37a7","5fef55e628823a0076ec12ee","601f446d50c89e473ff20115","Mozilla/5.0 (Windows NT 10.0; Win64; x64) AppleWebKit/537.36 (KHTML, like Gecko) Chrome/87.0.4280.141 Safari/537.36 OPR/73.0.3856.344","v1","","","","","","","","40,50,60,70,80","media/audio/stims/spherical_300cm_s20_c20_cd-full_matched_a60.wav","spherical","20","20","full","matched","60","80","620"
"echo-presentation","136","499930","0.0-136.0","5eaeba4b21554758db3e37a7","5fef55e628823a0076ec12ee","601f446d50c89e473ff20115","Mozilla/5.0 (Windows NT 10.0; Win64; x64) AppleWebKit/537.36 (KHTML, like Gecko) Chrome/87.0.4280.141 Safari/537.36 OPR/73.0.3856.344","v1","","","","","","","","40,50,60,70,80","media/audio/stims/spherical_300cm_s20_c20_cd-full_matched_a40.wav","spherical","20","20","full","matched","40","80","1521"
"echo-presentation","137","501820","0.0-137.0","5eaeba4b21554758db3e37a7","5fef55e628823a0076ec12ee","601f446d50c89e473ff20115","Mozilla/5.0 (Windows NT 10.0; Win64; x64) AppleWebKit/537.36 (KHTML, like Gecko) Chrome/87.0.4280.141 Safari/537.36 OPR/73.0.3856.344","v1","","","","","","","","40,50,60,70,80","media/audio/stims/spherical_300cm_s20_c20_cd-full_matched_a80.wav","spherical","20","20","full","matched","80","80","848"
"block-bookend","138","502659","0.0-138.0","5eaeba4b21554758db3e37a7","5fef55e628823a0076ec12ee","601f446d50c89e473ff20115","Mozilla/5.0 (Windows NT 10.0; Win64; x64) AppleWebKit/537.36 (KHTML, like Gecko) Chrome/87.0.4280.141 Safari/537.36 OPR/73.0.3856.344","v1","","","","","","","","","","","","","","","","",""
