"trial_type","trial_index","time_elapsed","internal_node_id","prolificPid","studyId","sessionId","userAgent","version","rt","stimulus","key_press","chosenKeyset","failureCount","testIndex","globalVolume","choices","filename","modelName","slowdown","compensation","compensationDescriptor","receiverOrientationType","azimuth","responseAzimuth","responseDelay"
"pavlovia","0","4","0.0-0.0","5fed8f05e766bb017fbccc79","5fef55e628823a0076ec12ee","601f447d4bbde5497f884150","Mozilla/5.0 (Windows NT 10.0; Win64; x64) AppleWebKit/537.36 (KHTML, like Gecko) Chrome/88.0.4324.146 Safari/537.36","v1","","","","","","","","","","","","","","","","",""
"html-keyboard-response","1","10219","0.0-1.0","5fed8f05e766bb017fbccc79","5fef55e628823a0076ec12ee","601f447d4bbde5497f884150","Mozilla/5.0 (Windows NT 10.0; Win64; x64) AppleWebKit/537.36 (KHTML, like Gecko) Chrome/88.0.4324.146 Safari/537.36","v1","10214.414999994915","<div><h1>Welcome!</h1><p>Press any key to continue.</p></div>","13","","","","","","","","","","","","","",""
"consent-form","2","22520","0.0-2.0","5fed8f05e766bb017fbccc79","5fef55e628823a0076ec12ee","601f447d4bbde5497f884150","Mozilla/5.0 (Windows NT 10.0; Win64; x64) AppleWebKit/537.36 (KHTML, like Gecko) Chrome/88.0.4324.146 Safari/537.36","v1","","","","","","","","","","","","","","","","",""
"keyset-select","3","51996","0.0-3.0","5fed8f05e766bb017fbccc79","5fef55e628823a0076ec12ee","601f447d4bbde5497f884150","Mozilla/5.0 (Windows NT 10.0; Win64; x64) AppleWebKit/537.36 (KHTML, like Gecko) Chrome/88.0.4324.146 Safari/537.36","v1","","","","left-hand","","","","","","","","","","","","",""
"headphone-check","4","141538","0.0-4.0","5fed8f05e766bb017fbccc79","5fef55e628823a0076ec12ee","601f447d4bbde5497f884150","Mozilla/5.0 (Windows NT 10.0; Win64; x64) AppleWebKit/537.36 (KHTML, like Gecko) Chrome/88.0.4324.146 Safari/537.36","v1","","","","","0","6","0.3","","","","","","","","","",""
"headphone-backwards-check","5","148230","0.0-5.0","5fed8f05e766bb017fbccc79","5fef55e628823a0076ec12ee","601f447d4bbde5497f884150","Mozilla/5.0 (Windows NT 10.0; Win64; x64) AppleWebKit/537.36 (KHTML, like Gecko) Chrome/88.0.4324.146 Safari/537.36","v1","","","","","0","","","","","","","","","","","",""
"training","6","213239","0.0-6.0","5fed8f05e766bb017fbccc79","5fef55e628823a0076ec12ee","601f447d4bbde5497f884150","Mozilla/5.0 (Windows NT 10.0; Win64; x64) AppleWebKit/537.36 (KHTML, like Gecko) Chrome/88.0.4324.146 Safari/537.36","v1","","","","","","","","","","","","","","","","",""
"block-bookend","7","225824","0.0-7.0","5fed8f05e766bb017fbccc79","5fef55e628823a0076ec12ee","601f447d4bbde5497f884150","Mozilla/5.0 (Windows NT 10.0; Win64; x64) AppleWebKit/537.36 (KHTML, like Gecko) Chrome/88.0.4324.146 Safari/537.36","v1","","","","","","","","","","","","","","","","",""
"echo-presentation","8","240160","0.0-8.0","5fed8f05e766bb017fbccc79","5fef55e628823a0076ec12ee","601f447d4bbde5497f884150","Mozilla/5.0 (Windows NT 10.0; Win64; x64) AppleWebKit/537.36 (KHTML, like Gecko) Chrome/88.0.4324.146 Safari/537.36","v1","","","","","","","","-20,-10,0,10,20","media/audio/stims/spherical_300cm_s20_c20_cd-full_matched_a0.wav","spherical","20","20","full","matched","0","0","10913"
"echo-presentation","9","243346","0.0-9.0","5fed8f05e766bb017fbccc79","5fef55e628823a0076ec12ee","601f447d4bbde5497f884150","Mozilla/5.0 (Windows NT 10.0; Win64; x64) AppleWebKit/537.36 (KHTML, like Gecko) Chrome/88.0.4324.146 Safari/537.36","v1","","","","","","","","-20,-10,0,10,20","media/audio/stims/spherical_300cm_s20_c20_cd-full_matched_a10.wav","spherical","20","20","full","matched","10","-10","1739"
"echo-presentation","10","248002","0.0-10.0","5fed8f05e766bb017fbccc79","5fef55e628823a0076ec12ee","601f447d4bbde5497f884150","Mozilla/5.0 (Windows NT 10.0; Win64; x64) AppleWebKit/537.36 (KHTML, like Gecko) Chrome/88.0.4324.146 Safari/537.36","v1","","","","","","","","-20,-10,0,10,20","media/audio/stims/spherical_300cm_s20_c20_cd-full_matched_a10.wav","spherical","20","20","full","matched","10","10","3509"
"echo-presentation","11","251802","0.0-11.0","5fed8f05e766bb017fbccc79","5fef55e628823a0076ec12ee","601f447d4bbde5497f884150","Mozilla/5.0 (Windows NT 10.0; Win64; x64) AppleWebKit/537.36 (KHTML, like Gecko) Chrome/88.0.4324.146 Safari/537.36","v1","","","","","","","","-20,-10,0,10,20","media/audio/stims/spherical_300cm_s20_c20_cd-full_matched_a10.wav","spherical","20","20","full","matched","10","-10","2547"
"echo-presentation","12","255060","0.0-12.0","5fed8f05e766bb017fbccc79","5fef55e628823a0076ec12ee","601f447d4bbde5497f884150","Mozilla/5.0 (Windows NT 10.0; Win64; x64) AppleWebKit/537.36 (KHTML, like Gecko) Chrome/88.0.4324.146 Safari/537.36","v1","","","","","","","","-20,-10,0,10,20","media/audio/stims/spherical_300cm_s20_c20_cd-full_matched_a20.wav","spherical","20","20","full","matched","20","-10","1894"
"echo-presentation","13","261631","0.0-13.0","5fed8f05e766bb017fbccc79","5fef55e628823a0076ec12ee","601f447d4bbde5497f884150","Mozilla/5.0 (Windows NT 10.0; Win64; x64) AppleWebKit/537.36 (KHTML, like Gecko) Chrome/88.0.4324.146 Safari/537.36","v1","","","","","","","","-20,-10,0,10,20","media/audio/stims/spherical_300cm_s20_c20_cd-full_matched_a0.wav","spherical","20","20","full","matched","0","0","5266"
"echo-presentation","14","266181","0.0-14.0","5fed8f05e766bb017fbccc79","5fef55e628823a0076ec12ee","601f447d4bbde5497f884150","Mozilla/5.0 (Windows NT 10.0; Win64; x64) AppleWebKit/537.36 (KHTML, like Gecko) Chrome/88.0.4324.146 Safari/537.36","v1","","","","","","","","-20,-10,0,10,20","media/audio/stims/spherical_300cm_s20_c20_cd-full_matched_a-20.wav","spherical","20","20","full","matched","-20","-10","2746"
"echo-presentation","15","270440","0.0-15.0","5fed8f05e766bb017fbccc79","5fef55e628823a0076ec12ee","601f447d4bbde5497f884150","Mozilla/5.0 (Windows NT 10.0; Win64; x64) AppleWebKit/537.36 (KHTML, like Gecko) Chrome/88.0.4324.146 Safari/537.36","v1","","","","","","","","-20,-10,0,10,20","media/audio/stims/spherical_300cm_s20_c20_cd-full_matched_a-10.wav","spherical","20","20","full","matched","-10","0","2647"
"echo-presentation","16","273313","0.0-16.0","5fed8f05e766bb017fbccc79","5fef55e628823a0076ec12ee","601f447d4bbde5497f884150","Mozilla/5.0 (Windows NT 10.0; Win64; x64) AppleWebKit/537.36 (KHTML, like Gecko) Chrome/88.0.4324.146 Safari/537.36","v1","","","","","","","","-20,-10,0,10,20","media/audio/stims/spherical_300cm_s20_c20_cd-full_matched_a-20.wav","spherical","20","20","full","matched","-20","-20","1555"
"echo-presentation","17","276260","0.0-17.0","5fed8f05e766bb017fbccc79","5fef55e628823a0076ec12ee","601f447d4bbde5497f884150","Mozilla/5.0 (Windows NT 10.0; Win64; x64) AppleWebKit/537.36 (KHTML, like Gecko) Chrome/88.0.4324.146 Safari/537.36","v1","","","","","","","","-20,-10,0,10,20","media/audio/stims/spherical_300cm_s20_c20_cd-full_matched_a-10.wav","spherical","20","20","full","matched","-10","-10","1613"
"echo-presentation","18","279880","0.0-18.0","5fed8f05e766bb017fbccc79","5fef55e628823a0076ec12ee","601f447d4bbde5497f884150","Mozilla/5.0 (Windows NT 10.0; Win64; x64) AppleWebKit/537.36 (KHTML, like Gecko) Chrome/88.0.4324.146 Safari/537.36","v1","","","","","","","","-20,-10,0,10,20","media/audio/stims/spherical_300cm_s20_c20_cd-full_matched_a-10.wav","spherical","20","20","full","matched","-10","10","2587"
"echo-presentation","19","283262","0.0-19.0","5fed8f05e766bb017fbccc79","5fef55e628823a0076ec12ee","601f447d4bbde5497f884150","Mozilla/5.0 (Windows NT 10.0; Win64; x64) AppleWebKit/537.36 (KHTML, like Gecko) Chrome/88.0.4324.146 Safari/537.36","v1","","","","","","","","-20,-10,0,10,20","media/audio/stims/spherical_300cm_s20_c20_cd-full_matched_a-10.wav","spherical","20","20","full","matched","-10","10","2148"
"echo-presentation","20","286588","0.0-20.0","5fed8f05e766bb017fbccc79","5fef55e628823a0076ec12ee","601f447d4bbde5497f884150","Mozilla/5.0 (Windows NT 10.0; Win64; x64) AppleWebKit/537.36 (KHTML, like Gecko) Chrome/88.0.4324.146 Safari/537.36","v1","","","","","","","","-20,-10,0,10,20","media/audio/stims/spherical_300cm_s20_c20_cd-full_matched_a0.wav","spherical","20","20","full","matched","0","20","2207"
"echo-presentation","21","289656","0.0-21.0","5fed8f05e766bb017fbccc79","5fef55e628823a0076ec12ee","601f447d4bbde5497f884150","Mozilla/5.0 (Windows NT 10.0; Win64; x64) AppleWebKit/537.36 (KHTML, like Gecko) Chrome/88.0.4324.146 Safari/537.36","v1","","","","","","","","-20,-10,0,10,20","media/audio/stims/spherical_300cm_s20_c20_cd-full_matched_a-20.wav","spherical","20","20","full","matched","-20","-10","1851"
"echo-presentation","22","292700","0.0-22.0","5fed8f05e766bb017fbccc79","5fef55e628823a0076ec12ee","601f447d4bbde5497f884150","Mozilla/5.0 (Windows NT 10.0; Win64; x64) AppleWebKit/537.36 (KHTML, like Gecko) Chrome/88.0.4324.146 Safari/537.36","v1","","","","","","","","-20,-10,0,10,20","media/audio/stims/spherical_300cm_s20_c20_cd-full_matched_a20.wav","spherical","20","20","full","matched","20","0","2001"
"echo-presentation","23","295789","0.0-23.0","5fed8f05e766bb017fbccc79","5fef55e628823a0076ec12ee","601f447d4bbde5497f884150","Mozilla/5.0 (Windows NT 10.0; Win64; x64) AppleWebKit/537.36 (KHTML, like Gecko) Chrome/88.0.4324.146 Safari/537.36","v1","","","","","","","","-20,-10,0,10,20","media/audio/stims/spherical_300cm_s20_c20_cd-full_matched_a10.wav","spherical","20","20","full","matched","10","20","1779"
"echo-presentation","24","298833","0.0-24.0","5fed8f05e766bb017fbccc79","5fef55e628823a0076ec12ee","601f447d4bbde5497f884150","Mozilla/5.0 (Windows NT 10.0; Win64; x64) AppleWebKit/537.36 (KHTML, like Gecko) Chrome/88.0.4324.146 Safari/537.36","v1","","","","","","","","-20,-10,0,10,20","media/audio/stims/spherical_300cm_s20_c20_cd-full_matched_a-20.wav","spherical","20","20","full","matched","-20","-20","1697"
"echo-presentation","25","306095","0.0-25.0","5fed8f05e766bb017fbccc79","5fef55e628823a0076ec12ee","601f447d4bbde5497f884150","Mozilla/5.0 (Windows NT 10.0; Win64; x64) AppleWebKit/537.36 (KHTML, like Gecko) Chrome/88.0.4324.146 Safari/537.36","v1","","","","","","","","-20,-10,0,10,20","media/audio/stims/spherical_300cm_s20_c20_cd-full_matched_a20.wav","spherical","20","20","full","matched","20","-10","5949"
"echo-presentation","26","309342","0.0-26.0","5fed8f05e766bb017fbccc79","5fef55e628823a0076ec12ee","601f447d4bbde5497f884150","Mozilla/5.0 (Windows NT 10.0; Win64; x64) AppleWebKit/537.36 (KHTML, like Gecko) Chrome/88.0.4324.146 Safari/537.36","v1","","","","","","","","-20,-10,0,10,20","media/audio/stims/spherical_300cm_s20_c20_cd-full_matched_a0.wav","spherical","20","20","full","matched","0","-10","1685"
"echo-presentation","27","321404","0.0-27.0","5fed8f05e766bb017fbccc79","5fef55e628823a0076ec12ee","601f447d4bbde5497f884150","Mozilla/5.0 (Windows NT 10.0; Win64; x64) AppleWebKit/537.36 (KHTML, like Gecko) Chrome/88.0.4324.146 Safari/537.36","v1","","","","","","","","-20,-10,0,10,20","media/audio/stims/spherical_300cm_s20_c20_cd-full_matched_a20.wav","spherical","20","20","full","matched","20","0","10682"
"block-bookend","28","324752","0.0-28.0","5fed8f05e766bb017fbccc79","5fef55e628823a0076ec12ee","601f447d4bbde5497f884150","Mozilla/5.0 (Windows NT 10.0; Win64; x64) AppleWebKit/537.36 (KHTML, like Gecko) Chrome/88.0.4324.146 Safari/537.36","v1","","","","","","","","","","","","","","","","",""
"block-bookend","29","337571","0.0-29.0","5fed8f05e766bb017fbccc79","5fef55e628823a0076ec12ee","601f447d4bbde5497f884150","Mozilla/5.0 (Windows NT 10.0; Win64; x64) AppleWebKit/537.36 (KHTML, like Gecko) Chrome/88.0.4324.146 Safari/537.36","v1","","","","","","","","","","","","","","","","",""
"echo-presentation","30","340816","0.0-30.0","5fed8f05e766bb017fbccc79","5fef55e628823a0076ec12ee","601f447d4bbde5497f884150","Mozilla/5.0 (Windows NT 10.0; Win64; x64) AppleWebKit/537.36 (KHTML, like Gecko) Chrome/88.0.4324.146 Safari/537.36","v1","","","","","","","","-20,-10,0,10,20","media/audio/stims/spherical_300cm_s20_c20_cd-full_matched_a-20.wav","spherical","20","20","full","matched","-20","-20","1464"
"echo-presentation","31","344043","0.0-31.0","5fed8f05e766bb017fbccc79","5fef55e628823a0076ec12ee","601f447d4bbde5497f884150","Mozilla/5.0 (Windows NT 10.0; Win64; x64) AppleWebKit/537.36 (KHTML, like Gecko) Chrome/88.0.4324.146 Safari/537.36","v1","","","","","","","","-20,-10,0,10,20","media/audio/stims/spherical_300cm_s20_c20_cd-full_matched_a20.wav","spherical","20","20","full","matched","20","10","1872"
"echo-presentation","32","346791","0.0-32.0","5fed8f05e766bb017fbccc79","5fef55e628823a0076ec12ee","601f447d4bbde5497f884150","Mozilla/5.0 (Windows NT 10.0; Win64; x64) AppleWebKit/537.36 (KHTML, like Gecko) Chrome/88.0.4324.146 Safari/537.36","v1","","","","","","","","-20,-10,0,10,20","media/audio/stims/spherical_300cm_s20_c20_cd-full_matched_a-10.wav","spherical","20","20","full","matched","-10","0","1786"
"echo-presentation","33","350572","0.0-33.0","5fed8f05e766bb017fbccc79","5fef55e628823a0076ec12ee","601f447d4bbde5497f884150","Mozilla/5.0 (Windows NT 10.0; Win64; x64) AppleWebKit/537.36 (KHTML, like Gecko) Chrome/88.0.4324.146 Safari/537.36","v1","","","","","","","","-20,-10,0,10,20","media/audio/stims/spherical_300cm_s20_c20_cd-full_matched_a20.wav","spherical","20","20","full","matched","20","0","2727"
"echo-presentation","34","353075","0.0-34.0","5fed8f05e766bb017fbccc79","5fef55e628823a0076ec12ee","601f447d4bbde5497f884150","Mozilla/5.0 (Windows NT 10.0; Win64; x64) AppleWebKit/537.36 (KHTML, like Gecko) Chrome/88.0.4324.146 Safari/537.36","v1","","","","","","","","-20,-10,0,10,20","media/audio/stims/spherical_300cm_s20_c20_cd-full_matched_a20.wav","spherical","20","20","full","matched","20","10","1484"
"echo-presentation","35","355771","0.0-35.0","5fed8f05e766bb017fbccc79","5fef55e628823a0076ec12ee","601f447d4bbde5497f884150","Mozilla/5.0 (Windows NT 10.0; Win64; x64) AppleWebKit/537.36 (KHTML, like Gecko) Chrome/88.0.4324.146 Safari/537.36","v1","","","","","","","","-20,-10,0,10,20","media/audio/stims/spherical_300cm_s20_c20_cd-full_matched_a-20.wav","spherical","20","20","full","matched","-20","-10","1906"
"echo-presentation","36","358040","0.0-36.0","5fed8f05e766bb017fbccc79","5fef55e628823a0076ec12ee","601f447d4bbde5497f884150","Mozilla/5.0 (Windows NT 10.0; Win64; x64) AppleWebKit/537.36 (KHTML, like Gecko) Chrome/88.0.4324.146 Safari/537.36","v1","","","","","","","","-20,-10,0,10,20","media/audio/stims/spherical_300cm_s20_c20_cd-full_matched_a-10.wav","spherical","20","20","full","matched","-10","-20","1319"
"echo-presentation","37","360221","0.0-37.0","5fed8f05e766bb017fbccc79","5fef55e628823a0076ec12ee","601f447d4bbde5497f884150","Mozilla/5.0 (Windows NT 10.0; Win64; x64) AppleWebKit/537.36 (KHTML, like Gecko) Chrome/88.0.4324.146 Safari/537.36","v1","","","","","","","","-20,-10,0,10,20","media/audio/stims/spherical_300cm_s20_c20_cd-full_matched_a0.wav","spherical","20","20","full","matched","0","-10","1369"
"echo-presentation","38","362808","0.0-38.0","5fed8f05e766bb017fbccc79","5fef55e628823a0076ec12ee","601f447d4bbde5497f884150","Mozilla/5.0 (Windows NT 10.0; Win64; x64) AppleWebKit/537.36 (KHTML, like Gecko) Chrome/88.0.4324.146 Safari/537.36","v1","","","","","","","","-20,-10,0,10,20","media/audio/stims/spherical_300cm_s20_c20_cd-full_matched_a-10.wav","spherical","20","20","full","matched","-10","-10","1529"
"echo-presentation","39","365369","0.0-39.0","5fed8f05e766bb017fbccc79","5fef55e628823a0076ec12ee","601f447d4bbde5497f884150","Mozilla/5.0 (Windows NT 10.0; Win64; x64) AppleWebKit/537.36 (KHTML, like Gecko) Chrome/88.0.4324.146 Safari/537.36","v1","","","","","","","","-20,-10,0,10,20","media/audio/stims/spherical_300cm_s20_c20_cd-full_matched_a-20.wav","spherical","20","20","full","matched","-20","-10","1581"
"echo-presentation","40","368020","0.0-40.0","5fed8f05e766bb017fbccc79","5fef55e628823a0076ec12ee","601f447d4bbde5497f884150","Mozilla/5.0 (Windows NT 10.0; Win64; x64) AppleWebKit/537.36 (KHTML, like Gecko) Chrome/88.0.4324.146 Safari/537.36","v1","","","","","","","","-20,-10,0,10,20","media/audio/stims/spherical_300cm_s20_c20_cd-full_matched_a10.wav","spherical","20","20","full","matched","10","0","1749"
"echo-presentation","41","370411","0.0-41.0","5fed8f05e766bb017fbccc79","5fef55e628823a0076ec12ee","601f447d4bbde5497f884150","Mozilla/5.0 (Windows NT 10.0; Win64; x64) AppleWebKit/537.36 (KHTML, like Gecko) Chrome/88.0.4324.146 Safari/537.36","v1","","","","","","","","-20,-10,0,10,20","media/audio/stims/spherical_300cm_s20_c20_cd-full_matched_a10.wav","spherical","20","20","full","matched","10","10","1440"
"echo-presentation","42","372914","0.0-42.0","5fed8f05e766bb017fbccc79","5fef55e628823a0076ec12ee","601f447d4bbde5497f884150","Mozilla/5.0 (Windows NT 10.0; Win64; x64) AppleWebKit/537.36 (KHTML, like Gecko) Chrome/88.0.4324.146 Safari/537.36","v1","","","","","","","","-20,-10,0,10,20","media/audio/stims/spherical_300cm_s20_c20_cd-full_matched_a0.wav","spherical","20","20","full","matched","0","0","1781"
"echo-presentation","43","375523","0.0-43.0","5fed8f05e766bb017fbccc79","5fef55e628823a0076ec12ee","601f447d4bbde5497f884150","Mozilla/5.0 (Windows NT 10.0; Win64; x64) AppleWebKit/537.36 (KHTML, like Gecko) Chrome/88.0.4324.146 Safari/537.36","v1","","","","","","","","-20,-10,0,10,20","media/audio/stims/spherical_300cm_s20_c20_cd-full_matched_a10.wav","spherical","20","20","full","matched","10","0","1545"
"echo-presentation","44","377708","0.0-44.0","5fed8f05e766bb017fbccc79","5fef55e628823a0076ec12ee","601f447d4bbde5497f884150","Mozilla/5.0 (Windows NT 10.0; Win64; x64) AppleWebKit/537.36 (KHTML, like Gecko) Chrome/88.0.4324.146 Safari/537.36","v1","","","","","","","","-20,-10,0,10,20","media/audio/stims/spherical_300cm_s20_c20_cd-full_matched_a20.wav","spherical","20","20","full","matched","20","10","1369"
"echo-presentation","45","380145","0.0-45.0","5fed8f05e766bb017fbccc79","5fef55e628823a0076ec12ee","601f447d4bbde5497f884150","Mozilla/5.0 (Windows NT 10.0; Win64; x64) AppleWebKit/537.36 (KHTML, like Gecko) Chrome/88.0.4324.146 Safari/537.36","v1","","","","","","","","-20,-10,0,10,20","media/audio/stims/spherical_300cm_s20_c20_cd-full_matched_a0.wav","spherical","20","20","full","matched","0","10","1465"
"echo-presentation","46","382859","0.0-46.0","5fed8f05e766bb017fbccc79","5fef55e628823a0076ec12ee","601f447d4bbde5497f884150","Mozilla/5.0 (Windows NT 10.0; Win64; x64) AppleWebKit/537.36 (KHTML, like Gecko) Chrome/88.0.4324.146 Safari/537.36","v1","","","","","","","","-20,-10,0,10,20","media/audio/stims/spherical_300cm_s20_c20_cd-full_matched_a-20.wav","spherical","20","20","full","matched","-20","-10","1775"
"echo-presentation","47","385359","0.0-47.0","5fed8f05e766bb017fbccc79","5fef55e628823a0076ec12ee","601f447d4bbde5497f884150","Mozilla/5.0 (Windows NT 10.0; Win64; x64) AppleWebKit/537.36 (KHTML, like Gecko) Chrome/88.0.4324.146 Safari/537.36","v1","","","","","","","","-20,-10,0,10,20","media/audio/stims/spherical_300cm_s20_c20_cd-full_matched_a0.wav","spherical","20","20","full","matched","0","0","1529"
"echo-presentation","48","390649","0.0-48.0","5fed8f05e766bb017fbccc79","5fef55e628823a0076ec12ee","601f447d4bbde5497f884150","Mozilla/5.0 (Windows NT 10.0; Win64; x64) AppleWebKit/537.36 (KHTML, like Gecko) Chrome/88.0.4324.146 Safari/537.36","v1","","","","","","","","-20,-10,0,10,20","media/audio/stims/spherical_300cm_s20_c20_cd-full_matched_a-10.wav","spherical","20","20","full","matched","-10","0","4001"
"echo-presentation","49","393725","0.0-49.0","5fed8f05e766bb017fbccc79","5fef55e628823a0076ec12ee","601f447d4bbde5497f884150","Mozilla/5.0 (Windows NT 10.0; Win64; x64) AppleWebKit/537.36 (KHTML, like Gecko) Chrome/88.0.4324.146 Safari/537.36","v1","","","","","","","","-20,-10,0,10,20","media/audio/stims/spherical_300cm_s20_c20_cd-full_matched_a10.wav","spherical","20","20","full","matched","10","0","1890"
"block-bookend","50","396631","0.0-50.0","5fed8f05e766bb017fbccc79","5fef55e628823a0076ec12ee","601f447d4bbde5497f884150","Mozilla/5.0 (Windows NT 10.0; Win64; x64) AppleWebKit/537.36 (KHTML, like Gecko) Chrome/88.0.4324.146 Safari/537.36","v1","","","","","","","","","","","","","","","","",""
"block-bookend","51","402350","0.0-51.0","5fed8f05e766bb017fbccc79","5fef55e628823a0076ec12ee","601f447d4bbde5497f884150","Mozilla/5.0 (Windows NT 10.0; Win64; x64) AppleWebKit/537.36 (KHTML, like Gecko) Chrome/88.0.4324.146 Safari/537.36","v1","","","","","","","","","","","","","","","","",""
"echo-presentation","52","405519","0.0-52.0","5fed8f05e766bb017fbccc79","5fef55e628823a0076ec12ee","601f447d4bbde5497f884150","Mozilla/5.0 (Windows NT 10.0; Win64; x64) AppleWebKit/537.36 (KHTML, like Gecko) Chrome/88.0.4324.146 Safari/537.36","v1","","","","","","","","-80,-70,-60,-50,-40","media/audio/stims/spherical_300cm_s20_c20_cd-full_matched_a-80.wav","spherical","20","20","full","matched","-80","-80","1640"
"echo-presentation","53","411562","0.0-53.0","5fed8f05e766bb017fbccc79","5fef55e628823a0076ec12ee","601f447d4bbde5497f884150","Mozilla/5.0 (Windows NT 10.0; Win64; x64) AppleWebKit/537.36 (KHTML, like Gecko) Chrome/88.0.4324.146 Safari/537.36","v1","","","","","","","","-80,-70,-60,-50,-40","media/audio/stims/spherical_300cm_s20_c20_cd-full_matched_a-40.wav","spherical","20","20","full","matched","-40","-70","4562"
"echo-presentation","54","414825","0.0-54.0","5fed8f05e766bb017fbccc79","5fef55e628823a0076ec12ee","601f447d4bbde5497f884150","Mozilla/5.0 (Windows NT 10.0; Win64; x64) AppleWebKit/537.36 (KHTML, like Gecko) Chrome/88.0.4324.146 Safari/537.36","v1","","","","","","","","-80,-70,-60,-50,-40","media/audio/stims/spherical_300cm_s20_c20_cd-full_matched_a-40.wav","spherical","20","20","full","matched","-40","-80","1750"
"echo-presentation","55","418318","0.0-55.0","5fed8f05e766bb017fbccc79","5fef55e628823a0076ec12ee","601f447d4bbde5497f884150","Mozilla/5.0 (Windows NT 10.0; Win64; x64) AppleWebKit/537.36 (KHTML, like Gecko) Chrome/88.0.4324.146 Safari/537.36","v1","","","","","","","","-80,-70,-60,-50,-40","media/audio/stims/spherical_300cm_s20_c20_cd-full_matched_a-60.wav","spherical","20","20","full","matched","-60","-70","2387"
"echo-presentation","56","421706","0.0-56.0","5fed8f05e766bb017fbccc79","5fef55e628823a0076ec12ee","601f447d4bbde5497f884150","Mozilla/5.0 (Windows NT 10.0; Win64; x64) AppleWebKit/537.36 (KHTML, like Gecko) Chrome/88.0.4324.146 Safari/537.36","v1","","","","","","","","-80,-70,-60,-50,-40","media/audio/stims/spherical_300cm_s20_c20_cd-full_matched_a-50.wav","spherical","20","20","full","matched","-50","-60","1544"
"echo-presentation","57","424693","0.0-57.0","5fed8f05e766bb017fbccc79","5fef55e628823a0076ec12ee","601f447d4bbde5497f884150","Mozilla/5.0 (Windows NT 10.0; Win64; x64) AppleWebKit/537.36 (KHTML, like Gecko) Chrome/88.0.4324.146 Safari/537.36","v1","","","","","","","","-80,-70,-60,-50,-40","media/audio/stims/spherical_300cm_s20_c20_cd-full_matched_a-70.wav","spherical","20","20","full","matched","-70","-50","2176"
"echo-presentation","58","428031","0.0-58.0","5fed8f05e766bb017fbccc79","5fef55e628823a0076ec12ee","601f447d4bbde5497f884150","Mozilla/5.0 (Windows NT 10.0; Win64; x64) AppleWebKit/537.36 (KHTML, like Gecko) Chrome/88.0.4324.146 Safari/537.36","v1","","","","","","","","-80,-70,-60,-50,-40","media/audio/stims/spherical_300cm_s20_c20_cd-full_matched_a-60.wav","spherical","20","20","full","matched","-60","-40","2507"
"echo-presentation","59","431138","0.0-59.0","5fed8f05e766bb017fbccc79","5fef55e628823a0076ec12ee","601f447d4bbde5497f884150","Mozilla/5.0 (Windows NT 10.0; Win64; x64) AppleWebKit/537.36 (KHTML, like Gecko) Chrome/88.0.4324.146 Safari/537.36","v1","","","","","","","","-80,-70,-60,-50,-40","media/audio/stims/spherical_300cm_s20_c20_cd-full_matched_a-80.wav","spherical","20","20","full","matched","-80","-60","1854"
"echo-presentation","60","433691","0.0-60.0","5fed8f05e766bb017fbccc79","5fef55e628823a0076ec12ee","601f447d4bbde5497f884150","Mozilla/5.0 (Windows NT 10.0; Win64; x64) AppleWebKit/537.36 (KHTML, like Gecko) Chrome/88.0.4324.146 Safari/537.36","v1","","","","","","","","-80,-70,-60,-50,-40","media/audio/stims/spherical_300cm_s20_c20_cd-full_matched_a-80.wav","spherical","20","20","full","matched","-80","-70","1735"
"echo-presentation","61","436096","0.0-61.0","5fed8f05e766bb017fbccc79","5fef55e628823a0076ec12ee","601f447d4bbde5497f884150","Mozilla/5.0 (Windows NT 10.0; Win64; x64) AppleWebKit/537.36 (KHTML, like Gecko) Chrome/88.0.4324.146 Safari/537.36","v1","","","","","","","","-80,-70,-60,-50,-40","media/audio/stims/spherical_300cm_s20_c20_cd-full_matched_a-60.wav","spherical","20","20","full","matched","-60","-70","1307"
"echo-presentation","62","439240","0.0-62.0","5fed8f05e766bb017fbccc79","5fef55e628823a0076ec12ee","601f447d4bbde5497f884150","Mozilla/5.0 (Windows NT 10.0; Win64; x64) AppleWebKit/537.36 (KHTML, like Gecko) Chrome/88.0.4324.146 Safari/537.36","v1","","","","","","","","-80,-70,-60,-50,-40","media/audio/stims/spherical_300cm_s20_c20_cd-full_matched_a-80.wav","spherical","20","20","full","matched","-80","-60","2272"
"echo-presentation","63","443226","0.0-63.0","5fed8f05e766bb017fbccc79","5fef55e628823a0076ec12ee","601f447d4bbde5497f884150","Mozilla/5.0 (Windows NT 10.0; Win64; x64) AppleWebKit/537.36 (KHTML, like Gecko) Chrome/88.0.4324.146 Safari/537.36","v1","","","","","","","","-80,-70,-60,-50,-40","media/audio/stims/spherical_300cm_s20_c20_cd-full_matched_a-40.wav","spherical","20","20","full","matched","-40","-70","3039"
"echo-presentation","64","445588","0.0-64.0","5fed8f05e766bb017fbccc79","5fef55e628823a0076ec12ee","601f447d4bbde5497f884150","Mozilla/5.0 (Windows NT 10.0; Win64; x64) AppleWebKit/537.36 (KHTML, like Gecko) Chrome/88.0.4324.146 Safari/537.36","v1","","","","","","","","-80,-70,-60,-50,-40","media/audio/stims/spherical_300cm_s20_c20_cd-full_matched_a-40.wav","spherical","20","20","full","matched","-40","-80","1479"
"echo-presentation","65","448285","0.0-65.0","5fed8f05e766bb017fbccc79","5fef55e628823a0076ec12ee","601f447d4bbde5497f884150","Mozilla/5.0 (Windows NT 10.0; Win64; x64) AppleWebKit/537.36 (KHTML, like Gecko) Chrome/88.0.4324.146 Safari/537.36","v1","","","","","","","","-80,-70,-60,-50,-40","media/audio/stims/spherical_300cm_s20_c20_cd-full_matched_a-70.wav","spherical","20","20","full","matched","-70","-50","1539"
"echo-presentation","66","450555","0.0-66.0","5fed8f05e766bb017fbccc79","5fef55e628823a0076ec12ee","601f447d4bbde5497f884150","Mozilla/5.0 (Windows NT 10.0; Win64; x64) AppleWebKit/537.36 (KHTML, like Gecko) Chrome/88.0.4324.146 Safari/537.36","v1","","","","","","","","-80,-70,-60,-50,-40","media/audio/stims/spherical_300cm_s20_c20_cd-full_matched_a-50.wav","spherical","20","20","full","matched","-50","-80","1434"
"echo-presentation","67","452888","0.0-67.0","5fed8f05e766bb017fbccc79","5fef55e628823a0076ec12ee","601f447d4bbde5497f884150","Mozilla/5.0 (Windows NT 10.0; Win64; x64) AppleWebKit/537.36 (KHTML, like Gecko) Chrome/88.0.4324.146 Safari/537.36","v1","","","","","","","","-80,-70,-60,-50,-40","media/audio/stims/spherical_300cm_s20_c20_cd-full_matched_a-70.wav","spherical","20","20","full","matched","-70","-80","1310"
"echo-presentation","68","455256","0.0-68.0","5fed8f05e766bb017fbccc79","5fef55e628823a0076ec12ee","601f447d4bbde5497f884150","Mozilla/5.0 (Windows NT 10.0; Win64; x64) AppleWebKit/537.36 (KHTML, like Gecko) Chrome/88.0.4324.146 Safari/537.36","v1","","","","","","","","-80,-70,-60,-50,-40","media/audio/stims/spherical_300cm_s20_c20_cd-full_matched_a-70.wav","spherical","20","20","full","matched","-70","-80","1433"
"echo-presentation","69","457785","0.0-69.0","5fed8f05e766bb017fbccc79","5fef55e628823a0076ec12ee","601f447d4bbde5497f884150","Mozilla/5.0 (Windows NT 10.0; Win64; x64) AppleWebKit/537.36 (KHTML, like Gecko) Chrome/88.0.4324.146 Safari/537.36","v1","","","","","","","","-80,-70,-60,-50,-40","media/audio/stims/spherical_300cm_s20_c20_cd-full_matched_a-50.wav","spherical","20","20","full","matched","-50","-70","1334"
"echo-presentation","70","460438","0.0-70.0","5fed8f05e766bb017fbccc79","5fef55e628823a0076ec12ee","601f447d4bbde5497f884150","Mozilla/5.0 (Windows NT 10.0; Win64; x64) AppleWebKit/537.36 (KHTML, like Gecko) Chrome/88.0.4324.146 Safari/537.36","v1","","","","","","","","-80,-70,-60,-50,-40","media/audio/stims/spherical_300cm_s20_c20_cd-full_matched_a-50.wav","spherical","20","20","full","matched","-50","-80","1511"
"echo-presentation","71","463917","0.0-71.0","5fed8f05e766bb017fbccc79","5fef55e628823a0076ec12ee","601f447d4bbde5497f884150","Mozilla/5.0 (Windows NT 10.0; Win64; x64) AppleWebKit/537.36 (KHTML, like Gecko) Chrome/88.0.4324.146 Safari/537.36","v1","","","","","","","","-80,-70,-60,-50,-40","media/audio/stims/spherical_300cm_s20_c20_cd-full_matched_a-60.wav","spherical","20","20","full","matched","-60","-80","2186"
"block-bookend","72","465288","0.0-72.0","5fed8f05e766bb017fbccc79","5fef55e628823a0076ec12ee","601f447d4bbde5497f884150","Mozilla/5.0 (Windows NT 10.0; Win64; x64) AppleWebKit/537.36 (KHTML, like Gecko) Chrome/88.0.4324.146 Safari/537.36","v1","","","","","","","","","","","","","","","","",""
"block-bookend","73","471808","0.0-73.0","5fed8f05e766bb017fbccc79","5fef55e628823a0076ec12ee","601f447d4bbde5497f884150","Mozilla/5.0 (Windows NT 10.0; Win64; x64) AppleWebKit/537.36 (KHTML, like Gecko) Chrome/88.0.4324.146 Safari/537.36","v1","","","","","","","","","","","","","","","","",""
"echo-presentation","74","476387","0.0-74.0","5fed8f05e766bb017fbccc79","5fef55e628823a0076ec12ee","601f447d4bbde5497f884150","Mozilla/5.0 (Windows NT 10.0; Win64; x64) AppleWebKit/537.36 (KHTML, like Gecko) Chrome/88.0.4324.146 Safari/537.36","v1","","","","","","","","-80,-70,-60,-50,-40","media/audio/stims/spherical_300cm_s20_c20_cd-full_matched_a-60.wav","spherical","20","20","full","matched","-60","-80","2933"
"echo-presentation","75","480935","0.0-75.0","5fed8f05e766bb017fbccc79","5fef55e628823a0076ec12ee","601f447d4bbde5497f884150","Mozilla/5.0 (Windows NT 10.0; Win64; x64) AppleWebKit/537.36 (KHTML, like Gecko) Chrome/88.0.4324.146 Safari/537.36","v1","","","","","","","","-80,-70,-60,-50,-40","media/audio/stims/spherical_300cm_s20_c20_cd-full_matched_a-70.wav","spherical","20","20","full","matched","-70","-50","2195"
"echo-presentation","76","484283","0.0-76.0","5fed8f05e766bb017fbccc79","5fef55e628823a0076ec12ee","601f447d4bbde5497f884150","Mozilla/5.0 (Windows NT 10.0; Win64; x64) AppleWebKit/537.36 (KHTML, like Gecko) Chrome/88.0.4324.146 Safari/537.36","v1","","","","","","","","-80,-70,-60,-50,-40","media/audio/stims/spherical_300cm_s20_c20_cd-full_matched_a-70.wav","spherical","20","20","full","matched","-70","-60","2381"
"echo-presentation","77","487912","0.0-77.0","5fed8f05e766bb017fbccc79","5fef55e628823a0076ec12ee","601f447d4bbde5497f884150","Mozilla/5.0 (Windows NT 10.0; Win64; x64) AppleWebKit/537.36 (KHTML, like Gecko) Chrome/88.0.4324.146 Safari/537.36","v1","","","","","","","","-80,-70,-60,-50,-40","media/audio/stims/spherical_300cm_s20_c20_cd-full_matched_a-70.wav","spherical","20","20","full","matched","-70","-50","1866"
"echo-presentation","78","490910","0.0-78.0","5fed8f05e766bb017fbccc79","5fef55e628823a0076ec12ee","601f447d4bbde5497f884150","Mozilla/5.0 (Windows NT 10.0; Win64; x64) AppleWebKit/537.36 (KHTML, like Gecko) Chrome/88.0.4324.146 Safari/537.36","v1","","","","","","","","-80,-70,-60,-50,-40","media/audio/stims/spherical_300cm_s20_c20_cd-full_matched_a-80.wav","spherical","20","20","full","matched","-80","-80","1933"
"echo-presentation","79","493214","0.0-79.0","5fed8f05e766bb017fbccc79","5fef55e628823a0076ec12ee","601f447d4bbde5497f884150","Mozilla/5.0 (Windows NT 10.0; Win64; x64) AppleWebKit/537.36 (KHTML, like Gecko) Chrome/88.0.4324.146 Safari/537.36","v1","","","","","","","","-80,-70,-60,-50,-40","media/audio/stims/spherical_300cm_s20_c20_cd-full_matched_a-40.wav","spherical","20","20","full","matched","-40","-80","1369"
"echo-presentation","80","495608","0.0-80.0","5fed8f05e766bb017fbccc79","5fef55e628823a0076ec12ee","601f447d4bbde5497f884150","Mozilla/5.0 (Windows NT 10.0; Win64; x64) AppleWebKit/537.36 (KHTML, like Gecko) Chrome/88.0.4324.146 Safari/537.36","v1","","","","","","","","-80,-70,-60,-50,-40","media/audio/stims/spherical_300cm_s20_c20_cd-full_matched_a-80.wav","spherical","20","20","full","matched","-80","-70","1520"
"echo-presentation","81","497838","0.0-81.0","5fed8f05e766bb017fbccc79","5fef55e628823a0076ec12ee","601f447d4bbde5497f884150","Mozilla/5.0 (Windows NT 10.0; Win64; x64) AppleWebKit/537.36 (KHTML, like Gecko) Chrome/88.0.4324.146 Safari/537.36","v1","","","","","","","","-80,-70,-60,-50,-40","media/audio/stims/spherical_300cm_s20_c20_cd-full_matched_a-50.wav","spherical","20","20","full","matched","-50","-80","1359"
"echo-presentation","82","499992","0.0-82.0","5fed8f05e766bb017fbccc79","5fef55e628823a0076ec12ee","601f447d4bbde5497f884150","Mozilla/5.0 (Windows NT 10.0; Win64; x64) AppleWebKit/537.36 (KHTML, like Gecko) Chrome/88.0.4324.146 Safari/537.36","v1","","","","","","","","-80,-70,-60,-50,-40","media/audio/stims/spherical_300cm_s20_c20_cd-full_matched_a-50.wav","spherical","20","20","full","matched","-50","-80","1319"
"echo-presentation","83","501870","0.0-83.0","5fed8f05e766bb017fbccc79","5fef55e628823a0076ec12ee","601f447d4bbde5497f884150","Mozilla/5.0 (Windows NT 10.0; Win64; x64) AppleWebKit/537.36 (KHTML, like Gecko) Chrome/88.0.4324.146 Safari/537.36","v1","","","","","","","","-80,-70,-60,-50,-40","media/audio/stims/spherical_300cm_s20_c20_cd-full_matched_a-60.wav","spherical","20","20","full","matched","-60","-80","1013"
"echo-presentation","84","504526","0.0-84.0","5fed8f05e766bb017fbccc79","5fef55e628823a0076ec12ee","601f447d4bbde5497f884150","Mozilla/5.0 (Windows NT 10.0; Win64; x64) AppleWebKit/537.36 (KHTML, like Gecko) Chrome/88.0.4324.146 Safari/537.36","v1","","","","","","","","-80,-70,-60,-50,-40","media/audio/stims/spherical_300cm_s20_c20_cd-full_matched_a-60.wav","spherical","20","20","full","matched","-60","-80","1257"
"echo-presentation","85","507122","0.0-85.0","5fed8f05e766bb017fbccc79","5fef55e628823a0076ec12ee","601f447d4bbde5497f884150","Mozilla/5.0 (Windows NT 10.0; Win64; x64) AppleWebKit/537.36 (KHTML, like Gecko) Chrome/88.0.4324.146 Safari/537.36","v1","","","","","","","","-80,-70,-60,-50,-40","media/audio/stims/spherical_300cm_s20_c20_cd-full_matched_a-80.wav","spherical","20","20","full","matched","-80","-80","1580"
"echo-presentation","86","509643","0.0-86.0","5fed8f05e766bb017fbccc79","5fef55e628823a0076ec12ee","601f447d4bbde5497f884150","Mozilla/5.0 (Windows NT 10.0; Win64; x64) AppleWebKit/537.36 (KHTML, like Gecko) Chrome/88.0.4324.146 Safari/537.36","v1","","","","","","","","-80,-70,-60,-50,-40","media/audio/stims/spherical_300cm_s20_c20_cd-full_matched_a-40.wav","spherical","20","20","full","matched","-40","-70","1591"
"echo-presentation","87","512810","0.0-87.0","5fed8f05e766bb017fbccc79","5fef55e628823a0076ec12ee","601f447d4bbde5497f884150","Mozilla/5.0 (Windows NT 10.0; Win64; x64) AppleWebKit/537.36 (KHTML, like Gecko) Chrome/88.0.4324.146 Safari/537.36","v1","","","","","","","","-80,-70,-60,-50,-40","media/audio/stims/spherical_300cm_s20_c20_cd-full_matched_a-50.wav","spherical","20","20","full","matched","-50","-70","2306"
"echo-presentation","88","515652","0.0-88.0","5fed8f05e766bb017fbccc79","5fef55e628823a0076ec12ee","601f447d4bbde5497f884150","Mozilla/5.0 (Windows NT 10.0; Win64; x64) AppleWebKit/537.36 (KHTML, like Gecko) Chrome/88.0.4324.146 Safari/537.36","v1","","","","","","","","-80,-70,-60,-50,-40","media/audio/stims/spherical_300cm_s20_c20_cd-full_matched_a-40.wav","spherical","20","20","full","matched","-40","-80","1709"
"echo-presentation","89","518831","0.0-89.0","5fed8f05e766bb017fbccc79","5fef55e628823a0076ec12ee","601f447d4bbde5497f884150","Mozilla/5.0 (Windows NT 10.0; Win64; x64) AppleWebKit/537.36 (KHTML, like Gecko) Chrome/88.0.4324.146 Safari/537.36","v1","","","","","","","","-80,-70,-60,-50,-40","media/audio/stims/spherical_300cm_s20_c20_cd-full_matched_a-60.wav","spherical","20","20","full","matched","-60","-60","1887"
"echo-presentation","90","522158","0.0-90.0","5fed8f05e766bb017fbccc79","5fef55e628823a0076ec12ee","601f447d4bbde5497f884150","Mozilla/5.0 (Windows NT 10.0; Win64; x64) AppleWebKit/537.36 (KHTML, like Gecko) Chrome/88.0.4324.146 Safari/537.36","v1","","","","","","","","-80,-70,-60,-50,-40","media/audio/stims/spherical_300cm_s20_c20_cd-full_matched_a-80.wav","spherical","20","20","full","matched","-80","-50","2265"
"echo-presentation","91","524905","0.0-91.0","5fed8f05e766bb017fbccc79","5fef55e628823a0076ec12ee","601f447d4bbde5497f884150","Mozilla/5.0 (Windows NT 10.0; Win64; x64) AppleWebKit/537.36 (KHTML, like Gecko) Chrome/88.0.4324.146 Safari/537.36","v1","","","","","","","","-80,-70,-60,-50,-40","media/audio/stims/spherical_300cm_s20_c20_cd-full_matched_a-40.wav","spherical","20","20","full","matched","-40","-70","1590"
"echo-presentation","92","528958","0.0-92.0","5fed8f05e766bb017fbccc79","5fef55e628823a0076ec12ee","601f447d4bbde5497f884150","Mozilla/5.0 (Windows NT 10.0; Win64; x64) AppleWebKit/537.36 (KHTML, like Gecko) Chrome/88.0.4324.146 Safari/537.36","v1","","","","","","","","-80,-70,-60,-50,-40","media/audio/stims/spherical_300cm_s20_c20_cd-full_matched_a-50.wav","spherical","20","20","full","matched","-50","-80","1444"
"echo-presentation","93","531627","0.0-93.0","5fed8f05e766bb017fbccc79","5fef55e628823a0076ec12ee","601f447d4bbde5497f884150","Mozilla/5.0 (Windows NT 10.0; Win64; x64) AppleWebKit/537.36 (KHTML, like Gecko) Chrome/88.0.4324.146 Safari/537.36","v1","","","","","","","","-80,-70,-60,-50,-40","media/audio/stims/spherical_300cm_s20_c20_cd-full_matched_a-70.wav","spherical","20","20","full","matched","-70","-70","1415"
"block-bookend","94","532681","0.0-94.0","5fed8f05e766bb017fbccc79","5fef55e628823a0076ec12ee","601f447d4bbde5497f884150","Mozilla/5.0 (Windows NT 10.0; Win64; x64) AppleWebKit/537.36 (KHTML, like Gecko) Chrome/88.0.4324.146 Safari/537.36","v1","","","","","","","","","","","","","","","","",""
"block-bookend","95","538500","0.0-95.0","5fed8f05e766bb017fbccc79","5fef55e628823a0076ec12ee","601f447d4bbde5497f884150","Mozilla/5.0 (Windows NT 10.0; Win64; x64) AppleWebKit/537.36 (KHTML, like Gecko) Chrome/88.0.4324.146 Safari/537.36","v1","","","","","","","","","","","","","","","","",""
"echo-presentation","96","542622","0.0-96.0","5fed8f05e766bb017fbccc79","5fef55e628823a0076ec12ee","601f447d4bbde5497f884150","Mozilla/5.0 (Windows NT 10.0; Win64; x64) AppleWebKit/537.36 (KHTML, like Gecko) Chrome/88.0.4324.146 Safari/537.36","v1","","","","","","","","40,50,60,70,80","media/audio/stims/spherical_300cm_s20_c20_cd-full_matched_a70.wav","spherical","20","20","full","matched","70","80","2754"
"echo-presentation","97","546805","0.0-97.0","5fed8f05e766bb017fbccc79","5fef55e628823a0076ec12ee","601f447d4bbde5497f884150","Mozilla/5.0 (Windows NT 10.0; Win64; x64) AppleWebKit/537.36 (KHTML, like Gecko) Chrome/88.0.4324.146 Safari/537.36","v1","","","","","","","","40,50,60,70,80","media/audio/stims/spherical_300cm_s20_c20_cd-full_matched_a80.wav","spherical","20","20","full","matched","80","70","2982"
"echo-presentation","98","549826","0.0-98.0","5fed8f05e766bb017fbccc79","5fef55e628823a0076ec12ee","601f447d4bbde5497f884150","Mozilla/5.0 (Windows NT 10.0; Win64; x64) AppleWebKit/537.36 (KHTML, like Gecko) Chrome/88.0.4324.146 Safari/537.36","v1","","","","","","","","40,50,60,70,80","media/audio/stims/spherical_300cm_s20_c20_cd-full_matched_a80.wav","spherical","20","20","full","matched","80","80","1659"
"echo-presentation","99","552207","0.0-99.0","5fed8f05e766bb017fbccc79","5fef55e628823a0076ec12ee","601f447d4bbde5497f884150","Mozilla/5.0 (Windows NT 10.0; Win64; x64) AppleWebKit/537.36 (KHTML, like Gecko) Chrome/88.0.4324.146 Safari/537.36","v1","","","","","","","","40,50,60,70,80","media/audio/stims/spherical_300cm_s20_c20_cd-full_matched_a50.wav","spherical","20","20","full","matched","50","80","1284"
"echo-presentation","100","555128","0.0-100.0","5fed8f05e766bb017fbccc79","5fef55e628823a0076ec12ee","601f447d4bbde5497f884150","Mozilla/5.0 (Windows NT 10.0; Win64; x64) AppleWebKit/537.36 (KHTML, like Gecko) Chrome/88.0.4324.146 Safari/537.36","v1","","","","","","","","40,50,60,70,80","media/audio/stims/spherical_300cm_s20_c20_cd-full_matched_a70.wav","spherical","20","20","full","matched","70","80","2041"
"echo-presentation","101","559495","0.0-101.0","5fed8f05e766bb017fbccc79","5fef55e628823a0076ec12ee","601f447d4bbde5497f884150","Mozilla/5.0 (Windows NT 10.0; Win64; x64) AppleWebKit/537.36 (KHTML, like Gecko) Chrome/88.0.4324.146 Safari/537.36","v1","","","","","","","","40,50,60,70,80","media/audio/stims/spherical_300cm_s20_c20_cd-full_matched_a80.wav","spherical","20","20","full","matched","80","60","2001"
"echo-presentation","102","563566","0.0-102.0","5fed8f05e766bb017fbccc79","5fef55e628823a0076ec12ee","601f447d4bbde5497f884150","Mozilla/5.0 (Windows NT 10.0; Win64; x64) AppleWebKit/537.36 (KHTML, like Gecko) Chrome/88.0.4324.146 Safari/537.36","v1","","","","","","","","40,50,60,70,80","media/audio/stims/spherical_300cm_s20_c20_cd-full_matched_a60.wav","spherical","20","20","full","matched","60","70","2247"
"echo-presentation","103","566977","0.0-103.0","5fed8f05e766bb017fbccc79","5fef55e628823a0076ec12ee","601f447d4bbde5497f884150","Mozilla/5.0 (Windows NT 10.0; Win64; x64) AppleWebKit/537.36 (KHTML, like Gecko) Chrome/88.0.4324.146 Safari/537.36","v1","","","","","","","","40,50,60,70,80","media/audio/stims/spherical_300cm_s20_c20_cd-full_matched_a50.wav","spherical","20","20","full","matched","50","60","2266"
"echo-presentation","104","569663","0.0-104.0","5fed8f05e766bb017fbccc79","5fef55e628823a0076ec12ee","601f447d4bbde5497f884150","Mozilla/5.0 (Windows NT 10.0; Win64; x64) AppleWebKit/537.36 (KHTML, like Gecko) Chrome/88.0.4324.146 Safari/537.36","v1","","","","","","","","40,50,60,70,80","media/audio/stims/spherical_300cm_s20_c20_cd-full_matched_a40.wav","spherical","20","20","full","matched","40","70","1534"
"echo-presentation","105","572300","0.0-105.0","5fed8f05e766bb017fbccc79","5fef55e628823a0076ec12ee","601f447d4bbde5497f884150","Mozilla/5.0 (Windows NT 10.0; Win64; x64) AppleWebKit/537.36 (KHTML, like Gecko) Chrome/88.0.4324.146 Safari/537.36","v1","","","","","","","","40,50,60,70,80","media/audio/stims/spherical_300cm_s20_c20_cd-full_matched_a40.wav","spherical","20","20","full","matched","40","70","1385"
"echo-presentation","106","575047","0.0-106.0","5fed8f05e766bb017fbccc79","5fef55e628823a0076ec12ee","601f447d4bbde5497f884150","Mozilla/5.0 (Windows NT 10.0; Win64; x64) AppleWebKit/537.36 (KHTML, like Gecko) Chrome/88.0.4324.146 Safari/537.36","v1","","","","","","","","40,50,60,70,80","media/audio/stims/spherical_300cm_s20_c20_cd-full_matched_a50.wav","spherical","20","20","full","matched","50","80","1481"
"echo-presentation","107","577984","0.0-107.0","5fed8f05e766bb017fbccc79","5fef55e628823a0076ec12ee","601f447d4bbde5497f884150","Mozilla/5.0 (Windows NT 10.0; Win64; x64) AppleWebKit/537.36 (KHTML, like Gecko) Chrome/88.0.4324.146 Safari/537.36","v1","","","","","","","","40,50,60,70,80","media/audio/stims/spherical_300cm_s20_c20_cd-full_matched_a50.wav","spherical","20","20","full","matched","50","70","1595"
"echo-presentation","108","581558","0.0-108.0","5fed8f05e766bb017fbccc79","5fef55e628823a0076ec12ee","601f447d4bbde5497f884150","Mozilla/5.0 (Windows NT 10.0; Win64; x64) AppleWebKit/537.36 (KHTML, like Gecko) Chrome/88.0.4324.146 Safari/537.36","v1","","","","","","","","40,50,60,70,80","media/audio/stims/spherical_300cm_s20_c20_cd-full_matched_a80.wav","spherical","20","20","full","matched","80","80","2473"
"echo-presentation","109","584469","0.0-109.0","5fed8f05e766bb017fbccc79","5fef55e628823a0076ec12ee","601f447d4bbde5497f884150","Mozilla/5.0 (Windows NT 10.0; Win64; x64) AppleWebKit/537.36 (KHTML, like Gecko) Chrome/88.0.4324.146 Safari/537.36","v1","","","","","","","","40,50,60,70,80","media/audio/stims/spherical_300cm_s20_c20_cd-full_matched_a40.wav","spherical","20","20","full","matched","40","70","1619"
"echo-presentation","110","586996","0.0-110.0","5fed8f05e766bb017fbccc79","5fef55e628823a0076ec12ee","601f447d4bbde5497f884150","Mozilla/5.0 (Windows NT 10.0; Win64; x64) AppleWebKit/537.36 (KHTML, like Gecko) Chrome/88.0.4324.146 Safari/537.36","v1","","","","","","","","40,50,60,70,80","media/audio/stims/spherical_300cm_s20_c20_cd-full_matched_a60.wav","spherical","20","20","full","matched","60","80","1449"
"echo-presentation","111","590122","0.0-111.0","5fed8f05e766bb017fbccc79","5fef55e628823a0076ec12ee","601f447d4bbde5497f884150","Mozilla/5.0 (Windows NT 10.0; Win64; x64) AppleWebKit/537.36 (KHTML, like Gecko) Chrome/88.0.4324.146 Safari/537.36","v1","","","","","","","","40,50,60,70,80","media/audio/stims/spherical_300cm_s20_c20_cd-full_matched_a70.wav","spherical","20","20","full","matched","70","80","1620"
"echo-presentation","112","594413","0.0-112.0","5fed8f05e766bb017fbccc79","5fef55e628823a0076ec12ee","601f447d4bbde5497f884150","Mozilla/5.0 (Windows NT 10.0; Win64; x64) AppleWebKit/537.36 (KHTML, like Gecko) Chrome/88.0.4324.146 Safari/537.36","v1","","","","","","","","40,50,60,70,80","media/audio/stims/spherical_300cm_s20_c20_cd-full_matched_a60.wav","spherical","20","20","full","matched","60","80","2065"
"echo-presentation","113","597360","0.0-113.0","5fed8f05e766bb017fbccc79","5fef55e628823a0076ec12ee","601f447d4bbde5497f884150","Mozilla/5.0 (Windows NT 10.0; Win64; x64) AppleWebKit/537.36 (KHTML, like Gecko) Chrome/88.0.4324.146 Safari/537.36","v1","","","","","","","","40,50,60,70,80","media/audio/stims/spherical_300cm_s20_c20_cd-full_matched_a70.wav","spherical","20","20","full","matched","70","70","1675"
"echo-presentation","114","602592","0.0-114.0","5fed8f05e766bb017fbccc79","5fef55e628823a0076ec12ee","601f447d4bbde5497f884150","Mozilla/5.0 (Windows NT 10.0; Win64; x64) AppleWebKit/537.36 (KHTML, like Gecko) Chrome/88.0.4324.146 Safari/537.36","v1","","","","","","","","40,50,60,70,80","media/audio/stims/spherical_300cm_s20_c20_cd-full_matched_a40.wav","spherical","20","20","full","matched","40","80","3910"
"echo-presentation","115","605624","0.0-115.0","5fed8f05e766bb017fbccc79","5fef55e628823a0076ec12ee","601f447d4bbde5497f884150","Mozilla/5.0 (Windows NT 10.0; Win64; x64) AppleWebKit/537.36 (KHTML, like Gecko) Chrome/88.0.4324.146 Safari/537.36","v1","","","","","","","","40,50,60,70,80","media/audio/stims/spherical_300cm_s20_c20_cd-full_matched_a60.wav","spherical","20","20","full","matched","60","70","1720"
"block-bookend","116","606630","0.0-116.0","5fed8f05e766bb017fbccc79","5fef55e628823a0076ec12ee","601f447d4bbde5497f884150","Mozilla/5.0 (Windows NT 10.0; Win64; x64) AppleWebKit/537.36 (KHTML, like Gecko) Chrome/88.0.4324.146 Safari/537.36","v1","","","","","","","","","","","","","","","","",""
"block-bookend","117","614063","0.0-117.0","5fed8f05e766bb017fbccc79","5fef55e628823a0076ec12ee","601f447d4bbde5497f884150","Mozilla/5.0 (Windows NT 10.0; Win64; x64) AppleWebKit/537.36 (KHTML, like Gecko) Chrome/88.0.4324.146 Safari/537.36","v1","","","","","","","","","","","","","","","","",""
"echo-presentation","118","618184","0.0-118.0","5fed8f05e766bb017fbccc79","5fef55e628823a0076ec12ee","601f447d4bbde5497f884150","Mozilla/5.0 (Windows NT 10.0; Win64; x64) AppleWebKit/537.36 (KHTML, like Gecko) Chrome/88.0.4324.146 Safari/537.36","v1","","","","","","","","40,50,60,70,80","media/audio/stims/spherical_300cm_s20_c20_cd-full_matched_a70.wav","spherical","20","20","full","matched","70","60","2110"
"echo-presentation","119","621186","0.0-119.0","5fed8f05e766bb017fbccc79","5fef55e628823a0076ec12ee","601f447d4bbde5497f884150","Mozilla/5.0 (Windows NT 10.0; Win64; x64) AppleWebKit/537.36 (KHTML, like Gecko) Chrome/88.0.4324.146 Safari/537.36","v1","","","","","","","","40,50,60,70,80","media/audio/stims/spherical_300cm_s20_c20_cd-full_matched_a60.wav","spherical","20","20","full","matched","60","70","1965"
"echo-presentation","120","623697","0.0-120.0","5fed8f05e766bb017fbccc79","5fef55e628823a0076ec12ee","601f447d4bbde5497f884150","Mozilla/5.0 (Windows NT 10.0; Win64; x64) AppleWebKit/537.36 (KHTML, like Gecko) Chrome/88.0.4324.146 Safari/537.36","v1","","","","","","","","40,50,60,70,80","media/audio/stims/spherical_300cm_s20_c20_cd-full_matched_a70.wav","spherical","20","20","full","matched","70","50","1634"
"echo-presentation","121","626710","0.0-121.0","5fed8f05e766bb017fbccc79","5fef55e628823a0076ec12ee","601f447d4bbde5497f884150","Mozilla/5.0 (Windows NT 10.0; Win64; x64) AppleWebKit/537.36 (KHTML, like Gecko) Chrome/88.0.4324.146 Safari/537.36","v1","","","","","","","","40,50,60,70,80","media/audio/stims/spherical_300cm_s20_c20_cd-full_matched_a50.wav","spherical","20","20","full","matched","50","60","2307"
"echo-presentation","122","633045","0.0-122.0","5fed8f05e766bb017fbccc79","5fef55e628823a0076ec12ee","601f447d4bbde5497f884150","Mozilla/5.0 (Windows NT 10.0; Win64; x64) AppleWebKit/537.36 (KHTML, like Gecko) Chrome/88.0.4324.146 Safari/537.36","v1","","","","","","","","40,50,60,70,80","media/audio/stims/spherical_300cm_s20_c20_cd-full_matched_a40.wav","spherical","20","20","full","matched","40","70","5338"
"echo-presentation","123","635981","0.0-123.0","5fed8f05e766bb017fbccc79","5fef55e628823a0076ec12ee","601f447d4bbde5497f884150","Mozilla/5.0 (Windows NT 10.0; Win64; x64) AppleWebKit/537.36 (KHTML, like Gecko) Chrome/88.0.4324.146 Safari/537.36","v1","","","","","","","","40,50,60,70,80","media/audio/stims/spherical_300cm_s20_c20_cd-full_matched_a80.wav","spherical","20","20","full","matched","80","60","1921"
"echo-presentation","124","638772","0.0-124.0","5fed8f05e766bb017fbccc79","5fef55e628823a0076ec12ee","601f447d4bbde5497f884150","Mozilla/5.0 (Windows NT 10.0; Win64; x64) AppleWebKit/537.36 (KHTML, like Gecko) Chrome/88.0.4324.146 Safari/537.36","v1","","","","","","","","40,50,60,70,80","media/audio/stims/spherical_300cm_s20_c20_cd-full_matched_a80.wav","spherical","20","20","full","matched","80","60","1865"
"echo-presentation","125","641078","0.0-125.0","5fed8f05e766bb017fbccc79","5fef55e628823a0076ec12ee","601f447d4bbde5497f884150","Mozilla/5.0 (Windows NT 10.0; Win64; x64) AppleWebKit/537.36 (KHTML, like Gecko) Chrome/88.0.4324.146 Safari/537.36","v1","","","","","","","","40,50,60,70,80","media/audio/stims/spherical_300cm_s20_c20_cd-full_matched_a50.wav","spherical","20","20","full","matched","50","70","1304"
"echo-presentation","126","644184","0.0-126.0","5fed8f05e766bb017fbccc79","5fef55e628823a0076ec12ee","601f447d4bbde5497f884150","Mozilla/5.0 (Windows NT 10.0; Win64; x64) AppleWebKit/537.36 (KHTML, like Gecko) Chrome/88.0.4324.146 Safari/537.36","v1","","","","","","","","40,50,60,70,80","media/audio/stims/spherical_300cm_s20_c20_cd-full_matched_a70.wav","spherical","20","20","full","matched","70","60","1920"
"echo-presentation","127","647409","0.0-127.0","5fed8f05e766bb017fbccc79","5fef55e628823a0076ec12ee","601f447d4bbde5497f884150","Mozilla/5.0 (Windows NT 10.0; Win64; x64) AppleWebKit/537.36 (KHTML, like Gecko) Chrome/88.0.4324.146 Safari/537.36","v1","","","","","","","","40,50,60,70,80","media/audio/stims/spherical_300cm_s20_c20_cd-full_matched_a60.wav","spherical","20","20","full","matched","60","70","2382"
"echo-presentation","128","649834","0.0-128.0","5fed8f05e766bb017fbccc79","5fef55e628823a0076ec12ee","601f447d4bbde5497f884150","Mozilla/5.0 (Windows NT 10.0; Win64; x64) AppleWebKit/537.36 (KHTML, like Gecko) Chrome/88.0.4324.146 Safari/537.36","v1","","","","","","","","40,50,60,70,80","media/audio/stims/spherical_300cm_s20_c20_cd-full_matched_a70.wav","spherical","20","20","full","matched","70","80","1715"
"echo-presentation","129","652631","0.0-129.0","5fed8f05e766bb017fbccc79","5fef55e628823a0076ec12ee","601f447d4bbde5497f884150","Mozilla/5.0 (Windows NT 10.0; Win64; x64) AppleWebKit/537.36 (KHTML, like Gecko) Chrome/88.0.4324.146 Safari/537.36","v1","","","","","","","","40,50,60,70,80","media/audio/stims/spherical_300cm_s20_c20_cd-full_matched_a60.wav","spherical","20","20","full","matched","60","70","1942"
"echo-presentation","130","655463","0.0-130.0","5fed8f05e766bb017fbccc79","5fef55e628823a0076ec12ee","601f447d4bbde5497f884150","Mozilla/5.0 (Windows NT 10.0; Win64; x64) AppleWebKit/537.36 (KHTML, like Gecko) Chrome/88.0.4324.146 Safari/537.36","v1","","","","","","","","40,50,60,70,80","media/audio/stims/spherical_300cm_s20_c20_cd-full_matched_a80.wav","spherical","20","20","full","matched","80","70","1690"
"echo-presentation","131","658188","0.0-131.0","5fed8f05e766bb017fbccc79","5fef55e628823a0076ec12ee","601f447d4bbde5497f884150","Mozilla/5.0 (Windows NT 10.0; Win64; x64) AppleWebKit/537.36 (KHTML, like Gecko) Chrome/88.0.4324.146 Safari/537.36","v1","","","","","","","","40,50,60,70,80","media/audio/stims/spherical_300cm_s20_c20_cd-full_matched_a50.wav","spherical","20","20","full","matched","50","70","1776"
"echo-presentation","132","660559","0.0-132.0","5fed8f05e766bb017fbccc79","5fef55e628823a0076ec12ee","601f447d4bbde5497f884150","Mozilla/5.0 (Windows NT 10.0; Win64; x64) AppleWebKit/537.36 (KHTML, like Gecko) Chrome/88.0.4324.146 Safari/537.36","v1","","","","","","","","40,50,60,70,80","media/audio/stims/spherical_300cm_s20_c20_cd-full_matched_a50.wav","spherical","20","20","full","matched","50","80","1510"
"echo-presentation","133","663074","0.0-133.0","5fed8f05e766bb017fbccc79","5fef55e628823a0076ec12ee","601f447d4bbde5497f884150","Mozilla/5.0 (Windows NT 10.0; Win64; x64) AppleWebKit/537.36 (KHTML, like Gecko) Chrome/88.0.4324.146 Safari/537.36","v1","","","","","","","","40,50,60,70,80","media/audio/stims/spherical_300cm_s20_c20_cd-full_matched_a40.wav","spherical","20","20","full","matched","40","80","1415"
"echo-presentation","134","665833","0.0-134.0","5fed8f05e766bb017fbccc79","5fef55e628823a0076ec12ee","601f447d4bbde5497f884150","Mozilla/5.0 (Windows NT 10.0; Win64; x64) AppleWebKit/537.36 (KHTML, like Gecko) Chrome/88.0.4324.146 Safari/537.36","v1","","","","","","","","40,50,60,70,80","media/audio/stims/spherical_300cm_s20_c20_cd-full_matched_a60.wav","spherical","20","20","full","matched","60","60","1470"
"echo-presentation","135","668544","0.0-135.0","5fed8f05e766bb017fbccc79","5fef55e628823a0076ec12ee","601f447d4bbde5497f884150","Mozilla/5.0 (Windows NT 10.0; Win64; x64) AppleWebKit/537.36 (KHTML, like Gecko) Chrome/88.0.4324.146 Safari/537.36","v1","","","","","","","","40,50,60,70,80","media/audio/stims/spherical_300cm_s20_c20_cd-full_matched_a40.wav","spherical","20","20","full","matched","40","70","1520"
"echo-presentation","136","671579","0.0-136.0","5fed8f05e766bb017fbccc79","5fef55e628823a0076ec12ee","601f447d4bbde5497f884150","Mozilla/5.0 (Windows NT 10.0; Win64; x64) AppleWebKit/537.36 (KHTML, like Gecko) Chrome/88.0.4324.146 Safari/537.36","v1","","","","","","","","40,50,60,70,80","media/audio/stims/spherical_300cm_s20_c20_cd-full_matched_a80.wav","spherical","20","20","full","matched","80","80","1570"
"echo-presentation","137","676077","0.0-137.0","5fed8f05e766bb017fbccc79","5fef55e628823a0076ec12ee","601f447d4bbde5497f884150","Mozilla/5.0 (Windows NT 10.0; Win64; x64) AppleWebKit/537.36 (KHTML, like Gecko) Chrome/88.0.4324.146 Safari/537.36","v1","","","","","","","","40,50,60,70,80","media/audio/stims/spherical_300cm_s20_c20_cd-full_matched_a40.wav","spherical","20","20","full","matched","40","80","1290"
"block-bookend","138","678896","0.0-138.0","5fed8f05e766bb017fbccc79","5fef55e628823a0076ec12ee","601f447d4bbde5497f884150","Mozilla/5.0 (Windows NT 10.0; Win64; x64) AppleWebKit/537.36 (KHTML, like Gecko) Chrome/88.0.4324.146 Safari/537.36","v1","","","","","","","","","","","","","","","","",""
