"trial_type","trial_index","time_elapsed","internal_node_id","prolificPid","studyId","sessionId","userAgent","version","rt","stimulus","key_press","chosenKeyset","failureCount","testIndex","globalVolume","choices","filename","modelName","slowdown","compensation","compensationDescriptor","receiverOrientationType","azimuth","responseAzimuth","responseDelay"
"pavlovia","0","6","0.0-0.0","5de3fa3c81d8213fc6792131","60242478c74f84097a222710","602425ff409736097464bbb0","Mozilla/5.0 (Windows NT 10.0; Win64; x64) AppleWebKit/537.36 (KHTML, like Gecko) Chrome/88.0.4324.150 Safari/537.36","v1-up-stims","","","","","","","","","","","","","","","","",""
"html-keyboard-response","1","1611","0.0-1.0","5de3fa3c81d8213fc6792131","60242478c74f84097a222710","602425ff409736097464bbb0","Mozilla/5.0 (Windows NT 10.0; Win64; x64) AppleWebKit/537.36 (KHTML, like Gecko) Chrome/88.0.4324.150 Safari/537.36","v1-up-stims","1601.9349999260157","<div><h1>Welcome!</h1><p>Press any key to continue.</p></div>","76","","","","","","","","","","","","","",""
"consent-form","2","36807","0.0-2.0","5de3fa3c81d8213fc6792131","60242478c74f84097a222710","602425ff409736097464bbb0","Mozilla/5.0 (Windows NT 10.0; Win64; x64) AppleWebKit/537.36 (KHTML, like Gecko) Chrome/88.0.4324.150 Safari/537.36","v1-up-stims","","","","","","","","","","","","","","","","",""
"keyset-select","3","63487","0.0-3.0","5de3fa3c81d8213fc6792131","60242478c74f84097a222710","602425ff409736097464bbb0","Mozilla/5.0 (Windows NT 10.0; Win64; x64) AppleWebKit/537.36 (KHTML, like Gecko) Chrome/88.0.4324.150 Safari/537.36","v1-up-stims","","","","left-hand","","","","","","","","","","","","",""
"headphone-check","4","141214","0.0-4.0","5de3fa3c81d8213fc6792131","60242478c74f84097a222710","602425ff409736097464bbb0","Mozilla/5.0 (Windows NT 10.0; Win64; x64) AppleWebKit/537.36 (KHTML, like Gecko) Chrome/88.0.4324.150 Safari/537.36","v1-up-stims","","","","","0","6","0.3","","","","","","","","","",""
"headphone-backwards-check","5","151323","0.0-5.0","5de3fa3c81d8213fc6792131","60242478c74f84097a222710","602425ff409736097464bbb0","Mozilla/5.0 (Windows NT 10.0; Win64; x64) AppleWebKit/537.36 (KHTML, like Gecko) Chrome/88.0.4324.150 Safari/537.36","v1-up-stims","","","","","0","","","","","","","","","","","",""
"training","6","245344","0.0-6.0","5de3fa3c81d8213fc6792131","60242478c74f84097a222710","602425ff409736097464bbb0","Mozilla/5.0 (Windows NT 10.0; Win64; x64) AppleWebKit/537.36 (KHTML, like Gecko) Chrome/88.0.4324.150 Safari/537.36","v1-up-stims","","","","","","","","","","","","","","","","",""
"block-bookend","7","257346","0.0-7.0","5de3fa3c81d8213fc6792131","60242478c74f84097a222710","602425ff409736097464bbb0","Mozilla/5.0 (Windows NT 10.0; Win64; x64) AppleWebKit/537.36 (KHTML, like Gecko) Chrome/88.0.4324.150 Safari/537.36","v1-up-stims","","","","","","","","","","","","","","","","",""
"echo-presentation","8","266845","0.0-8.0","5de3fa3c81d8213fc6792131","60242478c74f84097a222710","602425ff409736097464bbb0","Mozilla/5.0 (Windows NT 10.0; Win64; x64) AppleWebKit/537.36 (KHTML, like Gecko) Chrome/88.0.4324.150 Safari/537.36","v1-up-stims","","","","","","","","-80,-70,-60,-50,-40","media/audio/stims/spherical_300cm_s20_c10_cd-half_matched_a-60.wav","spherical","20","10","half","matched","-60","-70","5982"
"echo-presentation","9","271331","0.0-9.0","5de3fa3c81d8213fc6792131","60242478c74f84097a222710","602425ff409736097464bbb0","Mozilla/5.0 (Windows NT 10.0; Win64; x64) AppleWebKit/537.36 (KHTML, like Gecko) Chrome/88.0.4324.150 Safari/537.36","v1-up-stims","","","","","","","","-80,-70,-60,-50,-40","media/audio/stims/spherical_300cm_s20_c10_cd-half_matched_a-70.wav","spherical","20","10","half","matched","-70","-60","2780"
"echo-presentation","10","274643","0.0-10.0","5de3fa3c81d8213fc6792131","60242478c74f84097a222710","602425ff409736097464bbb0","Mozilla/5.0 (Windows NT 10.0; Win64; x64) AppleWebKit/537.36 (KHTML, like Gecko) Chrome/88.0.4324.150 Safari/537.36","v1-up-stims","","","","","","","","-80,-70,-60,-50,-40","media/audio/stims/spherical_300cm_s20_c10_cd-half_matched_a-50.wav","spherical","20","10","half","matched","-50","-50","2240"
"echo-presentation","11","284031","0.0-11.0","5de3fa3c81d8213fc6792131","60242478c74f84097a222710","602425ff409736097464bbb0","Mozilla/5.0 (Windows NT 10.0; Win64; x64) AppleWebKit/537.36 (KHTML, like Gecko) Chrome/88.0.4324.150 Safari/537.36","v1-up-stims","","","","","","","","-80,-70,-60,-50,-40","media/audio/stims/spherical_300cm_s20_c10_cd-half_matched_a-70.wav","spherical","20","10","half","matched","-70","-60","8021"
"echo-presentation","12","287901","0.0-12.0","5de3fa3c81d8213fc6792131","60242478c74f84097a222710","602425ff409736097464bbb0","Mozilla/5.0 (Windows NT 10.0; Win64; x64) AppleWebKit/537.36 (KHTML, like Gecko) Chrome/88.0.4324.150 Safari/537.36","v1-up-stims","","","","","","","","-80,-70,-60,-50,-40","media/audio/stims/spherical_300cm_s20_c10_cd-half_matched_a-70.wav","spherical","20","10","half","matched","-70","-80","1776"
"echo-presentation","13","290521","0.0-13.0","5de3fa3c81d8213fc6792131","60242478c74f84097a222710","602425ff409736097464bbb0","Mozilla/5.0 (Windows NT 10.0; Win64; x64) AppleWebKit/537.36 (KHTML, like Gecko) Chrome/88.0.4324.150 Safari/537.36","v1-up-stims","","","","","","","","-80,-70,-60,-50,-40","media/audio/stims/spherical_300cm_s20_c10_cd-half_matched_a-50.wav","spherical","20","10","half","matched","-50","-80","1312"
"echo-presentation","14","294248","0.0-14.0","5de3fa3c81d8213fc6792131","60242478c74f84097a222710","602425ff409736097464bbb0","Mozilla/5.0 (Windows NT 10.0; Win64; x64) AppleWebKit/537.36 (KHTML, like Gecko) Chrome/88.0.4324.150 Safari/537.36","v1-up-stims","","","","","","","","-80,-70,-60,-50,-40","media/audio/stims/spherical_300cm_s20_c10_cd-half_matched_a-50.wav","spherical","20","10","half","matched","-50","-80","2797"
"echo-presentation","15","296858","0.0-15.0","5de3fa3c81d8213fc6792131","60242478c74f84097a222710","602425ff409736097464bbb0","Mozilla/5.0 (Windows NT 10.0; Win64; x64) AppleWebKit/537.36 (KHTML, like Gecko) Chrome/88.0.4324.150 Safari/537.36","v1-up-stims","","","","","","","","-80,-70,-60,-50,-40","media/audio/stims/spherical_300cm_s20_c10_cd-half_matched_a-80.wav","spherical","20","10","half","matched","-80","-80","1821"
"echo-presentation","16","299152","0.0-16.0","5de3fa3c81d8213fc6792131","60242478c74f84097a222710","602425ff409736097464bbb0","Mozilla/5.0 (Windows NT 10.0; Win64; x64) AppleWebKit/537.36 (KHTML, like Gecko) Chrome/88.0.4324.150 Safari/537.36","v1-up-stims","","","","","","","","-80,-70,-60,-50,-40","media/audio/stims/spherical_300cm_s20_c10_cd-half_matched_a-40.wav","spherical","20","10","half","matched","-40","-80","1309"
"echo-presentation","17","301291","0.0-17.0","5de3fa3c81d8213fc6792131","60242478c74f84097a222710","602425ff409736097464bbb0","Mozilla/5.0 (Windows NT 10.0; Win64; x64) AppleWebKit/537.36 (KHTML, like Gecko) Chrome/88.0.4324.150 Safari/537.36","v1-up-stims","","","","","","","","-80,-70,-60,-50,-40","media/audio/stims/spherical_300cm_s20_c10_cd-half_matched_a-60.wav","spherical","20","10","half","matched","-60","-70","1534"
"echo-presentation","18","304721","0.0-18.0","5de3fa3c81d8213fc6792131","60242478c74f84097a222710","602425ff409736097464bbb0","Mozilla/5.0 (Windows NT 10.0; Win64; x64) AppleWebKit/537.36 (KHTML, like Gecko) Chrome/88.0.4324.150 Safari/537.36","v1-up-stims","","","","","","","","-80,-70,-60,-50,-40","media/audio/stims/spherical_300cm_s20_c10_cd-half_matched_a-80.wav","spherical","20","10","half","matched","-80","-80","1859"
"echo-presentation","19","307202","0.0-19.0","5de3fa3c81d8213fc6792131","60242478c74f84097a222710","602425ff409736097464bbb0","Mozilla/5.0 (Windows NT 10.0; Win64; x64) AppleWebKit/537.36 (KHTML, like Gecko) Chrome/88.0.4324.150 Safari/537.36","v1-up-stims","","","","","","","","-80,-70,-60,-50,-40","media/audio/stims/spherical_300cm_s20_c10_cd-half_matched_a-40.wav","spherical","20","10","half","matched","-40","-60","1886"
"echo-presentation","20","310372","0.0-20.0","5de3fa3c81d8213fc6792131","60242478c74f84097a222710","602425ff409736097464bbb0","Mozilla/5.0 (Windows NT 10.0; Win64; x64) AppleWebKit/537.36 (KHTML, like Gecko) Chrome/88.0.4324.150 Safari/537.36","v1-up-stims","","","","","","","","-80,-70,-60,-50,-40","media/audio/stims/spherical_300cm_s20_c10_cd-half_matched_a-60.wav","spherical","20","10","half","matched","-60","-60","1439"
"echo-presentation","21","312201","0.0-21.0","5de3fa3c81d8213fc6792131","60242478c74f84097a222710","602425ff409736097464bbb0","Mozilla/5.0 (Windows NT 10.0; Win64; x64) AppleWebKit/537.36 (KHTML, like Gecko) Chrome/88.0.4324.150 Safari/537.36","v1-up-stims","","","","","","","","-80,-70,-60,-50,-40","media/audio/stims/spherical_300cm_s20_c10_cd-half_matched_a-40.wav","spherical","20","10","half","matched","-40","-80","1273"
"echo-presentation","22","314341","0.0-22.0","5de3fa3c81d8213fc6792131","60242478c74f84097a222710","602425ff409736097464bbb0","Mozilla/5.0 (Windows NT 10.0; Win64; x64) AppleWebKit/537.36 (KHTML, like Gecko) Chrome/88.0.4324.150 Safari/537.36","v1-up-stims","","","","","","","","-80,-70,-60,-50,-40","media/audio/stims/spherical_300cm_s20_c10_cd-half_matched_a-40.wav","spherical","20","10","half","matched","-40","-80","1613"
"echo-presentation","23","317796","0.0-23.0","5de3fa3c81d8213fc6792131","60242478c74f84097a222710","602425ff409736097464bbb0","Mozilla/5.0 (Windows NT 10.0; Win64; x64) AppleWebKit/537.36 (KHTML, like Gecko) Chrome/88.0.4324.150 Safari/537.36","v1-up-stims","","","","","","","","-80,-70,-60,-50,-40","media/audio/stims/spherical_300cm_s20_c10_cd-half_matched_a-70.wav","spherical","20","10","half","matched","-70","-60","1488"
"echo-presentation","24","321765","0.0-24.0","5de3fa3c81d8213fc6792131","60242478c74f84097a222710","602425ff409736097464bbb0","Mozilla/5.0 (Windows NT 10.0; Win64; x64) AppleWebKit/537.36 (KHTML, like Gecko) Chrome/88.0.4324.150 Safari/537.36","v1-up-stims","","","","","","","","-80,-70,-60,-50,-40","media/audio/stims/spherical_300cm_s20_c10_cd-half_matched_a-80.wav","spherical","20","10","half","matched","-80","-70","1414"
"echo-presentation","25","323600","0.0-25.0","5de3fa3c81d8213fc6792131","60242478c74f84097a222710","602425ff409736097464bbb0","Mozilla/5.0 (Windows NT 10.0; Win64; x64) AppleWebKit/537.36 (KHTML, like Gecko) Chrome/88.0.4324.150 Safari/537.36","v1-up-stims","","","","","","","","-80,-70,-60,-50,-40","media/audio/stims/spherical_300cm_s20_c10_cd-half_matched_a-60.wav","spherical","20","10","half","matched","-60","-70","1157"
"echo-presentation","26","326061","0.0-26.0","5de3fa3c81d8213fc6792131","60242478c74f84097a222710","602425ff409736097464bbb0","Mozilla/5.0 (Windows NT 10.0; Win64; x64) AppleWebKit/537.36 (KHTML, like Gecko) Chrome/88.0.4324.150 Safari/537.36","v1-up-stims","","","","","","","","-80,-70,-60,-50,-40","media/audio/stims/spherical_300cm_s20_c10_cd-half_matched_a-50.wav","spherical","20","10","half","matched","-50","-60","1339"
"echo-presentation","27","327841","0.0-27.0","5de3fa3c81d8213fc6792131","60242478c74f84097a222710","602425ff409736097464bbb0","Mozilla/5.0 (Windows NT 10.0; Win64; x64) AppleWebKit/537.36 (KHTML, like Gecko) Chrome/88.0.4324.150 Safari/537.36","v1-up-stims","","","","","","","","-80,-70,-60,-50,-40","media/audio/stims/spherical_300cm_s20_c10_cd-half_matched_a-80.wav","spherical","20","10","half","matched","-80","-80","1271"
"block-bookend","28","331270","0.0-28.0","5de3fa3c81d8213fc6792131","60242478c74f84097a222710","602425ff409736097464bbb0","Mozilla/5.0 (Windows NT 10.0; Win64; x64) AppleWebKit/537.36 (KHTML, like Gecko) Chrome/88.0.4324.150 Safari/537.36","v1-up-stims","","","","","","","","","","","","","","","","",""
"block-bookend","29","342330","0.0-29.0","5de3fa3c81d8213fc6792131","60242478c74f84097a222710","602425ff409736097464bbb0","Mozilla/5.0 (Windows NT 10.0; Win64; x64) AppleWebKit/537.36 (KHTML, like Gecko) Chrome/88.0.4324.150 Safari/537.36","v1-up-stims","","","","","","","","","","","","","","","","",""
"echo-presentation","30","349202","0.0-30.0","5de3fa3c81d8213fc6792131","60242478c74f84097a222710","602425ff409736097464bbb0","Mozilla/5.0 (Windows NT 10.0; Win64; x64) AppleWebKit/537.36 (KHTML, like Gecko) Chrome/88.0.4324.150 Safari/537.36","v1-up-stims","","","","","","","","-80,-70,-60,-50,-40","media/audio/stims/spherical_300cm_s20_c10_cd-half_matched_a-40.wav","spherical","20","10","half","matched","-40","-70","4057"
"echo-presentation","31","352232","0.0-31.0","5de3fa3c81d8213fc6792131","60242478c74f84097a222710","602425ff409736097464bbb0","Mozilla/5.0 (Windows NT 10.0; Win64; x64) AppleWebKit/537.36 (KHTML, like Gecko) Chrome/88.0.4324.150 Safari/537.36","v1-up-stims","","","","","","","","-80,-70,-60,-50,-40","media/audio/stims/spherical_300cm_s20_c10_cd-half_matched_a-50.wav","spherical","20","10","half","matched","-50","-70","1522"
"echo-presentation","32","354222","0.0-32.0","5de3fa3c81d8213fc6792131","60242478c74f84097a222710","602425ff409736097464bbb0","Mozilla/5.0 (Windows NT 10.0; Win64; x64) AppleWebKit/537.36 (KHTML, like Gecko) Chrome/88.0.4324.150 Safari/537.36","v1-up-stims","","","","","","","","-80,-70,-60,-50,-40","media/audio/stims/spherical_300cm_s20_c10_cd-half_matched_a-50.wav","spherical","20","10","half","matched","-50","-70","1453"
"echo-presentation","33","356282","0.0-33.0","5de3fa3c81d8213fc6792131","60242478c74f84097a222710","602425ff409736097464bbb0","Mozilla/5.0 (Windows NT 10.0; Win64; x64) AppleWebKit/537.36 (KHTML, like Gecko) Chrome/88.0.4324.150 Safari/537.36","v1-up-stims","","","","","","","","-80,-70,-60,-50,-40","media/audio/stims/spherical_300cm_s20_c10_cd-half_matched_a-70.wav","spherical","20","10","half","matched","-70","-60","1525"
"echo-presentation","34","359111","0.0-34.0","5de3fa3c81d8213fc6792131","60242478c74f84097a222710","602425ff409736097464bbb0","Mozilla/5.0 (Windows NT 10.0; Win64; x64) AppleWebKit/537.36 (KHTML, like Gecko) Chrome/88.0.4324.150 Safari/537.36","v1-up-stims","","","","","","","","-80,-70,-60,-50,-40","media/audio/stims/spherical_300cm_s20_c10_cd-half_matched_a-80.wav","spherical","20","10","half","matched","-80","-80","1161"
"echo-presentation","35","361892","0.0-35.0","5de3fa3c81d8213fc6792131","60242478c74f84097a222710","602425ff409736097464bbb0","Mozilla/5.0 (Windows NT 10.0; Win64; x64) AppleWebKit/537.36 (KHTML, like Gecko) Chrome/88.0.4324.150 Safari/537.36","v1-up-stims","","","","","","","","-80,-70,-60,-50,-40","media/audio/stims/spherical_300cm_s20_c10_cd-half_matched_a-60.wav","spherical","20","10","half","matched","-60","-80","1809"
"echo-presentation","36","363694","0.0-36.0","5de3fa3c81d8213fc6792131","60242478c74f84097a222710","602425ff409736097464bbb0","Mozilla/5.0 (Windows NT 10.0; Win64; x64) AppleWebKit/537.36 (KHTML, like Gecko) Chrome/88.0.4324.150 Safari/537.36","v1-up-stims","","","","","","","","-80,-70,-60,-50,-40","media/audio/stims/spherical_300cm_s20_c10_cd-half_matched_a-50.wav","spherical","20","10","half","matched","-50","-70","1251"
"echo-presentation","37","367521","0.0-37.0","5de3fa3c81d8213fc6792131","60242478c74f84097a222710","602425ff409736097464bbb0","Mozilla/5.0 (Windows NT 10.0; Win64; x64) AppleWebKit/537.36 (KHTML, like Gecko) Chrome/88.0.4324.150 Safari/537.36","v1-up-stims","","","","","","","","-80,-70,-60,-50,-40","media/audio/stims/spherical_300cm_s20_c10_cd-half_matched_a-50.wav","spherical","20","10","half","matched","-50","-80","2180"
"echo-presentation","38","370992","0.0-38.0","5de3fa3c81d8213fc6792131","60242478c74f84097a222710","602425ff409736097464bbb0","Mozilla/5.0 (Windows NT 10.0; Win64; x64) AppleWebKit/537.36 (KHTML, like Gecko) Chrome/88.0.4324.150 Safari/537.36","v1-up-stims","","","","","","","","-80,-70,-60,-50,-40","media/audio/stims/spherical_300cm_s20_c10_cd-half_matched_a-70.wav","spherical","20","10","half","matched","-70","-70","1513"
"echo-presentation","39","373733","0.0-39.0","5de3fa3c81d8213fc6792131","60242478c74f84097a222710","602425ff409736097464bbb0","Mozilla/5.0 (Windows NT 10.0; Win64; x64) AppleWebKit/537.36 (KHTML, like Gecko) Chrome/88.0.4324.150 Safari/537.36","v1-up-stims","","","","","","","","-80,-70,-60,-50,-40","media/audio/stims/spherical_300cm_s20_c10_cd-half_matched_a-80.wav","spherical","20","10","half","matched","-80","-70","1682"
"echo-presentation","40","375850","0.0-40.0","5de3fa3c81d8213fc6792131","60242478c74f84097a222710","602425ff409736097464bbb0","Mozilla/5.0 (Windows NT 10.0; Win64; x64) AppleWebKit/537.36 (KHTML, like Gecko) Chrome/88.0.4324.150 Safari/537.36","v1-up-stims","","","","","","","","-80,-70,-60,-50,-40","media/audio/stims/spherical_300cm_s20_c10_cd-half_matched_a-70.wav","spherical","20","10","half","matched","-70","-70","1519"
"echo-presentation","41","378250","0.0-41.0","5de3fa3c81d8213fc6792131","60242478c74f84097a222710","602425ff409736097464bbb0","Mozilla/5.0 (Windows NT 10.0; Win64; x64) AppleWebKit/537.36 (KHTML, like Gecko) Chrome/88.0.4324.150 Safari/537.36","v1-up-stims","","","","","","","","-80,-70,-60,-50,-40","media/audio/stims/spherical_300cm_s20_c10_cd-half_matched_a-80.wav","spherical","20","10","half","matched","-80","-80","1226"
"echo-presentation","42","381080","0.0-42.0","5de3fa3c81d8213fc6792131","60242478c74f84097a222710","602425ff409736097464bbb0","Mozilla/5.0 (Windows NT 10.0; Win64; x64) AppleWebKit/537.36 (KHTML, like Gecko) Chrome/88.0.4324.150 Safari/537.36","v1-up-stims","","","","","","","","-80,-70,-60,-50,-40","media/audio/stims/spherical_300cm_s20_c10_cd-half_matched_a-40.wav","spherical","20","10","half","matched","-40","-50","1861"
"echo-presentation","43","384180","0.0-43.0","5de3fa3c81d8213fc6792131","60242478c74f84097a222710","602425ff409736097464bbb0","Mozilla/5.0 (Windows NT 10.0; Win64; x64) AppleWebKit/537.36 (KHTML, like Gecko) Chrome/88.0.4324.150 Safari/537.36","v1-up-stims","","","","","","","","-80,-70,-60,-50,-40","media/audio/stims/spherical_300cm_s20_c10_cd-half_matched_a-40.wav","spherical","20","10","half","matched","-40","-60","1469"
"echo-presentation","44","386020","0.0-44.0","5de3fa3c81d8213fc6792131","60242478c74f84097a222710","602425ff409736097464bbb0","Mozilla/5.0 (Windows NT 10.0; Win64; x64) AppleWebKit/537.36 (KHTML, like Gecko) Chrome/88.0.4324.150 Safari/537.36","v1-up-stims","","","","","","","","-80,-70,-60,-50,-40","media/audio/stims/spherical_300cm_s20_c10_cd-half_matched_a-60.wav","spherical","20","10","half","matched","-60","-60","1282"
"echo-presentation","45","387933","0.0-45.0","5de3fa3c81d8213fc6792131","60242478c74f84097a222710","602425ff409736097464bbb0","Mozilla/5.0 (Windows NT 10.0; Win64; x64) AppleWebKit/537.36 (KHTML, like Gecko) Chrome/88.0.4324.150 Safari/537.36","v1-up-stims","","","","","","","","-80,-70,-60,-50,-40","media/audio/stims/spherical_300cm_s20_c10_cd-half_matched_a-40.wav","spherical","20","10","half","matched","-40","-70","1393"
"echo-presentation","46","389560","0.0-46.0","5de3fa3c81d8213fc6792131","60242478c74f84097a222710","602425ff409736097464bbb0","Mozilla/5.0 (Windows NT 10.0; Win64; x64) AppleWebKit/537.36 (KHTML, like Gecko) Chrome/88.0.4324.150 Safari/537.36","v1-up-stims","","","","","","","","-80,-70,-60,-50,-40","media/audio/stims/spherical_300cm_s20_c10_cd-half_matched_a-60.wav","spherical","20","10","half","matched","-60","-70","1081"
"echo-presentation","47","391850","0.0-47.0","5de3fa3c81d8213fc6792131","60242478c74f84097a222710","602425ff409736097464bbb0","Mozilla/5.0 (Windows NT 10.0; Win64; x64) AppleWebKit/537.36 (KHTML, like Gecko) Chrome/88.0.4324.150 Safari/537.36","v1-up-stims","","","","","","","","-80,-70,-60,-50,-40","media/audio/stims/spherical_300cm_s20_c10_cd-half_matched_a-80.wav","spherical","20","10","half","matched","-80","-60","1583"
"echo-presentation","48","394902","0.0-48.0","5de3fa3c81d8213fc6792131","60242478c74f84097a222710","602425ff409736097464bbb0","Mozilla/5.0 (Windows NT 10.0; Win64; x64) AppleWebKit/537.36 (KHTML, like Gecko) Chrome/88.0.4324.150 Safari/537.36","v1-up-stims","","","","","","","","-80,-70,-60,-50,-40","media/audio/stims/spherical_300cm_s20_c10_cd-half_matched_a-70.wav","spherical","20","10","half","matched","-70","-80","1434"
"echo-presentation","49","397150","0.0-49.0","5de3fa3c81d8213fc6792131","60242478c74f84097a222710","602425ff409736097464bbb0","Mozilla/5.0 (Windows NT 10.0; Win64; x64) AppleWebKit/537.36 (KHTML, like Gecko) Chrome/88.0.4324.150 Safari/537.36","v1-up-stims","","","","","","","","-80,-70,-60,-50,-40","media/audio/stims/spherical_300cm_s20_c10_cd-half_matched_a-60.wav","spherical","20","10","half","matched","-60","-80","1297"
"block-bookend","50","399253","0.0-50.0","5de3fa3c81d8213fc6792131","60242478c74f84097a222710","602425ff409736097464bbb0","Mozilla/5.0 (Windows NT 10.0; Win64; x64) AppleWebKit/537.36 (KHTML, like Gecko) Chrome/88.0.4324.150 Safari/537.36","v1-up-stims","","","","","","","","","","","","","","","","",""
"block-bookend","51","410396","0.0-51.0","5de3fa3c81d8213fc6792131","60242478c74f84097a222710","602425ff409736097464bbb0","Mozilla/5.0 (Windows NT 10.0; Win64; x64) AppleWebKit/537.36 (KHTML, like Gecko) Chrome/88.0.4324.150 Safari/537.36","v1-up-stims","","","","","","","","","","","","","","","","",""
"echo-presentation","52","417730","0.0-52.0","5de3fa3c81d8213fc6792131","60242478c74f84097a222710","602425ff409736097464bbb0","Mozilla/5.0 (Windows NT 10.0; Win64; x64) AppleWebKit/537.36 (KHTML, like Gecko) Chrome/88.0.4324.150 Safari/537.36","v1-up-stims","","","","","","","","40,50,60,70,80","media/audio/stims/spherical_300cm_s20_c10_cd-half_matched_a50.wav","spherical","20","10","half","matched","50","60","4174"
"echo-presentation","53","420440","0.0-53.0","5de3fa3c81d8213fc6792131","60242478c74f84097a222710","602425ff409736097464bbb0","Mozilla/5.0 (Windows NT 10.0; Win64; x64) AppleWebKit/537.36 (KHTML, like Gecko) Chrome/88.0.4324.150 Safari/537.36","v1-up-stims","","","","","","","","40,50,60,70,80","media/audio/stims/spherical_300cm_s20_c10_cd-half_matched_a40.wav","spherical","20","10","half","matched","40","80","1572"
"echo-presentation","54","424139","0.0-54.0","5de3fa3c81d8213fc6792131","60242478c74f84097a222710","602425ff409736097464bbb0","Mozilla/5.0 (Windows NT 10.0; Win64; x64) AppleWebKit/537.36 (KHTML, like Gecko) Chrome/88.0.4324.150 Safari/537.36","v1-up-stims","","","","","","","","40,50,60,70,80","media/audio/stims/spherical_300cm_s20_c10_cd-half_matched_a40.wav","spherical","20","10","half","matched","40","70","2532"
"echo-presentation","55","426692","0.0-55.0","5de3fa3c81d8213fc6792131","60242478c74f84097a222710","602425ff409736097464bbb0","Mozilla/5.0 (Windows NT 10.0; Win64; x64) AppleWebKit/537.36 (KHTML, like Gecko) Chrome/88.0.4324.150 Safari/537.36","v1-up-stims","","","","","","","","40,50,60,70,80","media/audio/stims/spherical_300cm_s20_c10_cd-half_matched_a60.wav","spherical","20","10","half","matched","60","60","1576"
"echo-presentation","56","429130","0.0-56.0","5de3fa3c81d8213fc6792131","60242478c74f84097a222710","602425ff409736097464bbb0","Mozilla/5.0 (Windows NT 10.0; Win64; x64) AppleWebKit/537.36 (KHTML, like Gecko) Chrome/88.0.4324.150 Safari/537.36","v1-up-stims","","","","","","","","40,50,60,70,80","media/audio/stims/spherical_300cm_s20_c10_cd-half_matched_a70.wav","spherical","20","10","half","matched","70","70","1408"
"echo-presentation","57","431380","0.0-57.0","5de3fa3c81d8213fc6792131","60242478c74f84097a222710","602425ff409736097464bbb0","Mozilla/5.0 (Windows NT 10.0; Win64; x64) AppleWebKit/537.36 (KHTML, like Gecko) Chrome/88.0.4324.150 Safari/537.36","v1-up-stims","","","","","","","","40,50,60,70,80","media/audio/stims/spherical_300cm_s20_c10_cd-half_matched_a80.wav","spherical","20","10","half","matched","80","70","1287"
"echo-presentation","58","433441","0.0-58.0","5de3fa3c81d8213fc6792131","60242478c74f84097a222710","602425ff409736097464bbb0","Mozilla/5.0 (Windows NT 10.0; Win64; x64) AppleWebKit/537.36 (KHTML, like Gecko) Chrome/88.0.4324.150 Safari/537.36","v1-up-stims","","","","","","","","40,50,60,70,80","media/audio/stims/spherical_300cm_s20_c10_cd-half_matched_a70.wav","spherical","20","10","half","matched","70","70","1136"
"echo-presentation","59","435648","0.0-59.0","5de3fa3c81d8213fc6792131","60242478c74f84097a222710","602425ff409736097464bbb0","Mozilla/5.0 (Windows NT 10.0; Win64; x64) AppleWebKit/537.36 (KHTML, like Gecko) Chrome/88.0.4324.150 Safari/537.36","v1-up-stims","","","","","","","","40,50,60,70,80","media/audio/stims/spherical_300cm_s20_c10_cd-half_matched_a50.wav","spherical","20","10","half","matched","50","60","1391"
"echo-presentation","60","437801","0.0-60.0","5de3fa3c81d8213fc6792131","60242478c74f84097a222710","602425ff409736097464bbb0","Mozilla/5.0 (Windows NT 10.0; Win64; x64) AppleWebKit/537.36 (KHTML, like Gecko) Chrome/88.0.4324.150 Safari/537.36","v1-up-stims","","","","","","","","40,50,60,70,80","media/audio/stims/spherical_300cm_s20_c10_cd-half_matched_a40.wav","spherical","20","10","half","matched","40","60","1237"
"echo-presentation","61","439801","0.0-61.0","5de3fa3c81d8213fc6792131","60242478c74f84097a222710","602425ff409736097464bbb0","Mozilla/5.0 (Windows NT 10.0; Win64; x64) AppleWebKit/537.36 (KHTML, like Gecko) Chrome/88.0.4324.150 Safari/537.36","v1-up-stims","","","","","","","","40,50,60,70,80","media/audio/stims/spherical_300cm_s20_c10_cd-half_matched_a50.wav","spherical","20","10","half","matched","50","70","1476"
"echo-presentation","62","441813","0.0-62.0","5de3fa3c81d8213fc6792131","60242478c74f84097a222710","602425ff409736097464bbb0","Mozilla/5.0 (Windows NT 10.0; Win64; x64) AppleWebKit/537.36 (KHTML, like Gecko) Chrome/88.0.4324.150 Safari/537.36","v1-up-stims","","","","","","","","40,50,60,70,80","media/audio/stims/spherical_300cm_s20_c10_cd-half_matched_a60.wav","spherical","20","10","half","matched","60","70","1363"
"echo-presentation","63","444181","0.0-63.0","5de3fa3c81d8213fc6792131","60242478c74f84097a222710","602425ff409736097464bbb0","Mozilla/5.0 (Windows NT 10.0; Win64; x64) AppleWebKit/537.36 (KHTML, like Gecko) Chrome/88.0.4324.150 Safari/537.36","v1-up-stims","","","","","","","","40,50,60,70,80","media/audio/stims/spherical_300cm_s20_c10_cd-half_matched_a80.wav","spherical","20","10","half","matched","80","80","1386"
"echo-presentation","64","447061","0.0-64.0","5de3fa3c81d8213fc6792131","60242478c74f84097a222710","602425ff409736097464bbb0","Mozilla/5.0 (Windows NT 10.0; Win64; x64) AppleWebKit/537.36 (KHTML, like Gecko) Chrome/88.0.4324.150 Safari/537.36","v1-up-stims","","","","","","","","40,50,60,70,80","media/audio/stims/spherical_300cm_s20_c10_cd-half_matched_a80.wav","spherical","20","10","half","matched","80","80","1955"
"echo-presentation","65","449181","0.0-65.0","5de3fa3c81d8213fc6792131","60242478c74f84097a222710","602425ff409736097464bbb0","Mozilla/5.0 (Windows NT 10.0; Win64; x64) AppleWebKit/537.36 (KHTML, like Gecko) Chrome/88.0.4324.150 Safari/537.36","v1-up-stims","","","","","","","","40,50,60,70,80","media/audio/stims/spherical_300cm_s20_c10_cd-half_matched_a60.wav","spherical","20","10","half","matched","60","60","1133"
"echo-presentation","66","453627","0.0-66.0","5de3fa3c81d8213fc6792131","60242478c74f84097a222710","602425ff409736097464bbb0","Mozilla/5.0 (Windows NT 10.0; Win64; x64) AppleWebKit/537.36 (KHTML, like Gecko) Chrome/88.0.4324.150 Safari/537.36","v1-up-stims","","","","","","","","40,50,60,70,80","media/audio/stims/spherical_300cm_s20_c10_cd-half_matched_a60.wav","spherical","20","10","half","matched","60","60","1407"
"echo-presentation","67","455901","0.0-67.0","5de3fa3c81d8213fc6792131","60242478c74f84097a222710","602425ff409736097464bbb0","Mozilla/5.0 (Windows NT 10.0; Win64; x64) AppleWebKit/537.36 (KHTML, like Gecko) Chrome/88.0.4324.150 Safari/537.36","v1-up-stims","","","","","","","","40,50,60,70,80","media/audio/stims/spherical_300cm_s20_c10_cd-half_matched_a70.wav","spherical","20","10","half","matched","70","60","1336"
"echo-presentation","68","458182","0.0-68.0","5de3fa3c81d8213fc6792131","60242478c74f84097a222710","602425ff409736097464bbb0","Mozilla/5.0 (Windows NT 10.0; Win64; x64) AppleWebKit/537.36 (KHTML, like Gecko) Chrome/88.0.4324.150 Safari/537.36","v1-up-stims","","","","","","","","40,50,60,70,80","media/audio/stims/spherical_300cm_s20_c10_cd-half_matched_a50.wav","spherical","20","10","half","matched","50","60","1152"
"echo-presentation","69","460471","0.0-69.0","5de3fa3c81d8213fc6792131","60242478c74f84097a222710","602425ff409736097464bbb0","Mozilla/5.0 (Windows NT 10.0; Win64; x64) AppleWebKit/537.36 (KHTML, like Gecko) Chrome/88.0.4324.150 Safari/537.36","v1-up-stims","","","","","","","","40,50,60,70,80","media/audio/stims/spherical_300cm_s20_c10_cd-half_matched_a80.wav","spherical","20","10","half","matched","80","60","1435"
"echo-presentation","70","462572","0.0-70.0","5de3fa3c81d8213fc6792131","60242478c74f84097a222710","602425ff409736097464bbb0","Mozilla/5.0 (Windows NT 10.0; Win64; x64) AppleWebKit/537.36 (KHTML, like Gecko) Chrome/88.0.4324.150 Safari/537.36","v1-up-stims","","","","","","","","40,50,60,70,80","media/audio/stims/spherical_300cm_s20_c10_cd-half_matched_a70.wav","spherical","20","10","half","matched","70","80","1265"
"echo-presentation","71","465201","0.0-71.0","5de3fa3c81d8213fc6792131","60242478c74f84097a222710","602425ff409736097464bbb0","Mozilla/5.0 (Windows NT 10.0; Win64; x64) AppleWebKit/537.36 (KHTML, like Gecko) Chrome/88.0.4324.150 Safari/537.36","v1-up-stims","","","","","","","","40,50,60,70,80","media/audio/stims/spherical_300cm_s20_c10_cd-half_matched_a40.wav","spherical","20","10","half","matched","40","70","1683"
"block-bookend","72","467772","0.0-72.0","5de3fa3c81d8213fc6792131","60242478c74f84097a222710","602425ff409736097464bbb0","Mozilla/5.0 (Windows NT 10.0; Win64; x64) AppleWebKit/537.36 (KHTML, like Gecko) Chrome/88.0.4324.150 Safari/537.36","v1-up-stims","","","","","","","","","","","","","","","","",""
"block-bookend","73","477599","0.0-73.0","5de3fa3c81d8213fc6792131","60242478c74f84097a222710","602425ff409736097464bbb0","Mozilla/5.0 (Windows NT 10.0; Win64; x64) AppleWebKit/537.36 (KHTML, like Gecko) Chrome/88.0.4324.150 Safari/537.36","v1-up-stims","","","","","","","","","","","","","","","","",""
"echo-presentation","74","481764","0.0-74.0","5de3fa3c81d8213fc6792131","60242478c74f84097a222710","602425ff409736097464bbb0","Mozilla/5.0 (Windows NT 10.0; Win64; x64) AppleWebKit/537.36 (KHTML, like Gecko) Chrome/88.0.4324.150 Safari/537.36","v1-up-stims","","","","","","","","40,50,60,70,80","media/audio/stims/spherical_300cm_s20_c10_cd-half_matched_a50.wav","spherical","20","10","half","matched","50","70","1541"
"echo-presentation","75","484291","0.0-75.0","5de3fa3c81d8213fc6792131","60242478c74f84097a222710","602425ff409736097464bbb0","Mozilla/5.0 (Windows NT 10.0; Win64; x64) AppleWebKit/537.36 (KHTML, like Gecko) Chrome/88.0.4324.150 Safari/537.36","v1-up-stims","","","","","","","","40,50,60,70,80","media/audio/stims/spherical_300cm_s20_c10_cd-half_matched_a80.wav","spherical","20","10","half","matched","80","80","1396"
"echo-presentation","76","486861","0.0-76.0","5de3fa3c81d8213fc6792131","60242478c74f84097a222710","602425ff409736097464bbb0","Mozilla/5.0 (Windows NT 10.0; Win64; x64) AppleWebKit/537.36 (KHTML, like Gecko) Chrome/88.0.4324.150 Safari/537.36","v1-up-stims","","","","","","","","40,50,60,70,80","media/audio/stims/spherical_300cm_s20_c10_cd-half_matched_a60.wav","spherical","20","10","half","matched","60","80","1476"
"echo-presentation","77","488861","0.0-77.0","5de3fa3c81d8213fc6792131","60242478c74f84097a222710","602425ff409736097464bbb0","Mozilla/5.0 (Windows NT 10.0; Win64; x64) AppleWebKit/537.36 (KHTML, like Gecko) Chrome/88.0.4324.150 Safari/537.36","v1-up-stims","","","","","","","","40,50,60,70,80","media/audio/stims/spherical_300cm_s20_c10_cd-half_matched_a50.wav","spherical","20","10","half","matched","50","60","1177"
"echo-presentation","78","491242","0.0-78.0","5de3fa3c81d8213fc6792131","60242478c74f84097a222710","602425ff409736097464bbb0","Mozilla/5.0 (Windows NT 10.0; Win64; x64) AppleWebKit/537.36 (KHTML, like Gecko) Chrome/88.0.4324.150 Safari/537.36","v1-up-stims","","","","","","","","40,50,60,70,80","media/audio/stims/spherical_300cm_s20_c10_cd-half_matched_a40.wav","spherical","20","10","half","matched","40","50","1223"
"echo-presentation","79","493471","0.0-79.0","5de3fa3c81d8213fc6792131","60242478c74f84097a222710","602425ff409736097464bbb0","Mozilla/5.0 (Windows NT 10.0; Win64; x64) AppleWebKit/537.36 (KHTML, like Gecko) Chrome/88.0.4324.150 Safari/537.36","v1-up-stims","","","","","","","","40,50,60,70,80","media/audio/stims/spherical_300cm_s20_c10_cd-half_matched_a40.wav","spherical","20","10","half","matched","40","60","1323"
"echo-presentation","80","495492","0.0-80.0","5de3fa3c81d8213fc6792131","60242478c74f84097a222710","602425ff409736097464bbb0","Mozilla/5.0 (Windows NT 10.0; Win64; x64) AppleWebKit/537.36 (KHTML, like Gecko) Chrome/88.0.4324.150 Safari/537.36","v1-up-stims","","","","","","","","40,50,60,70,80","media/audio/stims/spherical_300cm_s20_c10_cd-half_matched_a70.wav","spherical","20","10","half","matched","70","80","1118"
"echo-presentation","81","497472","0.0-81.0","5de3fa3c81d8213fc6792131","60242478c74f84097a222710","602425ff409736097464bbb0","Mozilla/5.0 (Windows NT 10.0; Win64; x64) AppleWebKit/537.36 (KHTML, like Gecko) Chrome/88.0.4324.150 Safari/537.36","v1-up-stims","","","","","","","","40,50,60,70,80","media/audio/stims/spherical_300cm_s20_c10_cd-half_matched_a70.wav","spherical","20","10","half","matched","70","80","1124"
"echo-presentation","82","499251","0.0-82.0","5de3fa3c81d8213fc6792131","60242478c74f84097a222710","602425ff409736097464bbb0","Mozilla/5.0 (Windows NT 10.0; Win64; x64) AppleWebKit/537.36 (KHTML, like Gecko) Chrome/88.0.4324.150 Safari/537.36","v1-up-stims","","","","","","","","40,50,60,70,80","media/audio/stims/spherical_300cm_s20_c10_cd-half_matched_a60.wav","spherical","20","10","half","matched","60","80","1144"
"echo-presentation","83","501617","0.0-83.0","5de3fa3c81d8213fc6792131","60242478c74f84097a222710","602425ff409736097464bbb0","Mozilla/5.0 (Windows NT 10.0; Win64; x64) AppleWebKit/537.36 (KHTML, like Gecko) Chrome/88.0.4324.150 Safari/537.36","v1-up-stims","","","","","","","","40,50,60,70,80","media/audio/stims/spherical_300cm_s20_c10_cd-half_matched_a50.wav","spherical","20","10","half","matched","50","60","1550"
"echo-presentation","84","503413","0.0-84.0","5de3fa3c81d8213fc6792131","60242478c74f84097a222710","602425ff409736097464bbb0","Mozilla/5.0 (Windows NT 10.0; Win64; x64) AppleWebKit/537.36 (KHTML, like Gecko) Chrome/88.0.4324.150 Safari/537.36","v1-up-stims","","","","","","","","40,50,60,70,80","media/audio/stims/spherical_300cm_s20_c10_cd-half_matched_a80.wav","spherical","20","10","half","matched","80","80","1127"
"echo-presentation","85","505052","0.0-85.0","5de3fa3c81d8213fc6792131","60242478c74f84097a222710","602425ff409736097464bbb0","Mozilla/5.0 (Windows NT 10.0; Win64; x64) AppleWebKit/537.36 (KHTML, like Gecko) Chrome/88.0.4324.150 Safari/537.36","v1-up-stims","","","","","","","","40,50,60,70,80","media/audio/stims/spherical_300cm_s20_c10_cd-half_matched_a80.wav","spherical","20","10","half","matched","80","80","1108"
"echo-presentation","86","507902","0.0-86.0","5de3fa3c81d8213fc6792131","60242478c74f84097a222710","602425ff409736097464bbb0","Mozilla/5.0 (Windows NT 10.0; Win64; x64) AppleWebKit/537.36 (KHTML, like Gecko) Chrome/88.0.4324.150 Safari/537.36","v1-up-stims","","","","","","","","40,50,60,70,80","media/audio/stims/spherical_300cm_s20_c10_cd-half_matched_a50.wav","spherical","20","10","half","matched","50","80","1462"
"echo-presentation","87","510052","0.0-87.0","5de3fa3c81d8213fc6792131","60242478c74f84097a222710","602425ff409736097464bbb0","Mozilla/5.0 (Windows NT 10.0; Win64; x64) AppleWebKit/537.36 (KHTML, like Gecko) Chrome/88.0.4324.150 Safari/537.36","v1-up-stims","","","","","","","","40,50,60,70,80","media/audio/stims/spherical_300cm_s20_c10_cd-half_matched_a40.wav","spherical","20","10","half","matched","40","70","1151"
"echo-presentation","88","512271","0.0-88.0","5de3fa3c81d8213fc6792131","60242478c74f84097a222710","602425ff409736097464bbb0","Mozilla/5.0 (Windows NT 10.0; Win64; x64) AppleWebKit/537.36 (KHTML, like Gecko) Chrome/88.0.4324.150 Safari/537.36","v1-up-stims","","","","","","","","40,50,60,70,80","media/audio/stims/spherical_300cm_s20_c10_cd-half_matched_a60.wav","spherical","20","10","half","matched","60","70","1114"
"echo-presentation","89","514321","0.0-89.0","5de3fa3c81d8213fc6792131","60242478c74f84097a222710","602425ff409736097464bbb0","Mozilla/5.0 (Windows NT 10.0; Win64; x64) AppleWebKit/537.36 (KHTML, like Gecko) Chrome/88.0.4324.150 Safari/537.36","v1-up-stims","","","","","","","","40,50,60,70,80","media/audio/stims/spherical_300cm_s20_c10_cd-half_matched_a80.wav","spherical","20","10","half","matched","80","70","1144"
"echo-presentation","90","516152","0.0-90.0","5de3fa3c81d8213fc6792131","60242478c74f84097a222710","602425ff409736097464bbb0","Mozilla/5.0 (Windows NT 10.0; Win64; x64) AppleWebKit/537.36 (KHTML, like Gecko) Chrome/88.0.4324.150 Safari/537.36","v1-up-stims","","","","","","","","40,50,60,70,80","media/audio/stims/spherical_300cm_s20_c10_cd-half_matched_a70.wav","spherical","20","10","half","matched","70","70","951"
"echo-presentation","91","518082","0.0-91.0","5de3fa3c81d8213fc6792131","60242478c74f84097a222710","602425ff409736097464bbb0","Mozilla/5.0 (Windows NT 10.0; Win64; x64) AppleWebKit/537.36 (KHTML, like Gecko) Chrome/88.0.4324.150 Safari/537.36","v1-up-stims","","","","","","","","40,50,60,70,80","media/audio/stims/spherical_300cm_s20_c10_cd-half_matched_a40.wav","spherical","20","10","half","matched","40","60","1100"
"echo-presentation","92","520291","0.0-92.0","5de3fa3c81d8213fc6792131","60242478c74f84097a222710","602425ff409736097464bbb0","Mozilla/5.0 (Windows NT 10.0; Win64; x64) AppleWebKit/537.36 (KHTML, like Gecko) Chrome/88.0.4324.150 Safari/537.36","v1-up-stims","","","","","","","","40,50,60,70,80","media/audio/stims/spherical_300cm_s20_c10_cd-half_matched_a70.wav","spherical","20","10","half","matched","70","70","1331"
"echo-presentation","93","522162","0.0-93.0","5de3fa3c81d8213fc6792131","60242478c74f84097a222710","602425ff409736097464bbb0","Mozilla/5.0 (Windows NT 10.0; Win64; x64) AppleWebKit/537.36 (KHTML, like Gecko) Chrome/88.0.4324.150 Safari/537.36","v1-up-stims","","","","","","","","40,50,60,70,80","media/audio/stims/spherical_300cm_s20_c10_cd-half_matched_a60.wav","spherical","20","10","half","matched","60","60","1185"
"block-bookend","94","524450","0.0-94.0","5de3fa3c81d8213fc6792131","60242478c74f84097a222710","602425ff409736097464bbb0","Mozilla/5.0 (Windows NT 10.0; Win64; x64) AppleWebKit/537.36 (KHTML, like Gecko) Chrome/88.0.4324.150 Safari/537.36","v1-up-stims","","","","","","","","","","","","","","","","",""
"block-bookend","95","530633","0.0-95.0","5de3fa3c81d8213fc6792131","60242478c74f84097a222710","602425ff409736097464bbb0","Mozilla/5.0 (Windows NT 10.0; Win64; x64) AppleWebKit/537.36 (KHTML, like Gecko) Chrome/88.0.4324.150 Safari/537.36","v1-up-stims","","","","","","","","","","","","","","","","",""
"echo-presentation","96","539012","0.0-96.0","5de3fa3c81d8213fc6792131","60242478c74f84097a222710","602425ff409736097464bbb0","Mozilla/5.0 (Windows NT 10.0; Win64; x64) AppleWebKit/537.36 (KHTML, like Gecko) Chrome/88.0.4324.150 Safari/537.36","v1-up-stims","","","","","","","","-20,-10,0,10,20","media/audio/stims/spherical_300cm_s20_c10_cd-half_matched_a10.wav","spherical","20","10","half","matched","10","10","5287"
"echo-presentation","97","541352","0.0-97.0","5de3fa3c81d8213fc6792131","60242478c74f84097a222710","602425ff409736097464bbb0","Mozilla/5.0 (Windows NT 10.0; Win64; x64) AppleWebKit/537.36 (KHTML, like Gecko) Chrome/88.0.4324.150 Safari/537.36","v1-up-stims","","","","","","","","-20,-10,0,10,20","media/audio/stims/spherical_300cm_s20_c10_cd-half_matched_a20.wav","spherical","20","10","half","matched","20","10","1334"
"echo-presentation","98","543521","0.0-98.0","5de3fa3c81d8213fc6792131","60242478c74f84097a222710","602425ff409736097464bbb0","Mozilla/5.0 (Windows NT 10.0; Win64; x64) AppleWebKit/537.36 (KHTML, like Gecko) Chrome/88.0.4324.150 Safari/537.36","v1-up-stims","","","","","","","","-20,-10,0,10,20","media/audio/stims/spherical_300cm_s20_c10_cd-half_matched_a10.wav","spherical","20","10","half","matched","10","10","1200"
"echo-presentation","99","548422","0.0-99.0","5de3fa3c81d8213fc6792131","60242478c74f84097a222710","602425ff409736097464bbb0","Mozilla/5.0 (Windows NT 10.0; Win64; x64) AppleWebKit/537.36 (KHTML, like Gecko) Chrome/88.0.4324.150 Safari/537.36","v1-up-stims","","","","","","","","-20,-10,0,10,20","media/audio/stims/spherical_300cm_s20_c10_cd-half_matched_a10.wav","spherical","20","10","half","matched","10","10","1098"
"echo-presentation","100","550562","0.0-100.0","5de3fa3c81d8213fc6792131","60242478c74f84097a222710","602425ff409736097464bbb0","Mozilla/5.0 (Windows NT 10.0; Win64; x64) AppleWebKit/537.36 (KHTML, like Gecko) Chrome/88.0.4324.150 Safari/537.36","v1-up-stims","","","","","","","","-20,-10,0,10,20","media/audio/stims/spherical_300cm_s20_c10_cd-half_matched_a20.wav","spherical","20","10","half","matched","20","10","1185"
"echo-presentation","101","552726","0.0-101.0","5de3fa3c81d8213fc6792131","60242478c74f84097a222710","602425ff409736097464bbb0","Mozilla/5.0 (Windows NT 10.0; Win64; x64) AppleWebKit/537.36 (KHTML, like Gecko) Chrome/88.0.4324.150 Safari/537.36","v1-up-stims","","","","","","","","-20,-10,0,10,20","media/audio/stims/spherical_300cm_s20_c10_cd-half_matched_a-10.wav","spherical","20","10","half","matched","-10","-10","1337"
"echo-presentation","102","554710","0.0-102.0","5de3fa3c81d8213fc6792131","60242478c74f84097a222710","602425ff409736097464bbb0","Mozilla/5.0 (Windows NT 10.0; Win64; x64) AppleWebKit/537.36 (KHTML, like Gecko) Chrome/88.0.4324.150 Safari/537.36","v1-up-stims","","","","","","","","-20,-10,0,10,20","media/audio/stims/spherical_300cm_s20_c10_cd-half_matched_a20.wav","spherical","20","10","half","matched","20","10","1139"
"echo-presentation","103","556649","0.0-103.0","5de3fa3c81d8213fc6792131","60242478c74f84097a222710","602425ff409736097464bbb0","Mozilla/5.0 (Windows NT 10.0; Win64; x64) AppleWebKit/537.36 (KHTML, like Gecko) Chrome/88.0.4324.150 Safari/537.36","v1-up-stims","","","","","","","","-20,-10,0,10,20","media/audio/stims/spherical_300cm_s20_c10_cd-half_matched_a-20.wav","spherical","20","10","half","matched","-20","-20","1078"
"echo-presentation","104","558981","0.0-104.0","5de3fa3c81d8213fc6792131","60242478c74f84097a222710","602425ff409736097464bbb0","Mozilla/5.0 (Windows NT 10.0; Win64; x64) AppleWebKit/537.36 (KHTML, like Gecko) Chrome/88.0.4324.150 Safari/537.36","v1-up-stims","","","","","","","","-20,-10,0,10,20","media/audio/stims/spherical_300cm_s20_c10_cd-half_matched_a-10.wav","spherical","20","10","half","matched","-10","-10","1306"
"echo-presentation","105","560572","0.0-105.0","5de3fa3c81d8213fc6792131","60242478c74f84097a222710","602425ff409736097464bbb0","Mozilla/5.0 (Windows NT 10.0; Win64; x64) AppleWebKit/537.36 (KHTML, like Gecko) Chrome/88.0.4324.150 Safari/537.36","v1-up-stims","","","","","","","","-20,-10,0,10,20","media/audio/stims/spherical_300cm_s20_c10_cd-half_matched_a-20.wav","spherical","20","10","half","matched","-20","-10","1074"
"echo-presentation","106","562602","0.0-106.0","5de3fa3c81d8213fc6792131","60242478c74f84097a222710","602425ff409736097464bbb0","Mozilla/5.0 (Windows NT 10.0; Win64; x64) AppleWebKit/537.36 (KHTML, like Gecko) Chrome/88.0.4324.150 Safari/537.36","v1-up-stims","","","","","","","","-20,-10,0,10,20","media/audio/stims/spherical_300cm_s20_c10_cd-half_matched_a0.wav","spherical","20","10","half","matched","0","-10","1051"
"echo-presentation","107","565192","0.0-107.0","5de3fa3c81d8213fc6792131","60242478c74f84097a222710","602425ff409736097464bbb0","Mozilla/5.0 (Windows NT 10.0; Win64; x64) AppleWebKit/537.36 (KHTML, like Gecko) Chrome/88.0.4324.150 Safari/537.36","v1-up-stims","","","","","","","","-20,-10,0,10,20","media/audio/stims/spherical_300cm_s20_c10_cd-half_matched_a0.wav","spherical","20","10","half","matched","0","-10","1614"
"echo-presentation","108","567571","0.0-108.0","5de3fa3c81d8213fc6792131","60242478c74f84097a222710","602425ff409736097464bbb0","Mozilla/5.0 (Windows NT 10.0; Win64; x64) AppleWebKit/537.36 (KHTML, like Gecko) Chrome/88.0.4324.150 Safari/537.36","v1-up-stims","","","","","","","","-20,-10,0,10,20","media/audio/stims/spherical_300cm_s20_c10_cd-half_matched_a20.wav","spherical","20","10","half","matched","20","-10","1501"
"echo-presentation","109","569704","0.0-109.0","5de3fa3c81d8213fc6792131","60242478c74f84097a222710","602425ff409736097464bbb0","Mozilla/5.0 (Windows NT 10.0; Win64; x64) AppleWebKit/537.36 (KHTML, like Gecko) Chrome/88.0.4324.150 Safari/537.36","v1-up-stims","","","","","","","","-20,-10,0,10,20","media/audio/stims/spherical_300cm_s20_c10_cd-half_matched_a-20.wav","spherical","20","10","half","matched","-20","-10","1270"
"echo-presentation","110","571657","0.0-110.0","5de3fa3c81d8213fc6792131","60242478c74f84097a222710","602425ff409736097464bbb0","Mozilla/5.0 (Windows NT 10.0; Win64; x64) AppleWebKit/537.36 (KHTML, like Gecko) Chrome/88.0.4324.150 Safari/537.36","v1-up-stims","","","","","","","","-20,-10,0,10,20","media/audio/stims/spherical_300cm_s20_c10_cd-half_matched_a0.wav","spherical","20","10","half","matched","0","0","1065"
"echo-presentation","111","574231","0.0-111.0","5de3fa3c81d8213fc6792131","60242478c74f84097a222710","602425ff409736097464bbb0","Mozilla/5.0 (Windows NT 10.0; Win64; x64) AppleWebKit/537.36 (KHTML, like Gecko) Chrome/88.0.4324.150 Safari/537.36","v1-up-stims","","","","","","","","-20,-10,0,10,20","media/audio/stims/spherical_300cm_s20_c10_cd-half_matched_a-10.wav","spherical","20","10","half","matched","-10","-10","1636"
"echo-presentation","112","576331","0.0-112.0","5de3fa3c81d8213fc6792131","60242478c74f84097a222710","602425ff409736097464bbb0","Mozilla/5.0 (Windows NT 10.0; Win64; x64) AppleWebKit/537.36 (KHTML, like Gecko) Chrome/88.0.4324.150 Safari/537.36","v1-up-stims","","","","","","","","-20,-10,0,10,20","media/audio/stims/spherical_300cm_s20_c10_cd-half_matched_a-20.wav","spherical","20","10","half","matched","-20","-10","1484"
"echo-presentation","113","578462","0.0-113.0","5de3fa3c81d8213fc6792131","60242478c74f84097a222710","602425ff409736097464bbb0","Mozilla/5.0 (Windows NT 10.0; Win64; x64) AppleWebKit/537.36 (KHTML, like Gecko) Chrome/88.0.4324.150 Safari/537.36","v1-up-stims","","","","","","","","-20,-10,0,10,20","media/audio/stims/spherical_300cm_s20_c10_cd-half_matched_a0.wav","spherical","20","10","half","matched","0","0","1266"
"echo-presentation","114","580211","0.0-114.0","5de3fa3c81d8213fc6792131","60242478c74f84097a222710","602425ff409736097464bbb0","Mozilla/5.0 (Windows NT 10.0; Win64; x64) AppleWebKit/537.36 (KHTML, like Gecko) Chrome/88.0.4324.150 Safari/537.36","v1-up-stims","","","","","","","","-20,-10,0,10,20","media/audio/stims/spherical_300cm_s20_c10_cd-half_matched_a-10.wav","spherical","20","10","half","matched","-10","-10","1007"
"echo-presentation","115","582181","0.0-115.0","5de3fa3c81d8213fc6792131","60242478c74f84097a222710","602425ff409736097464bbb0","Mozilla/5.0 (Windows NT 10.0; Win64; x64) AppleWebKit/537.36 (KHTML, like Gecko) Chrome/88.0.4324.150 Safari/537.36","v1-up-stims","","","","","","","","-20,-10,0,10,20","media/audio/stims/spherical_300cm_s20_c10_cd-half_matched_a10.wav","spherical","20","10","half","matched","10","-10","1125"
"block-bookend","116","583930","0.0-116.0","5de3fa3c81d8213fc6792131","60242478c74f84097a222710","602425ff409736097464bbb0","Mozilla/5.0 (Windows NT 10.0; Win64; x64) AppleWebKit/537.36 (KHTML, like Gecko) Chrome/88.0.4324.150 Safari/537.36","v1-up-stims","","","","","","","","","","","","","","","","",""
"block-bookend","117","587976","0.0-117.0","5de3fa3c81d8213fc6792131","60242478c74f84097a222710","602425ff409736097464bbb0","Mozilla/5.0 (Windows NT 10.0; Win64; x64) AppleWebKit/537.36 (KHTML, like Gecko) Chrome/88.0.4324.150 Safari/537.36","v1-up-stims","","","","","","","","","","","","","","","","",""
"echo-presentation","118","591141","0.0-118.0","5de3fa3c81d8213fc6792131","60242478c74f84097a222710","602425ff409736097464bbb0","Mozilla/5.0 (Windows NT 10.0; Win64; x64) AppleWebKit/537.36 (KHTML, like Gecko) Chrome/88.0.4324.150 Safari/537.36","v1-up-stims","","","","","","","","-20,-10,0,10,20","media/audio/stims/spherical_300cm_s20_c10_cd-half_matched_a20.wav","spherical","20","10","half","matched","20","0","980"
"echo-presentation","119","593371","0.0-119.0","5de3fa3c81d8213fc6792131","60242478c74f84097a222710","602425ff409736097464bbb0","Mozilla/5.0 (Windows NT 10.0; Win64; x64) AppleWebKit/537.36 (KHTML, like Gecko) Chrome/88.0.4324.150 Safari/537.36","v1-up-stims","","","","","","","","-20,-10,0,10,20","media/audio/stims/spherical_300cm_s20_c10_cd-half_matched_a10.wav","spherical","20","10","half","matched","10","10","1162"
"echo-presentation","120","595392","0.0-120.0","5de3fa3c81d8213fc6792131","60242478c74f84097a222710","602425ff409736097464bbb0","Mozilla/5.0 (Windows NT 10.0; Win64; x64) AppleWebKit/537.36 (KHTML, like Gecko) Chrome/88.0.4324.150 Safari/537.36","v1-up-stims","","","","","","","","-20,-10,0,10,20","media/audio/stims/spherical_300cm_s20_c10_cd-half_matched_a10.wav","spherical","20","10","half","matched","10","10","1034"
"echo-presentation","121","597352","0.0-121.0","5de3fa3c81d8213fc6792131","60242478c74f84097a222710","602425ff409736097464bbb0","Mozilla/5.0 (Windows NT 10.0; Win64; x64) AppleWebKit/537.36 (KHTML, like Gecko) Chrome/88.0.4324.150 Safari/537.36","v1-up-stims","","","","","","","","-20,-10,0,10,20","media/audio/stims/spherical_300cm_s20_c10_cd-half_matched_a0.wav","spherical","20","10","half","matched","0","10","938"
"echo-presentation","122","599222","0.0-122.0","5de3fa3c81d8213fc6792131","60242478c74f84097a222710","602425ff409736097464bbb0","Mozilla/5.0 (Windows NT 10.0; Win64; x64) AppleWebKit/537.36 (KHTML, like Gecko) Chrome/88.0.4324.150 Safari/537.36","v1-up-stims","","","","","","","","-20,-10,0,10,20","media/audio/stims/spherical_300cm_s20_c10_cd-half_matched_a-10.wav","spherical","20","10","half","matched","-10","-10","900"
"echo-presentation","123","601162","0.0-123.0","5de3fa3c81d8213fc6792131","60242478c74f84097a222710","602425ff409736097464bbb0","Mozilla/5.0 (Windows NT 10.0; Win64; x64) AppleWebKit/537.36 (KHTML, like Gecko) Chrome/88.0.4324.150 Safari/537.36","v1-up-stims","","","","","","","","-20,-10,0,10,20","media/audio/stims/spherical_300cm_s20_c10_cd-half_matched_a0.wav","spherical","20","10","half","matched","0","0","1018"
"echo-presentation","124","602962","0.0-124.0","5de3fa3c81d8213fc6792131","60242478c74f84097a222710","602425ff409736097464bbb0","Mozilla/5.0 (Windows NT 10.0; Win64; x64) AppleWebKit/537.36 (KHTML, like Gecko) Chrome/88.0.4324.150 Safari/537.36","v1-up-stims","","","","","","","","-20,-10,0,10,20","media/audio/stims/spherical_300cm_s20_c10_cd-half_matched_a-20.wav","spherical","20","10","half","matched","-20","-10","957"
"echo-presentation","125","604848","0.0-125.0","5de3fa3c81d8213fc6792131","60242478c74f84097a222710","602425ff409736097464bbb0","Mozilla/5.0 (Windows NT 10.0; Win64; x64) AppleWebKit/537.36 (KHTML, like Gecko) Chrome/88.0.4324.150 Safari/537.36","v1-up-stims","","","","","","","","-20,-10,0,10,20","media/audio/stims/spherical_300cm_s20_c10_cd-half_matched_a-10.wav","spherical","20","10","half","matched","-10","-20","1041"
"echo-presentation","126","606648","0.0-126.0","5de3fa3c81d8213fc6792131","60242478c74f84097a222710","602425ff409736097464bbb0","Mozilla/5.0 (Windows NT 10.0; Win64; x64) AppleWebKit/537.36 (KHTML, like Gecko) Chrome/88.0.4324.150 Safari/537.36","v1-up-stims","","","","","","","","-20,-10,0,10,20","media/audio/stims/spherical_300cm_s20_c10_cd-half_matched_a-10.wav","spherical","20","10","half","matched","-10","-20","994"
"echo-presentation","127","608381","0.0-127.0","5de3fa3c81d8213fc6792131","60242478c74f84097a222710","602425ff409736097464bbb0","Mozilla/5.0 (Windows NT 10.0; Win64; x64) AppleWebKit/537.36 (KHTML, like Gecko) Chrome/88.0.4324.150 Safari/537.36","v1-up-stims","","","","","","","","-20,-10,0,10,20","media/audio/stims/spherical_300cm_s20_c10_cd-half_matched_a0.wav","spherical","20","10","half","matched","0","-10","1153"
"echo-presentation","128","610121","0.0-128.0","5de3fa3c81d8213fc6792131","60242478c74f84097a222710","602425ff409736097464bbb0","Mozilla/5.0 (Windows NT 10.0; Win64; x64) AppleWebKit/537.36 (KHTML, like Gecko) Chrome/88.0.4324.150 Safari/537.36","v1-up-stims","","","","","","","","-20,-10,0,10,20","media/audio/stims/spherical_300cm_s20_c10_cd-half_matched_a0.wav","spherical","20","10","half","matched","0","-10","958"
"echo-presentation","129","611812","0.0-129.0","5de3fa3c81d8213fc6792131","60242478c74f84097a222710","602425ff409736097464bbb0","Mozilla/5.0 (Windows NT 10.0; Win64; x64) AppleWebKit/537.36 (KHTML, like Gecko) Chrome/88.0.4324.150 Safari/537.36","v1-up-stims","","","","","","","","-20,-10,0,10,20","media/audio/stims/spherical_300cm_s20_c10_cd-half_matched_a10.wav","spherical","20","10","half","matched","10","0","902"
"echo-presentation","130","613511","0.0-130.0","5de3fa3c81d8213fc6792131","60242478c74f84097a222710","602425ff409736097464bbb0","Mozilla/5.0 (Windows NT 10.0; Win64; x64) AppleWebKit/537.36 (KHTML, like Gecko) Chrome/88.0.4324.150 Safari/537.36","v1-up-stims","","","","","","","","-20,-10,0,10,20","media/audio/stims/spherical_300cm_s20_c10_cd-half_matched_a20.wav","spherical","20","10","half","matched","20","0","915"
"echo-presentation","131","615272","0.0-131.0","5de3fa3c81d8213fc6792131","60242478c74f84097a222710","602425ff409736097464bbb0","Mozilla/5.0 (Windows NT 10.0; Win64; x64) AppleWebKit/537.36 (KHTML, like Gecko) Chrome/88.0.4324.150 Safari/537.36","v1-up-stims","","","","","","","","-20,-10,0,10,20","media/audio/stims/spherical_300cm_s20_c10_cd-half_matched_a-20.wav","spherical","20","10","half","matched","-20","-10","990"
"echo-presentation","132","616872","0.0-132.0","5de3fa3c81d8213fc6792131","60242478c74f84097a222710","602425ff409736097464bbb0","Mozilla/5.0 (Windows NT 10.0; Win64; x64) AppleWebKit/537.36 (KHTML, like Gecko) Chrome/88.0.4324.150 Safari/537.36","v1-up-stims","","","","","","","","-20,-10,0,10,20","media/audio/stims/spherical_300cm_s20_c10_cd-half_matched_a20.wav","spherical","20","10","half","matched","20","0","871"
"echo-presentation","133","618482","0.0-133.0","5de3fa3c81d8213fc6792131","60242478c74f84097a222710","602425ff409736097464bbb0","Mozilla/5.0 (Windows NT 10.0; Win64; x64) AppleWebKit/537.36 (KHTML, like Gecko) Chrome/88.0.4324.150 Safari/537.36","v1-up-stims","","","","","","","","-20,-10,0,10,20","media/audio/stims/spherical_300cm_s20_c10_cd-half_matched_a-10.wav","spherical","20","10","half","matched","-10","-10","778"
"echo-presentation","134","620353","0.0-134.0","5de3fa3c81d8213fc6792131","60242478c74f84097a222710","602425ff409736097464bbb0","Mozilla/5.0 (Windows NT 10.0; Win64; x64) AppleWebKit/537.36 (KHTML, like Gecko) Chrome/88.0.4324.150 Safari/537.36","v1-up-stims","","","","","","","","-20,-10,0,10,20","media/audio/stims/spherical_300cm_s20_c10_cd-half_matched_a10.wav","spherical","20","10","half","matched","10","10","809"
"echo-presentation","135","622112","0.0-135.0","5de3fa3c81d8213fc6792131","60242478c74f84097a222710","602425ff409736097464bbb0","Mozilla/5.0 (Windows NT 10.0; Win64; x64) AppleWebKit/537.36 (KHTML, like Gecko) Chrome/88.0.4324.150 Safari/537.36","v1-up-stims","","","","","","","","-20,-10,0,10,20","media/audio/stims/spherical_300cm_s20_c10_cd-half_matched_a-20.wav","spherical","20","10","half","matched","-20","-20","919"
"echo-presentation","136","623873","0.0-136.0","5de3fa3c81d8213fc6792131","60242478c74f84097a222710","602425ff409736097464bbb0","Mozilla/5.0 (Windows NT 10.0; Win64; x64) AppleWebKit/537.36 (KHTML, like Gecko) Chrome/88.0.4324.150 Safari/537.36","v1-up-stims","","","","","","","","-20,-10,0,10,20","media/audio/stims/spherical_300cm_s20_c10_cd-half_matched_a20.wav","spherical","20","10","half","matched","20","-10","932"
"echo-presentation","137","625664","0.0-137.0","5de3fa3c81d8213fc6792131","60242478c74f84097a222710","602425ff409736097464bbb0","Mozilla/5.0 (Windows NT 10.0; Win64; x64) AppleWebKit/537.36 (KHTML, like Gecko) Chrome/88.0.4324.150 Safari/537.36","v1-up-stims","","","","","","","","-20,-10,0,10,20","media/audio/stims/spherical_300cm_s20_c10_cd-half_matched_a-20.wav","spherical","20","10","half","matched","-20","-10","985"
"block-bookend","138","627437","0.0-138.0","5de3fa3c81d8213fc6792131","60242478c74f84097a222710","602425ff409736097464bbb0","Mozilla/5.0 (Windows NT 10.0; Win64; x64) AppleWebKit/537.36 (KHTML, like Gecko) Chrome/88.0.4324.150 Safari/537.36","v1-up-stims","","","","","","","","","","","","","","","","",""
