"trial_type","trial_index","time_elapsed","internal_node_id","prolificPid","studyId","sessionId","userAgent","version","rt","stimulus","key_press","chosenKeyset","failureCount","testIndex","globalVolume","choices","filename","modelName","slowdown","compensation","compensationDescriptor","receiverOrientationType","azimuth","responseAzimuth","responseDelay"
"pavlovia","0","4","0.0-0.0","5f8825d4938a85280f506a83","5fef55e628823a0076ec12ee","601f44806f5fea47affb754d","Mozilla/5.0 (Windows NT 10.0; Win64; x64; rv:85.0) Gecko/20100101 Firefox/85.0","v1","","","","","","","","","","","","","","","","",""
"html-keyboard-response","1","2613","0.0-1.0","5f8825d4938a85280f506a83","5fef55e628823a0076ec12ee","601f44806f5fea47affb754d","Mozilla/5.0 (Windows NT 10.0; Win64; x64; rv:85.0) Gecko/20100101 Firefox/85.0","v1","2609","<div><h1>Welcome!</h1><p>Press any key to continue.</p></div>","87","","","","","","","","","","","","","",""
"consent-form","2","20100","0.0-2.0","5f8825d4938a85280f506a83","5fef55e628823a0076ec12ee","601f44806f5fea47affb754d","Mozilla/5.0 (Windows NT 10.0; Win64; x64; rv:85.0) Gecko/20100101 Firefox/85.0","v1","","","","","","","","","","","","","","","","",""
"keyset-select","3","53939","0.0-3.0","5f8825d4938a85280f506a83","5fef55e628823a0076ec12ee","601f44806f5fea47affb754d","Mozilla/5.0 (Windows NT 10.0; Win64; x64; rv:85.0) Gecko/20100101 Firefox/85.0","v1","","","","left-hand","","","","","","","","","","","","",""
"headphone-check","4","101380","0.0-4.0","5f8825d4938a85280f506a83","5fef55e628823a0076ec12ee","601f44806f5fea47affb754d","Mozilla/5.0 (Windows NT 10.0; Win64; x64; rv:85.0) Gecko/20100101 Firefox/85.0","v1","","","","","0","6","0.3","","","","","","","","","",""
"headphone-backwards-check","5","107920","0.0-5.0","5f8825d4938a85280f506a83","5fef55e628823a0076ec12ee","601f44806f5fea47affb754d","Mozilla/5.0 (Windows NT 10.0; Win64; x64; rv:85.0) Gecko/20100101 Firefox/85.0","v1","","","","","0","","","","","","","","","","","",""
"training","6","176004","0.0-6.0","5f8825d4938a85280f506a83","5fef55e628823a0076ec12ee","601f44806f5fea47affb754d","Mozilla/5.0 (Windows NT 10.0; Win64; x64; rv:85.0) Gecko/20100101 Firefox/85.0","v1","","","","","","","","","","","","","","","","",""
"block-bookend","7","191748","0.0-7.0","5f8825d4938a85280f506a83","5fef55e628823a0076ec12ee","601f44806f5fea47affb754d","Mozilla/5.0 (Windows NT 10.0; Win64; x64; rv:85.0) Gecko/20100101 Firefox/85.0","v1","","","","","","","","","","","","","","","","",""
"echo-presentation","8","201833","0.0-8.0","5f8825d4938a85280f506a83","5fef55e628823a0076ec12ee","601f44806f5fea47affb754d","Mozilla/5.0 (Windows NT 10.0; Win64; x64; rv:85.0) Gecko/20100101 Firefox/85.0","v1","","","","","","","","-20,-10,0,10,20","media/audio/stims/spherical_300cm_s20_c20_cd-full_matched_a0.wav","spherical","20","20","full","matched","0","10","6814"
"echo-presentation","9","205941","0.0-9.0","5f8825d4938a85280f506a83","5fef55e628823a0076ec12ee","601f44806f5fea47affb754d","Mozilla/5.0 (Windows NT 10.0; Win64; x64; rv:85.0) Gecko/20100101 Firefox/85.0","v1","","","","","","","","-20,-10,0,10,20","media/audio/stims/spherical_300cm_s20_c20_cd-full_matched_a10.wav","spherical","20","20","full","matched","10","10","2078"
"echo-presentation","10","209435","0.0-10.0","5f8825d4938a85280f506a83","5fef55e628823a0076ec12ee","601f44806f5fea47affb754d","Mozilla/5.0 (Windows NT 10.0; Win64; x64; rv:85.0) Gecko/20100101 Firefox/85.0","v1","","","","","","","","-20,-10,0,10,20","media/audio/stims/spherical_300cm_s20_c20_cd-full_matched_a-20.wav","spherical","20","20","full","matched","-20","0","2135"
"echo-presentation","11","212283","0.0-11.0","5f8825d4938a85280f506a83","5fef55e628823a0076ec12ee","601f44806f5fea47affb754d","Mozilla/5.0 (Windows NT 10.0; Win64; x64; rv:85.0) Gecko/20100101 Firefox/85.0","v1","","","","","","","","-20,-10,0,10,20","media/audio/stims/spherical_300cm_s20_c20_cd-full_matched_a20.wav","spherical","20","20","full","matched","20","0","1463"
"echo-presentation","12","215950","0.0-12.0","5f8825d4938a85280f506a83","5fef55e628823a0076ec12ee","601f44806f5fea47affb754d","Mozilla/5.0 (Windows NT 10.0; Win64; x64; rv:85.0) Gecko/20100101 Firefox/85.0","v1","","","","","","","","-20,-10,0,10,20","media/audio/stims/spherical_300cm_s20_c20_cd-full_matched_a0.wav","spherical","20","20","full","matched","0","0","2096"
"echo-presentation","13","219911","0.0-13.0","5f8825d4938a85280f506a83","5fef55e628823a0076ec12ee","601f44806f5fea47affb754d","Mozilla/5.0 (Windows NT 10.0; Win64; x64; rv:85.0) Gecko/20100101 Firefox/85.0","v1","","","","","","","","-20,-10,0,10,20","media/audio/stims/spherical_300cm_s20_c20_cd-full_matched_a-10.wav","spherical","20","20","full","matched","-10","0","2592"
"echo-presentation","14","222793","0.0-14.0","5f8825d4938a85280f506a83","5fef55e628823a0076ec12ee","601f44806f5fea47affb754d","Mozilla/5.0 (Windows NT 10.0; Win64; x64; rv:85.0) Gecko/20100101 Firefox/85.0","v1","","","","","","","","-20,-10,0,10,20","media/audio/stims/spherical_300cm_s20_c20_cd-full_matched_a-20.wav","spherical","20","20","full","matched","-20","-10","1704"
"echo-presentation","15","225629","0.0-15.0","5f8825d4938a85280f506a83","5fef55e628823a0076ec12ee","601f44806f5fea47affb754d","Mozilla/5.0 (Windows NT 10.0; Win64; x64; rv:85.0) Gecko/20100101 Firefox/85.0","v1","","","","","","","","-20,-10,0,10,20","media/audio/stims/spherical_300cm_s20_c20_cd-full_matched_a-10.wav","spherical","20","20","full","matched","-10","-10","1623"
"echo-presentation","16","228348","0.0-16.0","5f8825d4938a85280f506a83","5fef55e628823a0076ec12ee","601f44806f5fea47affb754d","Mozilla/5.0 (Windows NT 10.0; Win64; x64; rv:85.0) Gecko/20100101 Firefox/85.0","v1","","","","","","","","-20,-10,0,10,20","media/audio/stims/spherical_300cm_s20_c20_cd-full_matched_a0.wav","spherical","20","20","full","matched","0","-10","1591"
"echo-presentation","17","232053","0.0-17.0","5f8825d4938a85280f506a83","5fef55e628823a0076ec12ee","601f44806f5fea47affb754d","Mozilla/5.0 (Windows NT 10.0; Win64; x64; rv:85.0) Gecko/20100101 Firefox/85.0","v1","","","","","","","","-20,-10,0,10,20","media/audio/stims/spherical_300cm_s20_c20_cd-full_matched_a20.wav","spherical","20","20","full","matched","20","10","2583"
"echo-presentation","18","235468","0.0-18.0","5f8825d4938a85280f506a83","5fef55e628823a0076ec12ee","601f44806f5fea47affb754d","Mozilla/5.0 (Windows NT 10.0; Win64; x64; rv:85.0) Gecko/20100101 Firefox/85.0","v1","","","","","","","","-20,-10,0,10,20","media/audio/stims/spherical_300cm_s20_c20_cd-full_matched_a-10.wav","spherical","20","20","full","matched","-10","0","2303"
"echo-presentation","19","238282","0.0-19.0","5f8825d4938a85280f506a83","5fef55e628823a0076ec12ee","601f44806f5fea47affb754d","Mozilla/5.0 (Windows NT 10.0; Win64; x64; rv:85.0) Gecko/20100101 Firefox/85.0","v1","","","","","","","","-20,-10,0,10,20","media/audio/stims/spherical_300cm_s20_c20_cd-full_matched_a-20.wav","spherical","20","20","full","matched","-20","0","1679"
"echo-presentation","20","241013","0.0-20.0","5f8825d4938a85280f506a83","5fef55e628823a0076ec12ee","601f44806f5fea47affb754d","Mozilla/5.0 (Windows NT 10.0; Win64; x64; rv:85.0) Gecko/20100101 Firefox/85.0","v1","","","","","","","","-20,-10,0,10,20","media/audio/stims/spherical_300cm_s20_c20_cd-full_matched_a20.wav","spherical","20","20","full","matched","20","10","1696"
"echo-presentation","21","243824","0.0-21.0","5f8825d4938a85280f506a83","5fef55e628823a0076ec12ee","601f44806f5fea47affb754d","Mozilla/5.0 (Windows NT 10.0; Win64; x64; rv:85.0) Gecko/20100101 Firefox/85.0","v1","","","","","","","","-20,-10,0,10,20","media/audio/stims/spherical_300cm_s20_c20_cd-full_matched_a-10.wav","spherical","20","20","full","matched","-10","0","1687"
"echo-presentation","22","247422","0.0-22.0","5f8825d4938a85280f506a83","5fef55e628823a0076ec12ee","601f44806f5fea47affb754d","Mozilla/5.0 (Windows NT 10.0; Win64; x64; rv:85.0) Gecko/20100101 Firefox/85.0","v1","","","","","","","","-20,-10,0,10,20","media/audio/stims/spherical_300cm_s20_c20_cd-full_matched_a10.wav","spherical","20","20","full","matched","10","0","2424"
"echo-presentation","23","250491","0.0-23.0","5f8825d4938a85280f506a83","5fef55e628823a0076ec12ee","601f44806f5fea47affb754d","Mozilla/5.0 (Windows NT 10.0; Win64; x64; rv:85.0) Gecko/20100101 Firefox/85.0","v1","","","","","","","","-20,-10,0,10,20","media/audio/stims/spherical_300cm_s20_c20_cd-full_matched_a20.wav","spherical","20","20","full","matched","20","0","1807"
"echo-presentation","24","253312","0.0-24.0","5f8825d4938a85280f506a83","5fef55e628823a0076ec12ee","601f44806f5fea47affb754d","Mozilla/5.0 (Windows NT 10.0; Win64; x64; rv:85.0) Gecko/20100101 Firefox/85.0","v1","","","","","","","","-20,-10,0,10,20","media/audio/stims/spherical_300cm_s20_c20_cd-full_matched_a10.wav","spherical","20","20","full","matched","10","0","1647"
"echo-presentation","25","256839","0.0-25.0","5f8825d4938a85280f506a83","5fef55e628823a0076ec12ee","601f44806f5fea47affb754d","Mozilla/5.0 (Windows NT 10.0; Win64; x64; rv:85.0) Gecko/20100101 Firefox/85.0","v1","","","","","","","","-20,-10,0,10,20","media/audio/stims/spherical_300cm_s20_c20_cd-full_matched_a-20.wav","spherical","20","20","full","matched","-20","-10","1535"
"echo-presentation","26","260206","0.0-26.0","5f8825d4938a85280f506a83","5fef55e628823a0076ec12ee","601f44806f5fea47affb754d","Mozilla/5.0 (Windows NT 10.0; Win64; x64; rv:85.0) Gecko/20100101 Firefox/85.0","v1","","","","","","","","-20,-10,0,10,20","media/audio/stims/spherical_300cm_s20_c20_cd-full_matched_a0.wav","spherical","20","20","full","matched","0","0","2015"
"echo-presentation","27","263302","0.0-27.0","5f8825d4938a85280f506a83","5fef55e628823a0076ec12ee","601f44806f5fea47affb754d","Mozilla/5.0 (Windows NT 10.0; Win64; x64; rv:85.0) Gecko/20100101 Firefox/85.0","v1","","","","","","","","-20,-10,0,10,20","media/audio/stims/spherical_300cm_s20_c20_cd-full_matched_a10.wav","spherical","20","20","full","matched","10","10","1951"
"block-bookend","28","265821","0.0-28.0","5f8825d4938a85280f506a83","5fef55e628823a0076ec12ee","601f44806f5fea47affb754d","Mozilla/5.0 (Windows NT 10.0; Win64; x64; rv:85.0) Gecko/20100101 Firefox/85.0","v1","","","","","","","","","","","","","","","","",""
"block-bookend","29","274973","0.0-29.0","5f8825d4938a85280f506a83","5fef55e628823a0076ec12ee","601f44806f5fea47affb754d","Mozilla/5.0 (Windows NT 10.0; Win64; x64; rv:85.0) Gecko/20100101 Firefox/85.0","v1","","","","","","","","","","","","","","","","",""
"echo-presentation","30","282689","0.0-30.0","5f8825d4938a85280f506a83","5fef55e628823a0076ec12ee","601f44806f5fea47affb754d","Mozilla/5.0 (Windows NT 10.0; Win64; x64; rv:85.0) Gecko/20100101 Firefox/85.0","v1","","","","","","","","-20,-10,0,10,20","media/audio/stims/spherical_300cm_s20_c20_cd-full_matched_a-20.wav","spherical","20","20","full","matched","-20","0","3782"
"echo-presentation","31","286140","0.0-31.0","5f8825d4938a85280f506a83","5fef55e628823a0076ec12ee","601f44806f5fea47affb754d","Mozilla/5.0 (Windows NT 10.0; Win64; x64; rv:85.0) Gecko/20100101 Firefox/85.0","v1","","","","","","","","-20,-10,0,10,20","media/audio/stims/spherical_300cm_s20_c20_cd-full_matched_a-10.wav","spherical","20","20","full","matched","-10","10","2327"
"echo-presentation","32","289379","0.0-32.0","5f8825d4938a85280f506a83","5fef55e628823a0076ec12ee","601f44806f5fea47affb754d","Mozilla/5.0 (Windows NT 10.0; Win64; x64; rv:85.0) Gecko/20100101 Firefox/85.0","v1","","","","","","","","-20,-10,0,10,20","media/audio/stims/spherical_300cm_s20_c20_cd-full_matched_a-10.wav","spherical","20","20","full","matched","-10","10","1999"
"echo-presentation","33","291872","0.0-33.0","5f8825d4938a85280f506a83","5fef55e628823a0076ec12ee","601f44806f5fea47affb754d","Mozilla/5.0 (Windows NT 10.0; Win64; x64; rv:85.0) Gecko/20100101 Firefox/85.0","v1","","","","","","","","-20,-10,0,10,20","media/audio/stims/spherical_300cm_s20_c20_cd-full_matched_a20.wav","spherical","20","20","full","matched","20","20","1472"
"echo-presentation","34","294761","0.0-34.0","5f8825d4938a85280f506a83","5fef55e628823a0076ec12ee","601f44806f5fea47affb754d","Mozilla/5.0 (Windows NT 10.0; Win64; x64; rv:85.0) Gecko/20100101 Firefox/85.0","v1","","","","","","","","-20,-10,0,10,20","media/audio/stims/spherical_300cm_s20_c20_cd-full_matched_a10.wav","spherical","20","20","full","matched","10","10","1814"
"echo-presentation","35","297613","0.0-35.0","5f8825d4938a85280f506a83","5fef55e628823a0076ec12ee","601f44806f5fea47affb754d","Mozilla/5.0 (Windows NT 10.0; Win64; x64; rv:85.0) Gecko/20100101 Firefox/85.0","v1","","","","","","","","-20,-10,0,10,20","media/audio/stims/spherical_300cm_s20_c20_cd-full_matched_a-20.wav","spherical","20","20","full","matched","-20","-10","1711"
"echo-presentation","36","300589","0.0-36.0","5f8825d4938a85280f506a83","5fef55e628823a0076ec12ee","601f44806f5fea47affb754d","Mozilla/5.0 (Windows NT 10.0; Win64; x64; rv:85.0) Gecko/20100101 Firefox/85.0","v1","","","","","","","","-20,-10,0,10,20","media/audio/stims/spherical_300cm_s20_c20_cd-full_matched_a-20.wav","spherical","20","20","full","matched","-20","0","1743"
"echo-presentation","37","305156","0.0-37.0","5f8825d4938a85280f506a83","5fef55e628823a0076ec12ee","601f44806f5fea47affb754d","Mozilla/5.0 (Windows NT 10.0; Win64; x64; rv:85.0) Gecko/20100101 Firefox/85.0","v1","","","","","","","","-20,-10,0,10,20","media/audio/stims/spherical_300cm_s20_c20_cd-full_matched_a20.wav","spherical","20","20","full","matched","20","20","2911"
"echo-presentation","38","307666","0.0-38.0","5f8825d4938a85280f506a83","5fef55e628823a0076ec12ee","601f44806f5fea47affb754d","Mozilla/5.0 (Windows NT 10.0; Win64; x64; rv:85.0) Gecko/20100101 Firefox/85.0","v1","","","","","","","","-20,-10,0,10,20","media/audio/stims/spherical_300cm_s20_c20_cd-full_matched_a20.wav","spherical","20","20","full","matched","20","20","1480"
"echo-presentation","39","310219","0.0-39.0","5f8825d4938a85280f506a83","5fef55e628823a0076ec12ee","601f44806f5fea47affb754d","Mozilla/5.0 (Windows NT 10.0; Win64; x64; rv:85.0) Gecko/20100101 Firefox/85.0","v1","","","","","","","","-20,-10,0,10,20","media/audio/stims/spherical_300cm_s20_c20_cd-full_matched_a-10.wav","spherical","20","20","full","matched","-10","0","1494"
"echo-presentation","40","312985","0.0-40.0","5f8825d4938a85280f506a83","5fef55e628823a0076ec12ee","601f44806f5fea47affb754d","Mozilla/5.0 (Windows NT 10.0; Win64; x64; rv:85.0) Gecko/20100101 Firefox/85.0","v1","","","","","","","","-20,-10,0,10,20","media/audio/stims/spherical_300cm_s20_c20_cd-full_matched_a10.wav","spherical","20","20","full","matched","10","20","1878"
"echo-presentation","41","315461","0.0-41.0","5f8825d4938a85280f506a83","5fef55e628823a0076ec12ee","601f44806f5fea47affb754d","Mozilla/5.0 (Windows NT 10.0; Win64; x64; rv:85.0) Gecko/20100101 Firefox/85.0","v1","","","","","","","","-20,-10,0,10,20","media/audio/stims/spherical_300cm_s20_c20_cd-full_matched_a-20.wav","spherical","20","20","full","matched","-20","-10","1584"
"echo-presentation","42","318298","0.0-42.0","5f8825d4938a85280f506a83","5fef55e628823a0076ec12ee","601f44806f5fea47affb754d","Mozilla/5.0 (Windows NT 10.0; Win64; x64; rv:85.0) Gecko/20100101 Firefox/85.0","v1","","","","","","","","-20,-10,0,10,20","media/audio/stims/spherical_300cm_s20_c20_cd-full_matched_a10.wav","spherical","20","20","full","matched","10","10","1580"
"echo-presentation","43","321174","0.0-43.0","5f8825d4938a85280f506a83","5fef55e628823a0076ec12ee","601f44806f5fea47affb754d","Mozilla/5.0 (Windows NT 10.0; Win64; x64; rv:85.0) Gecko/20100101 Firefox/85.0","v1","","","","","","","","-20,-10,0,10,20","media/audio/stims/spherical_300cm_s20_c20_cd-full_matched_a10.wav","spherical","20","20","full","matched","10","10","1696"
"echo-presentation","44","323806","0.0-44.0","5f8825d4938a85280f506a83","5fef55e628823a0076ec12ee","601f44806f5fea47affb754d","Mozilla/5.0 (Windows NT 10.0; Win64; x64; rv:85.0) Gecko/20100101 Firefox/85.0","v1","","","","","","","","-20,-10,0,10,20","media/audio/stims/spherical_300cm_s20_c20_cd-full_matched_a0.wav","spherical","20","20","full","matched","0","10","1471"
"echo-presentation","45","326684","0.0-45.0","5f8825d4938a85280f506a83","5fef55e628823a0076ec12ee","601f44806f5fea47affb754d","Mozilla/5.0 (Windows NT 10.0; Win64; x64; rv:85.0) Gecko/20100101 Firefox/85.0","v1","","","","","","","","-20,-10,0,10,20","media/audio/stims/spherical_300cm_s20_c20_cd-full_matched_a0.wav","spherical","20","20","full","matched","0","0","1886"
"echo-presentation","46","329281","0.0-46.0","5f8825d4938a85280f506a83","5fef55e628823a0076ec12ee","601f44806f5fea47affb754d","Mozilla/5.0 (Windows NT 10.0; Win64; x64; rv:85.0) Gecko/20100101 Firefox/85.0","v1","","","","","","","","-20,-10,0,10,20","media/audio/stims/spherical_300cm_s20_c20_cd-full_matched_a0.wav","spherical","20","20","full","matched","0","10","1527"
"echo-presentation","47","331861","0.0-47.0","5f8825d4938a85280f506a83","5fef55e628823a0076ec12ee","601f44806f5fea47affb754d","Mozilla/5.0 (Windows NT 10.0; Win64; x64; rv:85.0) Gecko/20100101 Firefox/85.0","v1","","","","","","","","-20,-10,0,10,20","media/audio/stims/spherical_300cm_s20_c20_cd-full_matched_a-10.wav","spherical","20","20","full","matched","-10","-10","1319"
"echo-presentation","48","334705","0.0-48.0","5f8825d4938a85280f506a83","5fef55e628823a0076ec12ee","601f44806f5fea47affb754d","Mozilla/5.0 (Windows NT 10.0; Win64; x64; rv:85.0) Gecko/20100101 Firefox/85.0","v1","","","","","","","","-20,-10,0,10,20","media/audio/stims/spherical_300cm_s20_c20_cd-full_matched_a0.wav","spherical","20","20","full","matched","0","10","1631"
"echo-presentation","49","337275","0.0-49.0","5f8825d4938a85280f506a83","5fef55e628823a0076ec12ee","601f44806f5fea47affb754d","Mozilla/5.0 (Windows NT 10.0; Win64; x64; rv:85.0) Gecko/20100101 Firefox/85.0","v1","","","","","","","","-20,-10,0,10,20","media/audio/stims/spherical_300cm_s20_c20_cd-full_matched_a20.wav","spherical","20","20","full","matched","20","20","1319"
"block-bookend","50","339780","0.0-50.0","5f8825d4938a85280f506a83","5fef55e628823a0076ec12ee","601f44806f5fea47affb754d","Mozilla/5.0 (Windows NT 10.0; Win64; x64; rv:85.0) Gecko/20100101 Firefox/85.0","v1","","","","","","","","","","","","","","","","",""
"block-bookend","51","348932","0.0-51.0","5f8825d4938a85280f506a83","5fef55e628823a0076ec12ee","601f44806f5fea47affb754d","Mozilla/5.0 (Windows NT 10.0; Win64; x64; rv:85.0) Gecko/20100101 Firefox/85.0","v1","","","","","","","","","","","","","","","","",""
"echo-presentation","52","354299","0.0-52.0","5f8825d4938a85280f506a83","5fef55e628823a0076ec12ee","601f44806f5fea47affb754d","Mozilla/5.0 (Windows NT 10.0; Win64; x64; rv:85.0) Gecko/20100101 Firefox/85.0","v1","","","","","","","","40,50,60,70,80","media/audio/stims/spherical_300cm_s20_c20_cd-full_matched_a70.wav","spherical","20","20","full","matched","70","80","1959"
"echo-presentation","53","358594","0.0-53.0","5f8825d4938a85280f506a83","5fef55e628823a0076ec12ee","601f44806f5fea47affb754d","Mozilla/5.0 (Windows NT 10.0; Win64; x64; rv:85.0) Gecko/20100101 Firefox/85.0","v1","","","","","","","","40,50,60,70,80","media/audio/stims/spherical_300cm_s20_c20_cd-full_matched_a70.wav","spherical","20","20","full","matched","70","60","2936"
"echo-presentation","54","363149","0.0-54.0","5f8825d4938a85280f506a83","5fef55e628823a0076ec12ee","601f44806f5fea47affb754d","Mozilla/5.0 (Windows NT 10.0; Win64; x64; rv:85.0) Gecko/20100101 Firefox/85.0","v1","","","","","","","","40,50,60,70,80","media/audio/stims/spherical_300cm_s20_c20_cd-full_matched_a40.wav","spherical","20","20","full","matched","40","60","3576"
"echo-presentation","55","365673","0.0-55.0","5f8825d4938a85280f506a83","5fef55e628823a0076ec12ee","601f44806f5fea47affb754d","Mozilla/5.0 (Windows NT 10.0; Win64; x64; rv:85.0) Gecko/20100101 Firefox/85.0","v1","","","","","","","","40,50,60,70,80","media/audio/stims/spherical_300cm_s20_c20_cd-full_matched_a60.wav","spherical","20","20","full","matched","60","50","1511"
"echo-presentation","56","367987","0.0-56.0","5f8825d4938a85280f506a83","5fef55e628823a0076ec12ee","601f44806f5fea47affb754d","Mozilla/5.0 (Windows NT 10.0; Win64; x64; rv:85.0) Gecko/20100101 Firefox/85.0","v1","","","","","","","","40,50,60,70,80","media/audio/stims/spherical_300cm_s20_c20_cd-full_matched_a60.wav","spherical","20","20","full","matched","60","50","1334"
"echo-presentation","57","371422","0.0-57.0","5f8825d4938a85280f506a83","5fef55e628823a0076ec12ee","601f44806f5fea47affb754d","Mozilla/5.0 (Windows NT 10.0; Win64; x64; rv:85.0) Gecko/20100101 Firefox/85.0","v1","","","","","","","","40,50,60,70,80","media/audio/stims/spherical_300cm_s20_c20_cd-full_matched_a50.wav","spherical","20","20","full","matched","50","50","2198"
"echo-presentation","58","374382","0.0-58.0","5f8825d4938a85280f506a83","5fef55e628823a0076ec12ee","601f44806f5fea47affb754d","Mozilla/5.0 (Windows NT 10.0; Win64; x64; rv:85.0) Gecko/20100101 Firefox/85.0","v1","","","","","","","","40,50,60,70,80","media/audio/stims/spherical_300cm_s20_c20_cd-full_matched_a60.wav","spherical","20","20","full","matched","60","60","1895"
"echo-presentation","59","377181","0.0-59.0","5f8825d4938a85280f506a83","5fef55e628823a0076ec12ee","601f44806f5fea47affb754d","Mozilla/5.0 (Windows NT 10.0; Win64; x64; rv:85.0) Gecko/20100101 Firefox/85.0","v1","","","","","","","","40,50,60,70,80","media/audio/stims/spherical_300cm_s20_c20_cd-full_matched_a70.wav","spherical","20","20","full","matched","70","70","1759"
"echo-presentation","60","379841","0.0-60.0","5f8825d4938a85280f506a83","5fef55e628823a0076ec12ee","601f44806f5fea47affb754d","Mozilla/5.0 (Windows NT 10.0; Win64; x64; rv:85.0) Gecko/20100101 Firefox/85.0","v1","","","","","","","","40,50,60,70,80","media/audio/stims/spherical_300cm_s20_c20_cd-full_matched_a40.wav","spherical","20","20","full","matched","40","70","1559"
"echo-presentation","61","381889","0.0-61.0","5f8825d4938a85280f506a83","5fef55e628823a0076ec12ee","601f44806f5fea47affb754d","Mozilla/5.0 (Windows NT 10.0; Win64; x64; rv:85.0) Gecko/20100101 Firefox/85.0","v1","","","","","","","","40,50,60,70,80","media/audio/stims/spherical_300cm_s20_c20_cd-full_matched_a50.wav","spherical","20","20","full","matched","50","70","1110"
"echo-presentation","62","384017","0.0-62.0","5f8825d4938a85280f506a83","5fef55e628823a0076ec12ee","601f44806f5fea47affb754d","Mozilla/5.0 (Windows NT 10.0; Win64; x64; rv:85.0) Gecko/20100101 Firefox/85.0","v1","","","","","","","","40,50,60,70,80","media/audio/stims/spherical_300cm_s20_c20_cd-full_matched_a80.wav","spherical","20","20","full","matched","80","80","1174"
"echo-presentation","63","386101","0.0-63.0","5f8825d4938a85280f506a83","5fef55e628823a0076ec12ee","601f44806f5fea47affb754d","Mozilla/5.0 (Windows NT 10.0; Win64; x64; rv:85.0) Gecko/20100101 Firefox/85.0","v1","","","","","","","","40,50,60,70,80","media/audio/stims/spherical_300cm_s20_c20_cd-full_matched_a80.wav","spherical","20","20","full","matched","80","80","1094"
"echo-presentation","64","389190","0.0-64.0","5f8825d4938a85280f506a83","5fef55e628823a0076ec12ee","601f44806f5fea47affb754d","Mozilla/5.0 (Windows NT 10.0; Win64; x64; rv:85.0) Gecko/20100101 Firefox/85.0","v1","","","","","","","","40,50,60,70,80","media/audio/stims/spherical_300cm_s20_c20_cd-full_matched_a40.wav","spherical","20","20","full","matched","40","70","1983"
"echo-presentation","65","391277","0.0-65.0","5f8825d4938a85280f506a83","5fef55e628823a0076ec12ee","601f44806f5fea47affb754d","Mozilla/5.0 (Windows NT 10.0; Win64; x64; rv:85.0) Gecko/20100101 Firefox/85.0","v1","","","","","","","","40,50,60,70,80","media/audio/stims/spherical_300cm_s20_c20_cd-full_matched_a40.wav","spherical","20","20","full","matched","40","70","1063"
"echo-presentation","66","394331","0.0-66.0","5f8825d4938a85280f506a83","5fef55e628823a0076ec12ee","601f44806f5fea47affb754d","Mozilla/5.0 (Windows NT 10.0; Win64; x64; rv:85.0) Gecko/20100101 Firefox/85.0","v1","","","","","","","","40,50,60,70,80","media/audio/stims/spherical_300cm_s20_c20_cd-full_matched_a50.wav","spherical","20","20","full","matched","50","60","2032"
"echo-presentation","67","396811","0.0-67.0","5f8825d4938a85280f506a83","5fef55e628823a0076ec12ee","601f44806f5fea47affb754d","Mozilla/5.0 (Windows NT 10.0; Win64; x64; rv:85.0) Gecko/20100101 Firefox/85.0","v1","","","","","","","","40,50,60,70,80","media/audio/stims/spherical_300cm_s20_c20_cd-full_matched_a80.wav","spherical","20","20","full","matched","80","70","1495"
"echo-presentation","68","399547","0.0-68.0","5f8825d4938a85280f506a83","5fef55e628823a0076ec12ee","601f44806f5fea47affb754d","Mozilla/5.0 (Windows NT 10.0; Win64; x64; rv:85.0) Gecko/20100101 Firefox/85.0","v1","","","","","","","","40,50,60,70,80","media/audio/stims/spherical_300cm_s20_c20_cd-full_matched_a50.wav","spherical","20","20","full","matched","50","70","1774"
"echo-presentation","69","401746","0.0-69.0","5f8825d4938a85280f506a83","5fef55e628823a0076ec12ee","601f44806f5fea47affb754d","Mozilla/5.0 (Windows NT 10.0; Win64; x64; rv:85.0) Gecko/20100101 Firefox/85.0","v1","","","","","","","","40,50,60,70,80","media/audio/stims/spherical_300cm_s20_c20_cd-full_matched_a70.wav","spherical","20","20","full","matched","70","80","1096"
"echo-presentation","70","404403","0.0-70.0","5f8825d4938a85280f506a83","5fef55e628823a0076ec12ee","601f44806f5fea47affb754d","Mozilla/5.0 (Windows NT 10.0; Win64; x64; rv:85.0) Gecko/20100101 Firefox/85.0","v1","","","","","","","","40,50,60,70,80","media/audio/stims/spherical_300cm_s20_c20_cd-full_matched_a60.wav","spherical","20","20","full","matched","60","70","1550"
"echo-presentation","71","406585","0.0-71.0","5f8825d4938a85280f506a83","5fef55e628823a0076ec12ee","601f44806f5fea47affb754d","Mozilla/5.0 (Windows NT 10.0; Win64; x64; rv:85.0) Gecko/20100101 Firefox/85.0","v1","","","","","","","","40,50,60,70,80","media/audio/stims/spherical_300cm_s20_c20_cd-full_matched_a80.wav","spherical","20","20","full","matched","80","80","1056"
"block-bookend","72","407948","0.0-72.0","5f8825d4938a85280f506a83","5fef55e628823a0076ec12ee","601f44806f5fea47affb754d","Mozilla/5.0 (Windows NT 10.0; Win64; x64; rv:85.0) Gecko/20100101 Firefox/85.0","v1","","","","","","","","","","","","","","","","",""
"block-bookend","73","415388","0.0-73.0","5f8825d4938a85280f506a83","5fef55e628823a0076ec12ee","601f44806f5fea47affb754d","Mozilla/5.0 (Windows NT 10.0; Win64; x64; rv:85.0) Gecko/20100101 Firefox/85.0","v1","","","","","","","","","","","","","","","","",""
"echo-presentation","74","418271","0.0-74.0","5f8825d4938a85280f506a83","5fef55e628823a0076ec12ee","601f44806f5fea47affb754d","Mozilla/5.0 (Windows NT 10.0; Win64; x64; rv:85.0) Gecko/20100101 Firefox/85.0","v1","","","","","","","","40,50,60,70,80","media/audio/stims/spherical_300cm_s20_c20_cd-full_matched_a70.wav","spherical","20","20","full","matched","70","80","1288"
"echo-presentation","75","420898","0.0-75.0","5f8825d4938a85280f506a83","5fef55e628823a0076ec12ee","601f44806f5fea47affb754d","Mozilla/5.0 (Windows NT 10.0; Win64; x64; rv:85.0) Gecko/20100101 Firefox/85.0","v1","","","","","","","","40,50,60,70,80","media/audio/stims/spherical_300cm_s20_c20_cd-full_matched_a50.wav","spherical","20","20","full","matched","50","70","1718"
"echo-presentation","76","423139","0.0-76.0","5f8825d4938a85280f506a83","5fef55e628823a0076ec12ee","601f44806f5fea47affb754d","Mozilla/5.0 (Windows NT 10.0; Win64; x64; rv:85.0) Gecko/20100101 Firefox/85.0","v1","","","","","","","","40,50,60,70,80","media/audio/stims/spherical_300cm_s20_c20_cd-full_matched_a50.wav","spherical","20","20","full","matched","50","70","1183"
"echo-presentation","77","425350","0.0-77.0","5f8825d4938a85280f506a83","5fef55e628823a0076ec12ee","601f44806f5fea47affb754d","Mozilla/5.0 (Windows NT 10.0; Win64; x64; rv:85.0) Gecko/20100101 Firefox/85.0","v1","","","","","","","","40,50,60,70,80","media/audio/stims/spherical_300cm_s20_c20_cd-full_matched_a70.wav","spherical","20","20","full","matched","70","80","1294"
"echo-presentation","78","427898","0.0-78.0","5f8825d4938a85280f506a83","5fef55e628823a0076ec12ee","601f44806f5fea47affb754d","Mozilla/5.0 (Windows NT 10.0; Win64; x64; rv:85.0) Gecko/20100101 Firefox/85.0","v1","","","","","","","","40,50,60,70,80","media/audio/stims/spherical_300cm_s20_c20_cd-full_matched_a80.wav","spherical","20","20","full","matched","80","80","1398"
"echo-presentation","79","430123","0.0-79.0","5f8825d4938a85280f506a83","5fef55e628823a0076ec12ee","601f44806f5fea47affb754d","Mozilla/5.0 (Windows NT 10.0; Win64; x64; rv:85.0) Gecko/20100101 Firefox/85.0","v1","","","","","","","","40,50,60,70,80","media/audio/stims/spherical_300cm_s20_c20_cd-full_matched_a80.wav","spherical","20","20","full","matched","80","80","1181"
"echo-presentation","80","432951","0.0-80.0","5f8825d4938a85280f506a83","5fef55e628823a0076ec12ee","601f44806f5fea47affb754d","Mozilla/5.0 (Windows NT 10.0; Win64; x64; rv:85.0) Gecko/20100101 Firefox/85.0","v1","","","","","","","","40,50,60,70,80","media/audio/stims/spherical_300cm_s20_c20_cd-full_matched_a60.wav","spherical","20","20","full","matched","60","70","1679"
"echo-presentation","81","435013","0.0-81.0","5f8825d4938a85280f506a83","5fef55e628823a0076ec12ee","601f44806f5fea47affb754d","Mozilla/5.0 (Windows NT 10.0; Win64; x64; rv:85.0) Gecko/20100101 Firefox/85.0","v1","","","","","","","","40,50,60,70,80","media/audio/stims/spherical_300cm_s20_c20_cd-full_matched_a70.wav","spherical","20","20","full","matched","70","70","1080"
"echo-presentation","82","437450","0.0-82.0","5f8825d4938a85280f506a83","5fef55e628823a0076ec12ee","601f44806f5fea47affb754d","Mozilla/5.0 (Windows NT 10.0; Win64; x64; rv:85.0) Gecko/20100101 Firefox/85.0","v1","","","","","","","","40,50,60,70,80","media/audio/stims/spherical_300cm_s20_c20_cd-full_matched_a80.wav","spherical","20","20","full","matched","80","70","1341"
"echo-presentation","83","439693","0.0-83.0","5f8825d4938a85280f506a83","5fef55e628823a0076ec12ee","601f44806f5fea47affb754d","Mozilla/5.0 (Windows NT 10.0; Win64; x64; rv:85.0) Gecko/20100101 Firefox/85.0","v1","","","","","","","","40,50,60,70,80","media/audio/stims/spherical_300cm_s20_c20_cd-full_matched_a40.wav","spherical","20","20","full","matched","40","70","1111"
"echo-presentation","84","441868","0.0-84.0","5f8825d4938a85280f506a83","5fef55e628823a0076ec12ee","601f44806f5fea47affb754d","Mozilla/5.0 (Windows NT 10.0; Win64; x64; rv:85.0) Gecko/20100101 Firefox/85.0","v1","","","","","","","","40,50,60,70,80","media/audio/stims/spherical_300cm_s20_c20_cd-full_matched_a40.wav","spherical","20","20","full","matched","40","70","1198"
"echo-presentation","85","444313","0.0-85.0","5f8825d4938a85280f506a83","5fef55e628823a0076ec12ee","601f44806f5fea47affb754d","Mozilla/5.0 (Windows NT 10.0; Win64; x64; rv:85.0) Gecko/20100101 Firefox/85.0","v1","","","","","","","","40,50,60,70,80","media/audio/stims/spherical_300cm_s20_c20_cd-full_matched_a70.wav","spherical","20","20","full","matched","70","70","1509"
"echo-presentation","86","446772","0.0-86.0","5f8825d4938a85280f506a83","5fef55e628823a0076ec12ee","601f44806f5fea47affb754d","Mozilla/5.0 (Windows NT 10.0; Win64; x64; rv:85.0) Gecko/20100101 Firefox/85.0","v1","","","","","","","","40,50,60,70,80","media/audio/stims/spherical_300cm_s20_c20_cd-full_matched_a60.wav","spherical","20","20","full","matched","60","70","1312"
"echo-presentation","87","449504","0.0-87.0","5f8825d4938a85280f506a83","5fef55e628823a0076ec12ee","601f44806f5fea47affb754d","Mozilla/5.0 (Windows NT 10.0; Win64; x64; rv:85.0) Gecko/20100101 Firefox/85.0","v1","","","","","","","","40,50,60,70,80","media/audio/stims/spherical_300cm_s20_c20_cd-full_matched_a40.wav","spherical","20","20","full","matched","40","60","1566"
"echo-presentation","88","451653","0.0-88.0","5f8825d4938a85280f506a83","5fef55e628823a0076ec12ee","601f44806f5fea47affb754d","Mozilla/5.0 (Windows NT 10.0; Win64; x64; rv:85.0) Gecko/20100101 Firefox/85.0","v1","","","","","","","","40,50,60,70,80","media/audio/stims/spherical_300cm_s20_c20_cd-full_matched_a60.wav","spherical","20","20","full","matched","60","60","1223"
"echo-presentation","89","453952","0.0-89.0","5f8825d4938a85280f506a83","5fef55e628823a0076ec12ee","601f44806f5fea47affb754d","Mozilla/5.0 (Windows NT 10.0; Win64; x64; rv:85.0) Gecko/20100101 Firefox/85.0","v1","","","","","","","","40,50,60,70,80","media/audio/stims/spherical_300cm_s20_c20_cd-full_matched_a50.wav","spherical","20","20","full","matched","50","60","1214"
"echo-presentation","90","456008","0.0-90.0","5f8825d4938a85280f506a83","5fef55e628823a0076ec12ee","601f44806f5fea47affb754d","Mozilla/5.0 (Windows NT 10.0; Win64; x64; rv:85.0) Gecko/20100101 Firefox/85.0","v1","","","","","","","","40,50,60,70,80","media/audio/stims/spherical_300cm_s20_c20_cd-full_matched_a40.wav","spherical","20","20","full","matched","40","50","1062"
"echo-presentation","91","458147","0.0-91.0","5f8825d4938a85280f506a83","5fef55e628823a0076ec12ee","601f44806f5fea47affb754d","Mozilla/5.0 (Windows NT 10.0; Win64; x64; rv:85.0) Gecko/20100101 Firefox/85.0","v1","","","","","","","","40,50,60,70,80","media/audio/stims/spherical_300cm_s20_c20_cd-full_matched_a50.wav","spherical","20","20","full","matched","50","50","1142"
"echo-presentation","92","461398","0.0-92.0","5f8825d4938a85280f506a83","5fef55e628823a0076ec12ee","601f44806f5fea47affb754d","Mozilla/5.0 (Windows NT 10.0; Win64; x64; rv:85.0) Gecko/20100101 Firefox/85.0","v1","","","","","","","","40,50,60,70,80","media/audio/stims/spherical_300cm_s20_c20_cd-full_matched_a80.wav","spherical","20","20","full","matched","80","70","2326"
"echo-presentation","93","463859","0.0-93.0","5f8825d4938a85280f506a83","5fef55e628823a0076ec12ee","601f44806f5fea47affb754d","Mozilla/5.0 (Windows NT 10.0; Win64; x64; rv:85.0) Gecko/20100101 Firefox/85.0","v1","","","","","","","","40,50,60,70,80","media/audio/stims/spherical_300cm_s20_c20_cd-full_matched_a60.wav","spherical","20","20","full","matched","60","70","1111"
"block-bookend","94","464772","0.0-94.0","5f8825d4938a85280f506a83","5fef55e628823a0076ec12ee","601f44806f5fea47affb754d","Mozilla/5.0 (Windows NT 10.0; Win64; x64; rv:85.0) Gecko/20100101 Firefox/85.0","v1","","","","","","","","","","","","","","","","",""
"block-bookend","95","479524","0.0-95.0","5f8825d4938a85280f506a83","5fef55e628823a0076ec12ee","601f44806f5fea47affb754d","Mozilla/5.0 (Windows NT 10.0; Win64; x64; rv:85.0) Gecko/20100101 Firefox/85.0","v1","","","","","","","","","","","","","","","","",""
"echo-presentation","96","484758","0.0-96.0","5f8825d4938a85280f506a83","5fef55e628823a0076ec12ee","601f44806f5fea47affb754d","Mozilla/5.0 (Windows NT 10.0; Win64; x64; rv:85.0) Gecko/20100101 Firefox/85.0","v1","","","","","","","","-80,-70,-60,-50,-40","media/audio/stims/spherical_300cm_s20_c20_cd-full_matched_a-80.wav","spherical","20","20","full","matched","-80","-40","3415"
"echo-presentation","97","487912","0.0-97.0","5f8825d4938a85280f506a83","5fef55e628823a0076ec12ee","601f44806f5fea47affb754d","Mozilla/5.0 (Windows NT 10.0; Win64; x64; rv:85.0) Gecko/20100101 Firefox/85.0","v1","","","","","","","","-80,-70,-60,-50,-40","media/audio/stims/spherical_300cm_s20_c20_cd-full_matched_a-50.wav","spherical","20","20","full","matched","-50","-70","2055"
"echo-presentation","98","490029","0.0-98.0","5f8825d4938a85280f506a83","5fef55e628823a0076ec12ee","601f44806f5fea47affb754d","Mozilla/5.0 (Windows NT 10.0; Win64; x64; rv:85.0) Gecko/20100101 Firefox/85.0","v1","","","","","","","","-80,-70,-60,-50,-40","media/audio/stims/spherical_300cm_s20_c20_cd-full_matched_a-40.wav","spherical","20","20","full","matched","-40","-80","1216"
"echo-presentation","99","492290","0.0-99.0","5f8825d4938a85280f506a83","5fef55e628823a0076ec12ee","601f44806f5fea47affb754d","Mozilla/5.0 (Windows NT 10.0; Win64; x64; rv:85.0) Gecko/20100101 Firefox/85.0","v1","","","","","","","","-80,-70,-60,-50,-40","media/audio/stims/spherical_300cm_s20_c20_cd-full_matched_a-60.wav","spherical","20","20","full","matched","-60","-70","1319"
"echo-presentation","100","495002","0.0-100.0","5f8825d4938a85280f506a83","5fef55e628823a0076ec12ee","601f44806f5fea47affb754d","Mozilla/5.0 (Windows NT 10.0; Win64; x64; rv:85.0) Gecko/20100101 Firefox/85.0","v1","","","","","","","","-80,-70,-60,-50,-40","media/audio/stims/spherical_300cm_s20_c20_cd-full_matched_a-70.wav","spherical","20","20","full","matched","-70","-60","1846"
"echo-presentation","101","497041","0.0-101.0","5f8825d4938a85280f506a83","5fef55e628823a0076ec12ee","601f44806f5fea47affb754d","Mozilla/5.0 (Windows NT 10.0; Win64; x64; rv:85.0) Gecko/20100101 Firefox/85.0","v1","","","","","","","","-80,-70,-60,-50,-40","media/audio/stims/spherical_300cm_s20_c20_cd-full_matched_a-80.wav","spherical","20","20","full","matched","-80","-70","1224"
"echo-presentation","102","499129","0.0-102.0","5f8825d4938a85280f506a83","5fef55e628823a0076ec12ee","601f44806f5fea47affb754d","Mozilla/5.0 (Windows NT 10.0; Win64; x64; rv:85.0) Gecko/20100101 Firefox/85.0","v1","","","","","","","","-80,-70,-60,-50,-40","media/audio/stims/spherical_300cm_s20_c20_cd-full_matched_a-60.wav","spherical","20","20","full","matched","-60","-70","1199"
"echo-presentation","103","501293","0.0-103.0","5f8825d4938a85280f506a83","5fef55e628823a0076ec12ee","601f44806f5fea47affb754d","Mozilla/5.0 (Windows NT 10.0; Win64; x64; rv:85.0) Gecko/20100101 Firefox/85.0","v1","","","","","","","","-80,-70,-60,-50,-40","media/audio/stims/spherical_300cm_s20_c20_cd-full_matched_a-50.wav","spherical","20","20","full","matched","-50","-80","1270"
"echo-presentation","104","503290","0.0-104.0","5f8825d4938a85280f506a83","5fef55e628823a0076ec12ee","601f44806f5fea47affb754d","Mozilla/5.0 (Windows NT 10.0; Win64; x64; rv:85.0) Gecko/20100101 Firefox/85.0","v1","","","","","","","","-80,-70,-60,-50,-40","media/audio/stims/spherical_300cm_s20_c20_cd-full_matched_a-80.wav","spherical","20","20","full","matched","-80","-70","1126"
"echo-presentation","105","505315","0.0-105.0","5f8825d4938a85280f506a83","5fef55e628823a0076ec12ee","601f44806f5fea47affb754d","Mozilla/5.0 (Windows NT 10.0; Win64; x64; rv:85.0) Gecko/20100101 Firefox/85.0","v1","","","","","","","","-80,-70,-60,-50,-40","media/audio/stims/spherical_300cm_s20_c20_cd-full_matched_a-40.wav","spherical","20","20","full","matched","-40","-80","1143"
"echo-presentation","106","507295","0.0-106.0","5f8825d4938a85280f506a83","5fef55e628823a0076ec12ee","601f44806f5fea47affb754d","Mozilla/5.0 (Windows NT 10.0; Win64; x64; rv:85.0) Gecko/20100101 Firefox/85.0","v1","","","","","","","","-80,-70,-60,-50,-40","media/audio/stims/spherical_300cm_s20_c20_cd-full_matched_a-50.wav","spherical","20","20","full","matched","-50","-80","1070"
"echo-presentation","107","509348","0.0-107.0","5f8825d4938a85280f506a83","5fef55e628823a0076ec12ee","601f44806f5fea47affb754d","Mozilla/5.0 (Windows NT 10.0; Win64; x64; rv:85.0) Gecko/20100101 Firefox/85.0","v1","","","","","","","","-80,-70,-60,-50,-40","media/audio/stims/spherical_300cm_s20_c20_cd-full_matched_a-60.wav","spherical","20","20","full","matched","-60","-70","1110"
"echo-presentation","108","511579","0.0-108.0","5f8825d4938a85280f506a83","5fef55e628823a0076ec12ee","601f44806f5fea47affb754d","Mozilla/5.0 (Windows NT 10.0; Win64; x64; rv:85.0) Gecko/20100101 Firefox/85.0","v1","","","","","","","","-80,-70,-60,-50,-40","media/audio/stims/spherical_300cm_s20_c20_cd-full_matched_a-50.wav","spherical","20","20","full","matched","-50","-70","1183"
"echo-presentation","109","514033","0.0-109.0","5f8825d4938a85280f506a83","5fef55e628823a0076ec12ee","601f44806f5fea47affb754d","Mozilla/5.0 (Windows NT 10.0; Win64; x64; rv:85.0) Gecko/20100101 Firefox/85.0","v1","","","","","","","","-80,-70,-60,-50,-40","media/audio/stims/spherical_300cm_s20_c20_cd-full_matched_a-80.wav","spherical","20","20","full","matched","-80","-60","1445"
"echo-presentation","110","516133","0.0-110.0","5f8825d4938a85280f506a83","5fef55e628823a0076ec12ee","601f44806f5fea47affb754d","Mozilla/5.0 (Windows NT 10.0; Win64; x64; rv:85.0) Gecko/20100101 Firefox/85.0","v1","","","","","","","","-80,-70,-60,-50,-40","media/audio/stims/spherical_300cm_s20_c20_cd-full_matched_a-40.wav","spherical","20","20","full","matched","-40","-70","1166"
"echo-presentation","111","518201","0.0-111.0","5f8825d4938a85280f506a83","5fef55e628823a0076ec12ee","601f44806f5fea47affb754d","Mozilla/5.0 (Windows NT 10.0; Win64; x64; rv:85.0) Gecko/20100101 Firefox/85.0","v1","","","","","","","","-80,-70,-60,-50,-40","media/audio/stims/spherical_300cm_s20_c20_cd-full_matched_a-40.wav","spherical","20","20","full","matched","-40","-80","1094"
"echo-presentation","112","521098","0.0-112.0","5f8825d4938a85280f506a83","5fef55e628823a0076ec12ee","601f44806f5fea47affb754d","Mozilla/5.0 (Windows NT 10.0; Win64; x64; rv:85.0) Gecko/20100101 Firefox/85.0","v1","","","","","","","","-80,-70,-60,-50,-40","media/audio/stims/spherical_300cm_s20_c20_cd-full_matched_a-70.wav","spherical","20","20","full","matched","-70","-50","1927"
"echo-presentation","113","523710","0.0-113.0","5f8825d4938a85280f506a83","5fef55e628823a0076ec12ee","601f44806f5fea47affb754d","Mozilla/5.0 (Windows NT 10.0; Win64; x64; rv:85.0) Gecko/20100101 Firefox/85.0","v1","","","","","","","","-80,-70,-60,-50,-40","media/audio/stims/spherical_300cm_s20_c20_cd-full_matched_a-70.wav","spherical","20","20","full","matched","-70","-40","1423"
"echo-presentation","114","526675","0.0-114.0","5f8825d4938a85280f506a83","5fef55e628823a0076ec12ee","601f44806f5fea47affb754d","Mozilla/5.0 (Windows NT 10.0; Win64; x64; rv:85.0) Gecko/20100101 Firefox/85.0","v1","","","","","","","","-80,-70,-60,-50,-40","media/audio/stims/spherical_300cm_s20_c20_cd-full_matched_a-70.wav","spherical","20","20","full","matched","-70","-40","1759"
"echo-presentation","115","529951","0.0-115.0","5f8825d4938a85280f506a83","5fef55e628823a0076ec12ee","601f44806f5fea47affb754d","Mozilla/5.0 (Windows NT 10.0; Win64; x64; rv:85.0) Gecko/20100101 Firefox/85.0","v1","","","","","","","","-80,-70,-60,-50,-40","media/audio/stims/spherical_300cm_s20_c20_cd-full_matched_a-60.wav","spherical","20","20","full","matched","-60","-50","2215"
"block-bookend","116","530877","0.0-116.0","5f8825d4938a85280f506a83","5fef55e628823a0076ec12ee","601f44806f5fea47affb754d","Mozilla/5.0 (Windows NT 10.0; Win64; x64; rv:85.0) Gecko/20100101 Firefox/85.0","v1","","","","","","","","","","","","","","","","",""
"block-bookend","117","537212","0.0-117.0","5f8825d4938a85280f506a83","5fef55e628823a0076ec12ee","601f44806f5fea47affb754d","Mozilla/5.0 (Windows NT 10.0; Win64; x64; rv:85.0) Gecko/20100101 Firefox/85.0","v1","","","","","","","","","","","","","","","","",""
"echo-presentation","118","540096","0.0-118.0","5f8825d4938a85280f506a83","5fef55e628823a0076ec12ee","601f44806f5fea47affb754d","Mozilla/5.0 (Windows NT 10.0; Win64; x64; rv:85.0) Gecko/20100101 Firefox/85.0","v1","","","","","","","","-80,-70,-60,-50,-40","media/audio/stims/spherical_300cm_s20_c20_cd-full_matched_a-40.wav","spherical","20","20","full","matched","-40","-80","1336"
"echo-presentation","119","542633","0.0-119.0","5f8825d4938a85280f506a83","5fef55e628823a0076ec12ee","601f44806f5fea47affb754d","Mozilla/5.0 (Windows NT 10.0; Win64; x64; rv:85.0) Gecko/20100101 Firefox/85.0","v1","","","","","","","","-80,-70,-60,-50,-40","media/audio/stims/spherical_300cm_s20_c20_cd-full_matched_a-70.wav","spherical","20","20","full","matched","-70","-70","1550"
"echo-presentation","120","545137","0.0-120.0","5f8825d4938a85280f506a83","5fef55e628823a0076ec12ee","601f44806f5fea47affb754d","Mozilla/5.0 (Windows NT 10.0; Win64; x64; rv:85.0) Gecko/20100101 Firefox/85.0","v1","","","","","","","","-80,-70,-60,-50,-40","media/audio/stims/spherical_300cm_s20_c20_cd-full_matched_a-70.wav","spherical","20","20","full","matched","-70","-70","1502"
"echo-presentation","121","547275","0.0-121.0","5f8825d4938a85280f506a83","5fef55e628823a0076ec12ee","601f44806f5fea47affb754d","Mozilla/5.0 (Windows NT 10.0; Win64; x64; rv:85.0) Gecko/20100101 Firefox/85.0","v1","","","","","","","","-80,-70,-60,-50,-40","media/audio/stims/spherical_300cm_s20_c20_cd-full_matched_a-60.wav","spherical","20","20","full","matched","-60","-80","1102"
"echo-presentation","122","549240","0.0-122.0","5f8825d4938a85280f506a83","5fef55e628823a0076ec12ee","601f44806f5fea47affb754d","Mozilla/5.0 (Windows NT 10.0; Win64; x64; rv:85.0) Gecko/20100101 Firefox/85.0","v1","","","","","","","","-80,-70,-60,-50,-40","media/audio/stims/spherical_300cm_s20_c20_cd-full_matched_a-40.wav","spherical","20","20","full","matched","-40","-80","1133"
"echo-presentation","123","551408","0.0-123.0","5f8825d4938a85280f506a83","5fef55e628823a0076ec12ee","601f44806f5fea47affb754d","Mozilla/5.0 (Windows NT 10.0; Win64; x64; rv:85.0) Gecko/20100101 Firefox/85.0","v1","","","","","","","","-80,-70,-60,-50,-40","media/audio/stims/spherical_300cm_s20_c20_cd-full_matched_a-80.wav","spherical","20","20","full","matched","-80","-60","1422"
"echo-presentation","124","553712","0.0-124.0","5f8825d4938a85280f506a83","5fef55e628823a0076ec12ee","601f44806f5fea47affb754d","Mozilla/5.0 (Windows NT 10.0; Win64; x64; rv:85.0) Gecko/20100101 Firefox/85.0","v1","","","","","","","","-80,-70,-60,-50,-40","media/audio/stims/spherical_300cm_s20_c20_cd-full_matched_a-40.wav","spherical","20","20","full","matched","-40","-70","1311"
"echo-presentation","125","556421","0.0-125.0","5f8825d4938a85280f506a83","5fef55e628823a0076ec12ee","601f44806f5fea47affb754d","Mozilla/5.0 (Windows NT 10.0; Win64; x64; rv:85.0) Gecko/20100101 Firefox/85.0","v1","","","","","","","","-80,-70,-60,-50,-40","media/audio/stims/spherical_300cm_s20_c20_cd-full_matched_a-70.wav","spherical","20","20","full","matched","-70","-50","1838"
"echo-presentation","126","558658","0.0-126.0","5f8825d4938a85280f506a83","5fef55e628823a0076ec12ee","601f44806f5fea47affb754d","Mozilla/5.0 (Windows NT 10.0; Win64; x64; rv:85.0) Gecko/20100101 Firefox/85.0","v1","","","","","","","","-80,-70,-60,-50,-40","media/audio/stims/spherical_300cm_s20_c20_cd-full_matched_a-40.wav","spherical","20","20","full","matched","-40","-80","1327"
"echo-presentation","127","560989","0.0-127.0","5f8825d4938a85280f506a83","5fef55e628823a0076ec12ee","601f44806f5fea47affb754d","Mozilla/5.0 (Windows NT 10.0; Win64; x64; rv:85.0) Gecko/20100101 Firefox/85.0","v1","","","","","","","","-80,-70,-60,-50,-40","media/audio/stims/spherical_300cm_s20_c20_cd-full_matched_a-80.wav","spherical","20","20","full","matched","-80","-40","1422"
"echo-presentation","128","563567","0.0-128.0","5f8825d4938a85280f506a83","5fef55e628823a0076ec12ee","601f44806f5fea47affb754d","Mozilla/5.0 (Windows NT 10.0; Win64; x64; rv:85.0) Gecko/20100101 Firefox/85.0","v1","","","","","","","","-80,-70,-60,-50,-40","media/audio/stims/spherical_300cm_s20_c20_cd-full_matched_a-50.wav","spherical","20","20","full","matched","-50","-80","1615"
"echo-presentation","129","566244","0.0-129.0","5f8825d4938a85280f506a83","5fef55e628823a0076ec12ee","601f44806f5fea47affb754d","Mozilla/5.0 (Windows NT 10.0; Win64; x64; rv:85.0) Gecko/20100101 Firefox/85.0","v1","","","","","","","","-80,-70,-60,-50,-40","media/audio/stims/spherical_300cm_s20_c20_cd-full_matched_a-50.wav","spherical","20","20","full","matched","-50","-80","1360"
"echo-presentation","130","568575","0.0-130.0","5f8825d4938a85280f506a83","5fef55e628823a0076ec12ee","601f44806f5fea47affb754d","Mozilla/5.0 (Windows NT 10.0; Win64; x64; rv:85.0) Gecko/20100101 Firefox/85.0","v1","","","","","","","","-80,-70,-60,-50,-40","media/audio/stims/spherical_300cm_s20_c20_cd-full_matched_a-50.wav","spherical","20","20","full","matched","-50","-80","1407"
"echo-presentation","131","570743","0.0-131.0","5f8825d4938a85280f506a83","5fef55e628823a0076ec12ee","601f44806f5fea47affb754d","Mozilla/5.0 (Windows NT 10.0; Win64; x64; rv:85.0) Gecko/20100101 Firefox/85.0","v1","","","","","","","","-80,-70,-60,-50,-40","media/audio/stims/spherical_300cm_s20_c20_cd-full_matched_a-60.wav","spherical","20","20","full","matched","-60","-70","1231"
"echo-presentation","132","572926","0.0-132.0","5f8825d4938a85280f506a83","5fef55e628823a0076ec12ee","601f44806f5fea47affb754d","Mozilla/5.0 (Windows NT 10.0; Win64; x64; rv:85.0) Gecko/20100101 Firefox/85.0","v1","","","","","","","","-80,-70,-60,-50,-40","media/audio/stims/spherical_300cm_s20_c20_cd-full_matched_a-80.wav","spherical","20","20","full","matched","-80","-60","1318"
"echo-presentation","133","575631","0.0-133.0","5f8825d4938a85280f506a83","5fef55e628823a0076ec12ee","601f44806f5fea47affb754d","Mozilla/5.0 (Windows NT 10.0; Win64; x64; rv:85.0) Gecko/20100101 Firefox/85.0","v1","","","","","","","","-80,-70,-60,-50,-40","media/audio/stims/spherical_300cm_s20_c20_cd-full_matched_a-70.wav","spherical","20","20","full","matched","-70","-60","1766"
"echo-presentation","134","577733","0.0-134.0","5f8825d4938a85280f506a83","5fef55e628823a0076ec12ee","601f44806f5fea47affb754d","Mozilla/5.0 (Windows NT 10.0; Win64; x64; rv:85.0) Gecko/20100101 Firefox/85.0","v1","","","","","","","","-80,-70,-60,-50,-40","media/audio/stims/spherical_300cm_s20_c20_cd-full_matched_a-50.wav","spherical","20","20","full","matched","-50","-80","1184"
"echo-presentation","135","580101","0.0-135.0","5f8825d4938a85280f506a83","5fef55e628823a0076ec12ee","601f44806f5fea47affb754d","Mozilla/5.0 (Windows NT 10.0; Win64; x64; rv:85.0) Gecko/20100101 Firefox/85.0","v1","","","","","","","","-80,-70,-60,-50,-40","media/audio/stims/spherical_300cm_s20_c20_cd-full_matched_a-60.wav","spherical","20","20","full","matched","-60","-60","1462"
"echo-presentation","136","582405","0.0-136.0","5f8825d4938a85280f506a83","5fef55e628823a0076ec12ee","601f44806f5fea47affb754d","Mozilla/5.0 (Windows NT 10.0; Win64; x64; rv:85.0) Gecko/20100101 Firefox/85.0","v1","","","","","","","","-80,-70,-60,-50,-40","media/audio/stims/spherical_300cm_s20_c20_cd-full_matched_a-80.wav","spherical","20","20","full","matched","-80","-40","1407"
"echo-presentation","137","586241","0.0-137.0","5f8825d4938a85280f506a83","5fef55e628823a0076ec12ee","601f44806f5fea47affb754d","Mozilla/5.0 (Windows NT 10.0; Win64; x64; rv:85.0) Gecko/20100101 Firefox/85.0","v1","","","","","","","","-80,-70,-60,-50,-40","media/audio/stims/spherical_300cm_s20_c20_cd-full_matched_a-60.wav","spherical","20","20","full","matched","-60","-50","2719"
"block-bookend","138","587981","0.0-138.0","5f8825d4938a85280f506a83","5fef55e628823a0076ec12ee","601f44806f5fea47affb754d","Mozilla/5.0 (Windows NT 10.0; Win64; x64; rv:85.0) Gecko/20100101 Firefox/85.0","v1","","","","","","","","","","","","","","","","",""
