"trial_type","trial_index","time_elapsed","internal_node_id","prolificPid","studyId","sessionId","userAgent","version","rt","stimulus","key_press","chosenKeyset","failureCount","testIndex","globalVolume","choices","filename","modelName","slowdown","compensation","compensationDescriptor","receiverOrientationType","azimuth","responseAzimuth","responseDelay"
"pavlovia","0","5","0.0-0.0","5e1cd047cf445f05eef00adb","5fef55e628823a0076ec12ee","601f446edc8ed948b8492cbf","Mozilla/5.0 (Windows NT 10.0; Win64; x64) AppleWebKit/537.36 (KHTML, like Gecko) Chrome/88.0.4324.146 Safari/537.36","v1","","","","","","","","","","","","","","","","",""
"html-keyboard-response","1","35747","0.0-1.0","5e1cd047cf445f05eef00adb","5fef55e628823a0076ec12ee","601f446edc8ed948b8492cbf","Mozilla/5.0 (Windows NT 10.0; Win64; x64) AppleWebKit/537.36 (KHTML, like Gecko) Chrome/88.0.4324.146 Safari/537.36","v1","35739.209999970626","<div><h1>Welcome!</h1><p>Press any key to continue.</p></div>","17","","","","","","","","","","","","","",""
"consent-form","2","48385","0.0-2.0","5e1cd047cf445f05eef00adb","5fef55e628823a0076ec12ee","601f446edc8ed948b8492cbf","Mozilla/5.0 (Windows NT 10.0; Win64; x64) AppleWebKit/537.36 (KHTML, like Gecko) Chrome/88.0.4324.146 Safari/537.36","v1","","","","","","","","","","","","","","","","",""
"keyset-select","3","481106","0.0-3.0","5e1cd047cf445f05eef00adb","5fef55e628823a0076ec12ee","601f446edc8ed948b8492cbf","Mozilla/5.0 (Windows NT 10.0; Win64; x64) AppleWebKit/537.36 (KHTML, like Gecko) Chrome/88.0.4324.146 Safari/537.36","v1","","","","left-hand","","","","","","","","","","","","",""
"headphone-check","4","527047","0.0-4.0","5e1cd047cf445f05eef00adb","5fef55e628823a0076ec12ee","601f446edc8ed948b8492cbf","Mozilla/5.0 (Windows NT 10.0; Win64; x64) AppleWebKit/537.36 (KHTML, like Gecko) Chrome/88.0.4324.146 Safari/537.36","v1","","","","","0","6","0.3","","","","","","","","","",""
"headphone-backwards-check","5","541222","0.0-5.0","5e1cd047cf445f05eef00adb","5fef55e628823a0076ec12ee","601f446edc8ed948b8492cbf","Mozilla/5.0 (Windows NT 10.0; Win64; x64) AppleWebKit/537.36 (KHTML, like Gecko) Chrome/88.0.4324.146 Safari/537.36","v1","","","","","0","","","","","","","","","","","",""
"training","6","617486","0.0-6.0","5e1cd047cf445f05eef00adb","5fef55e628823a0076ec12ee","601f446edc8ed948b8492cbf","Mozilla/5.0 (Windows NT 10.0; Win64; x64) AppleWebKit/537.36 (KHTML, like Gecko) Chrome/88.0.4324.146 Safari/537.36","v1","","","","","","","","","","","","","","","","",""
"block-bookend","7","629195","0.0-7.0","5e1cd047cf445f05eef00adb","5fef55e628823a0076ec12ee","601f446edc8ed948b8492cbf","Mozilla/5.0 (Windows NT 10.0; Win64; x64) AppleWebKit/537.36 (KHTML, like Gecko) Chrome/88.0.4324.146 Safari/537.36","v1","","","","","","","","","","","","","","","","",""
"echo-presentation","8","634068","0.0-8.0","5e1cd047cf445f05eef00adb","5fef55e628823a0076ec12ee","601f446edc8ed948b8492cbf","Mozilla/5.0 (Windows NT 10.0; Win64; x64) AppleWebKit/537.36 (KHTML, like Gecko) Chrome/88.0.4324.146 Safari/537.36","v1","","","","","","","","40,50,60,70,80","media/audio/stims/spherical_300cm_s20_c20_cd-full_matched_a70.wav","spherical","20","20","full","matched","70","70","1381"
"echo-presentation","9","636925","0.0-9.0","5e1cd047cf445f05eef00adb","5fef55e628823a0076ec12ee","601f446edc8ed948b8492cbf","Mozilla/5.0 (Windows NT 10.0; Win64; x64) AppleWebKit/537.36 (KHTML, like Gecko) Chrome/88.0.4324.146 Safari/537.36","v1","","","","","","","","40,50,60,70,80","media/audio/stims/spherical_300cm_s20_c20_cd-full_matched_a40.wav","spherical","20","20","full","matched","40","70","1219"
"echo-presentation","10","640136","0.0-10.0","5e1cd047cf445f05eef00adb","5fef55e628823a0076ec12ee","601f446edc8ed948b8492cbf","Mozilla/5.0 (Windows NT 10.0; Win64; x64) AppleWebKit/537.36 (KHTML, like Gecko) Chrome/88.0.4324.146 Safari/537.36","v1","","","","","","","","40,50,60,70,80","media/audio/stims/spherical_300cm_s20_c20_cd-full_matched_a80.wav","spherical","20","20","full","matched","80","70","1814"
"echo-presentation","11","643952","0.0-11.0","5e1cd047cf445f05eef00adb","5fef55e628823a0076ec12ee","601f446edc8ed948b8492cbf","Mozilla/5.0 (Windows NT 10.0; Win64; x64) AppleWebKit/537.36 (KHTML, like Gecko) Chrome/88.0.4324.146 Safari/537.36","v1","","","","","","","","40,50,60,70,80","media/audio/stims/spherical_300cm_s20_c20_cd-full_matched_a70.wav","spherical","20","20","full","matched","70","80","2421"
"echo-presentation","12","646434","0.0-12.0","5e1cd047cf445f05eef00adb","5fef55e628823a0076ec12ee","601f446edc8ed948b8492cbf","Mozilla/5.0 (Windows NT 10.0; Win64; x64) AppleWebKit/537.36 (KHTML, like Gecko) Chrome/88.0.4324.146 Safari/537.36","v1","","","","","","","","40,50,60,70,80","media/audio/stims/spherical_300cm_s20_c20_cd-full_matched_a80.wav","spherical","20","20","full","matched","80","80","1365"
"echo-presentation","13","648713","0.0-13.0","5e1cd047cf445f05eef00adb","5fef55e628823a0076ec12ee","601f446edc8ed948b8492cbf","Mozilla/5.0 (Windows NT 10.0; Win64; x64) AppleWebKit/537.36 (KHTML, like Gecko) Chrome/88.0.4324.146 Safari/537.36","v1","","","","","","","","40,50,60,70,80","media/audio/stims/spherical_300cm_s20_c20_cd-full_matched_a80.wav","spherical","20","20","full","matched","80","80","1181"
"echo-presentation","14","650893","0.0-14.0","5e1cd047cf445f05eef00adb","5fef55e628823a0076ec12ee","601f446edc8ed948b8492cbf","Mozilla/5.0 (Windows NT 10.0; Win64; x64) AppleWebKit/537.36 (KHTML, like Gecko) Chrome/88.0.4324.146 Safari/537.36","v1","","","","","","","","40,50,60,70,80","media/audio/stims/spherical_300cm_s20_c20_cd-full_matched_a60.wav","spherical","20","20","full","matched","60","80","1186"
"echo-presentation","15","653095","0.0-15.0","5e1cd047cf445f05eef00adb","5fef55e628823a0076ec12ee","601f446edc8ed948b8492cbf","Mozilla/5.0 (Windows NT 10.0; Win64; x64) AppleWebKit/537.36 (KHTML, like Gecko) Chrome/88.0.4324.146 Safari/537.36","v1","","","","","","","","40,50,60,70,80","media/audio/stims/spherical_300cm_s20_c20_cd-full_matched_a50.wav","spherical","20","20","full","matched","50","80","1132"
"echo-presentation","16","655047","0.0-16.0","5e1cd047cf445f05eef00adb","5fef55e628823a0076ec12ee","601f446edc8ed948b8492cbf","Mozilla/5.0 (Windows NT 10.0; Win64; x64) AppleWebKit/537.36 (KHTML, like Gecko) Chrome/88.0.4324.146 Safari/537.36","v1","","","","","","","","40,50,60,70,80","media/audio/stims/spherical_300cm_s20_c20_cd-full_matched_a70.wav","spherical","20","20","full","matched","70","80","1143"
"echo-presentation","17","657184","0.0-17.0","5e1cd047cf445f05eef00adb","5fef55e628823a0076ec12ee","601f446edc8ed948b8492cbf","Mozilla/5.0 (Windows NT 10.0; Win64; x64) AppleWebKit/537.36 (KHTML, like Gecko) Chrome/88.0.4324.146 Safari/537.36","v1","","","","","","","","40,50,60,70,80","media/audio/stims/spherical_300cm_s20_c20_cd-full_matched_a50.wav","spherical","20","20","full","matched","50","80","1205"
"echo-presentation","18","659078","0.0-18.0","5e1cd047cf445f05eef00adb","5fef55e628823a0076ec12ee","601f446edc8ed948b8492cbf","Mozilla/5.0 (Windows NT 10.0; Win64; x64) AppleWebKit/537.36 (KHTML, like Gecko) Chrome/88.0.4324.146 Safari/537.36","v1","","","","","","","","40,50,60,70,80","media/audio/stims/spherical_300cm_s20_c20_cd-full_matched_a50.wav","spherical","20","20","full","matched","50","80","1066"
"echo-presentation","19","660989","0.0-19.0","5e1cd047cf445f05eef00adb","5fef55e628823a0076ec12ee","601f446edc8ed948b8492cbf","Mozilla/5.0 (Windows NT 10.0; Win64; x64) AppleWebKit/537.36 (KHTML, like Gecko) Chrome/88.0.4324.146 Safari/537.36","v1","","","","","","","","40,50,60,70,80","media/audio/stims/spherical_300cm_s20_c20_cd-full_matched_a40.wav","spherical","20","20","full","matched","40","80","1081"
"echo-presentation","20","663050","0.0-20.0","5e1cd047cf445f05eef00adb","5fef55e628823a0076ec12ee","601f446edc8ed948b8492cbf","Mozilla/5.0 (Windows NT 10.0; Win64; x64) AppleWebKit/537.36 (KHTML, like Gecko) Chrome/88.0.4324.146 Safari/537.36","v1","","","","","","","","40,50,60,70,80","media/audio/stims/spherical_300cm_s20_c20_cd-full_matched_a50.wav","spherical","20","20","full","matched","50","80","1109"
"echo-presentation","21","665439","0.0-21.0","5e1cd047cf445f05eef00adb","5fef55e628823a0076ec12ee","601f446edc8ed948b8492cbf","Mozilla/5.0 (Windows NT 10.0; Win64; x64) AppleWebKit/537.36 (KHTML, like Gecko) Chrome/88.0.4324.146 Safari/537.36","v1","","","","","","","","40,50,60,70,80","media/audio/stims/spherical_300cm_s20_c20_cd-full_matched_a60.wav","spherical","20","20","full","matched","60","80","1078"
"echo-presentation","22","667351","0.0-22.0","5e1cd047cf445f05eef00adb","5fef55e628823a0076ec12ee","601f446edc8ed948b8492cbf","Mozilla/5.0 (Windows NT 10.0; Win64; x64) AppleWebKit/537.36 (KHTML, like Gecko) Chrome/88.0.4324.146 Safari/537.36","v1","","","","","","","","40,50,60,70,80","media/audio/stims/spherical_300cm_s20_c20_cd-full_matched_a80.wav","spherical","20","20","full","matched","80","80","1096"
"echo-presentation","23","669334","0.0-23.0","5e1cd047cf445f05eef00adb","5fef55e628823a0076ec12ee","601f446edc8ed948b8492cbf","Mozilla/5.0 (Windows NT 10.0; Win64; x64) AppleWebKit/537.36 (KHTML, like Gecko) Chrome/88.0.4324.146 Safari/537.36","v1","","","","","","","","40,50,60,70,80","media/audio/stims/spherical_300cm_s20_c20_cd-full_matched_a40.wav","spherical","20","20","full","matched","40","80","1172"
"echo-presentation","24","671292","0.0-24.0","5e1cd047cf445f05eef00adb","5fef55e628823a0076ec12ee","601f446edc8ed948b8492cbf","Mozilla/5.0 (Windows NT 10.0; Win64; x64) AppleWebKit/537.36 (KHTML, like Gecko) Chrome/88.0.4324.146 Safari/537.36","v1","","","","","","","","40,50,60,70,80","media/audio/stims/spherical_300cm_s20_c20_cd-full_matched_a60.wav","spherical","20","20","full","matched","60","80","1175"
"echo-presentation","25","673473","0.0-25.0","5e1cd047cf445f05eef00adb","5fef55e628823a0076ec12ee","601f446edc8ed948b8492cbf","Mozilla/5.0 (Windows NT 10.0; Win64; x64) AppleWebKit/537.36 (KHTML, like Gecko) Chrome/88.0.4324.146 Safari/537.36","v1","","","","","","","","40,50,60,70,80","media/audio/stims/spherical_300cm_s20_c20_cd-full_matched_a40.wav","spherical","20","20","full","matched","40","80","1304"
"echo-presentation","26","675360","0.0-26.0","5e1cd047cf445f05eef00adb","5fef55e628823a0076ec12ee","601f446edc8ed948b8492cbf","Mozilla/5.0 (Windows NT 10.0; Win64; x64) AppleWebKit/537.36 (KHTML, like Gecko) Chrome/88.0.4324.146 Safari/537.36","v1","","","","","","","","40,50,60,70,80","media/audio/stims/spherical_300cm_s20_c20_cd-full_matched_a70.wav","spherical","20","20","full","matched","70","80","1089"
"echo-presentation","27","677709","0.0-27.0","5e1cd047cf445f05eef00adb","5fef55e628823a0076ec12ee","601f446edc8ed948b8492cbf","Mozilla/5.0 (Windows NT 10.0; Win64; x64) AppleWebKit/537.36 (KHTML, like Gecko) Chrome/88.0.4324.146 Safari/537.36","v1","","","","","","","","40,50,60,70,80","media/audio/stims/spherical_300cm_s20_c20_cd-full_matched_a60.wav","spherical","20","20","full","matched","60","80","1084"
"block-bookend","28","683550","0.0-28.0","5e1cd047cf445f05eef00adb","5fef55e628823a0076ec12ee","601f446edc8ed948b8492cbf","Mozilla/5.0 (Windows NT 10.0; Win64; x64) AppleWebKit/537.36 (KHTML, like Gecko) Chrome/88.0.4324.146 Safari/537.36","v1","","","","","","","","","","","","","","","","",""
"block-bookend","29","692970","0.0-29.0","5e1cd047cf445f05eef00adb","5fef55e628823a0076ec12ee","601f446edc8ed948b8492cbf","Mozilla/5.0 (Windows NT 10.0; Win64; x64) AppleWebKit/537.36 (KHTML, like Gecko) Chrome/88.0.4324.146 Safari/537.36","v1","","","","","","","","","","","","","","","","",""
"echo-presentation","30","695584","0.0-30.0","5e1cd047cf445f05eef00adb","5fef55e628823a0076ec12ee","601f446edc8ed948b8492cbf","Mozilla/5.0 (Windows NT 10.0; Win64; x64) AppleWebKit/537.36 (KHTML, like Gecko) Chrome/88.0.4324.146 Safari/537.36","v1","","","","","","","","40,50,60,70,80","media/audio/stims/spherical_300cm_s20_c20_cd-full_matched_a60.wav","spherical","20","20","full","matched","60","80","1205"
"echo-presentation","31","698577","0.0-31.0","5e1cd047cf445f05eef00adb","5fef55e628823a0076ec12ee","601f446edc8ed948b8492cbf","Mozilla/5.0 (Windows NT 10.0; Win64; x64) AppleWebKit/537.36 (KHTML, like Gecko) Chrome/88.0.4324.146 Safari/537.36","v1","","","","","","","","40,50,60,70,80","media/audio/stims/spherical_300cm_s20_c20_cd-full_matched_a60.wav","spherical","20","20","full","matched","60","70","1338"
"echo-presentation","32","700610","0.0-32.0","5e1cd047cf445f05eef00adb","5fef55e628823a0076ec12ee","601f446edc8ed948b8492cbf","Mozilla/5.0 (Windows NT 10.0; Win64; x64) AppleWebKit/537.36 (KHTML, like Gecko) Chrome/88.0.4324.146 Safari/537.36","v1","","","","","","","","40,50,60,70,80","media/audio/stims/spherical_300cm_s20_c20_cd-full_matched_a40.wav","spherical","20","20","full","matched","40","70","1220"
"echo-presentation","33","702597","0.0-33.0","5e1cd047cf445f05eef00adb","5fef55e628823a0076ec12ee","601f446edc8ed948b8492cbf","Mozilla/5.0 (Windows NT 10.0; Win64; x64) AppleWebKit/537.36 (KHTML, like Gecko) Chrome/88.0.4324.146 Safari/537.36","v1","","","","","","","","40,50,60,70,80","media/audio/stims/spherical_300cm_s20_c20_cd-full_matched_a50.wav","spherical","20","20","full","matched","50","70","1153"
"echo-presentation","34","705735","0.0-34.0","5e1cd047cf445f05eef00adb","5fef55e628823a0076ec12ee","601f446edc8ed948b8492cbf","Mozilla/5.0 (Windows NT 10.0; Win64; x64) AppleWebKit/537.36 (KHTML, like Gecko) Chrome/88.0.4324.146 Safari/537.36","v1","","","","","","","","40,50,60,70,80","media/audio/stims/spherical_300cm_s20_c20_cd-full_matched_a80.wav","spherical","20","20","full","matched","80","70","1287"
"echo-presentation","35","709116","0.0-35.0","5e1cd047cf445f05eef00adb","5fef55e628823a0076ec12ee","601f446edc8ed948b8492cbf","Mozilla/5.0 (Windows NT 10.0; Win64; x64) AppleWebKit/537.36 (KHTML, like Gecko) Chrome/88.0.4324.146 Safari/537.36","v1","","","","","","","","40,50,60,70,80","media/audio/stims/spherical_300cm_s20_c20_cd-full_matched_a40.wav","spherical","20","20","full","matched","40","70","1030"
"echo-presentation","36","711224","0.0-36.0","5e1cd047cf445f05eef00adb","5fef55e628823a0076ec12ee","601f446edc8ed948b8492cbf","Mozilla/5.0 (Windows NT 10.0; Win64; x64) AppleWebKit/537.36 (KHTML, like Gecko) Chrome/88.0.4324.146 Safari/537.36","v1","","","","","","","","40,50,60,70,80","media/audio/stims/spherical_300cm_s20_c20_cd-full_matched_a70.wav","spherical","20","20","full","matched","70","70","1267"
"echo-presentation","37","713325","0.0-37.0","5e1cd047cf445f05eef00adb","5fef55e628823a0076ec12ee","601f446edc8ed948b8492cbf","Mozilla/5.0 (Windows NT 10.0; Win64; x64) AppleWebKit/537.36 (KHTML, like Gecko) Chrome/88.0.4324.146 Safari/537.36","v1","","","","","","","","40,50,60,70,80","media/audio/stims/spherical_300cm_s20_c20_cd-full_matched_a70.wav","spherical","20","20","full","matched","70","70","1256"
"echo-presentation","38","715485","0.0-38.0","5e1cd047cf445f05eef00adb","5fef55e628823a0076ec12ee","601f446edc8ed948b8492cbf","Mozilla/5.0 (Windows NT 10.0; Win64; x64) AppleWebKit/537.36 (KHTML, like Gecko) Chrome/88.0.4324.146 Safari/537.36","v1","","","","","","","","40,50,60,70,80","media/audio/stims/spherical_300cm_s20_c20_cd-full_matched_a40.wav","spherical","20","20","full","matched","40","70","1269"
"echo-presentation","39","717737","0.0-39.0","5e1cd047cf445f05eef00adb","5fef55e628823a0076ec12ee","601f446edc8ed948b8492cbf","Mozilla/5.0 (Windows NT 10.0; Win64; x64) AppleWebKit/537.36 (KHTML, like Gecko) Chrome/88.0.4324.146 Safari/537.36","v1","","","","","","","","40,50,60,70,80","media/audio/stims/spherical_300cm_s20_c20_cd-full_matched_a80.wav","spherical","20","20","full","matched","80","70","1198"
"echo-presentation","40","720037","0.0-40.0","5e1cd047cf445f05eef00adb","5fef55e628823a0076ec12ee","601f446edc8ed948b8492cbf","Mozilla/5.0 (Windows NT 10.0; Win64; x64) AppleWebKit/537.36 (KHTML, like Gecko) Chrome/88.0.4324.146 Safari/537.36","v1","","","","","","","","40,50,60,70,80","media/audio/stims/spherical_300cm_s20_c20_cd-full_matched_a80.wav","spherical","20","20","full","matched","80","70","1250"
"echo-presentation","41","722013","0.0-41.0","5e1cd047cf445f05eef00adb","5fef55e628823a0076ec12ee","601f446edc8ed948b8492cbf","Mozilla/5.0 (Windows NT 10.0; Win64; x64) AppleWebKit/537.36 (KHTML, like Gecko) Chrome/88.0.4324.146 Safari/537.36","v1","","","","","","","","40,50,60,70,80","media/audio/stims/spherical_300cm_s20_c20_cd-full_matched_a70.wav","spherical","20","20","full","matched","70","70","1190"
"echo-presentation","42","724031","0.0-42.0","5e1cd047cf445f05eef00adb","5fef55e628823a0076ec12ee","601f446edc8ed948b8492cbf","Mozilla/5.0 (Windows NT 10.0; Win64; x64) AppleWebKit/537.36 (KHTML, like Gecko) Chrome/88.0.4324.146 Safari/537.36","v1","","","","","","","","40,50,60,70,80","media/audio/stims/spherical_300cm_s20_c20_cd-full_matched_a60.wav","spherical","20","20","full","matched","60","70","1277"
"echo-presentation","43","726041","0.0-43.0","5e1cd047cf445f05eef00adb","5fef55e628823a0076ec12ee","601f446edc8ed948b8492cbf","Mozilla/5.0 (Windows NT 10.0; Win64; x64) AppleWebKit/537.36 (KHTML, like Gecko) Chrome/88.0.4324.146 Safari/537.36","v1","","","","","","","","40,50,60,70,80","media/audio/stims/spherical_300cm_s20_c20_cd-full_matched_a40.wav","spherical","20","20","full","matched","40","70","1160"
"echo-presentation","44","728205","0.0-44.0","5e1cd047cf445f05eef00adb","5fef55e628823a0076ec12ee","601f446edc8ed948b8492cbf","Mozilla/5.0 (Windows NT 10.0; Win64; x64) AppleWebKit/537.36 (KHTML, like Gecko) Chrome/88.0.4324.146 Safari/537.36","v1","","","","","","","","40,50,60,70,80","media/audio/stims/spherical_300cm_s20_c20_cd-full_matched_a50.wav","spherical","20","20","full","matched","50","70","1334"
"echo-presentation","45","730256","0.0-45.0","5e1cd047cf445f05eef00adb","5fef55e628823a0076ec12ee","601f446edc8ed948b8492cbf","Mozilla/5.0 (Windows NT 10.0; Win64; x64) AppleWebKit/537.36 (KHTML, like Gecko) Chrome/88.0.4324.146 Safari/537.36","v1","","","","","","","","40,50,60,70,80","media/audio/stims/spherical_300cm_s20_c20_cd-full_matched_a50.wav","spherical","20","20","full","matched","50","70","1381"
"echo-presentation","46","732708","0.0-46.0","5e1cd047cf445f05eef00adb","5fef55e628823a0076ec12ee","601f446edc8ed948b8492cbf","Mozilla/5.0 (Windows NT 10.0; Win64; x64) AppleWebKit/537.36 (KHTML, like Gecko) Chrome/88.0.4324.146 Safari/537.36","v1","","","","","","","","40,50,60,70,80","media/audio/stims/spherical_300cm_s20_c20_cd-full_matched_a80.wav","spherical","20","20","full","matched","80","80","1572"
"echo-presentation","47","734850","0.0-47.0","5e1cd047cf445f05eef00adb","5fef55e628823a0076ec12ee","601f446edc8ed948b8492cbf","Mozilla/5.0 (Windows NT 10.0; Win64; x64) AppleWebKit/537.36 (KHTML, like Gecko) Chrome/88.0.4324.146 Safari/537.36","v1","","","","","","","","40,50,60,70,80","media/audio/stims/spherical_300cm_s20_c20_cd-full_matched_a60.wav","spherical","20","20","full","matched","60","80","1469"
"echo-presentation","48","738426","0.0-48.0","5e1cd047cf445f05eef00adb","5fef55e628823a0076ec12ee","601f446edc8ed948b8492cbf","Mozilla/5.0 (Windows NT 10.0; Win64; x64) AppleWebKit/537.36 (KHTML, like Gecko) Chrome/88.0.4324.146 Safari/537.36","v1","","","","","","","","40,50,60,70,80","media/audio/stims/spherical_300cm_s20_c20_cd-full_matched_a70.wav","spherical","20","20","full","matched","70","70","1336"
"echo-presentation","49","740942","0.0-49.0","5e1cd047cf445f05eef00adb","5fef55e628823a0076ec12ee","601f446edc8ed948b8492cbf","Mozilla/5.0 (Windows NT 10.0; Win64; x64) AppleWebKit/537.36 (KHTML, like Gecko) Chrome/88.0.4324.146 Safari/537.36","v1","","","","","","","","40,50,60,70,80","media/audio/stims/spherical_300cm_s20_c20_cd-full_matched_a50.wav","spherical","20","20","full","matched","50","70","1550"
"block-bookend","50","743827","0.0-50.0","5e1cd047cf445f05eef00adb","5fef55e628823a0076ec12ee","601f446edc8ed948b8492cbf","Mozilla/5.0 (Windows NT 10.0; Win64; x64) AppleWebKit/537.36 (KHTML, like Gecko) Chrome/88.0.4324.146 Safari/537.36","v1","","","","","","","","","","","","","","","","",""
"block-bookend","51","748243","0.0-51.0","5e1cd047cf445f05eef00adb","5fef55e628823a0076ec12ee","601f446edc8ed948b8492cbf","Mozilla/5.0 (Windows NT 10.0; Win64; x64) AppleWebKit/537.36 (KHTML, like Gecko) Chrome/88.0.4324.146 Safari/537.36","v1","","","","","","","","","","","","","","","","",""
"echo-presentation","52","753098","0.0-52.0","5e1cd047cf445f05eef00adb","5fef55e628823a0076ec12ee","601f446edc8ed948b8492cbf","Mozilla/5.0 (Windows NT 10.0; Win64; x64) AppleWebKit/537.36 (KHTML, like Gecko) Chrome/88.0.4324.146 Safari/537.36","v1","","","","","","","","-80,-70,-60,-50,-40","media/audio/stims/spherical_300cm_s20_c20_cd-full_matched_a-50.wav","spherical","20","20","full","matched","-50","-60","3535"
"echo-presentation","53","755691","0.0-53.0","5e1cd047cf445f05eef00adb","5fef55e628823a0076ec12ee","601f446edc8ed948b8492cbf","Mozilla/5.0 (Windows NT 10.0; Win64; x64) AppleWebKit/537.36 (KHTML, like Gecko) Chrome/88.0.4324.146 Safari/537.36","v1","","","","","","","","-80,-70,-60,-50,-40","media/audio/stims/spherical_300cm_s20_c20_cd-full_matched_a-70.wav","spherical","20","20","full","matched","-70","-80","1286"
"echo-presentation","54","757863","0.0-54.0","5e1cd047cf445f05eef00adb","5fef55e628823a0076ec12ee","601f446edc8ed948b8492cbf","Mozilla/5.0 (Windows NT 10.0; Win64; x64) AppleWebKit/537.36 (KHTML, like Gecko) Chrome/88.0.4324.146 Safari/537.36","v1","","","","","","","","-80,-70,-60,-50,-40","media/audio/stims/spherical_300cm_s20_c20_cd-full_matched_a-40.wav","spherical","20","20","full","matched","-40","-80","1114"
"echo-presentation","55","759676","0.0-55.0","5e1cd047cf445f05eef00adb","5fef55e628823a0076ec12ee","601f446edc8ed948b8492cbf","Mozilla/5.0 (Windows NT 10.0; Win64; x64) AppleWebKit/537.36 (KHTML, like Gecko) Chrome/88.0.4324.146 Safari/537.36","v1","","","","","","","","-80,-70,-60,-50,-40","media/audio/stims/spherical_300cm_s20_c20_cd-full_matched_a-80.wav","spherical","20","20","full","matched","-80","-80","988"
"echo-presentation","56","761702","0.0-56.0","5e1cd047cf445f05eef00adb","5fef55e628823a0076ec12ee","601f446edc8ed948b8492cbf","Mozilla/5.0 (Windows NT 10.0; Win64; x64) AppleWebKit/537.36 (KHTML, like Gecko) Chrome/88.0.4324.146 Safari/537.36","v1","","","","","","","","-80,-70,-60,-50,-40","media/audio/stims/spherical_300cm_s20_c20_cd-full_matched_a-80.wav","spherical","20","20","full","matched","-80","-80","1155"
"echo-presentation","57","763570","0.0-57.0","5e1cd047cf445f05eef00adb","5fef55e628823a0076ec12ee","601f446edc8ed948b8492cbf","Mozilla/5.0 (Windows NT 10.0; Win64; x64) AppleWebKit/537.36 (KHTML, like Gecko) Chrome/88.0.4324.146 Safari/537.36","v1","","","","","","","","-80,-70,-60,-50,-40","media/audio/stims/spherical_300cm_s20_c20_cd-full_matched_a-70.wav","spherical","20","20","full","matched","-70","-80","1217"
"echo-presentation","58","765678","0.0-58.0","5e1cd047cf445f05eef00adb","5fef55e628823a0076ec12ee","601f446edc8ed948b8492cbf","Mozilla/5.0 (Windows NT 10.0; Win64; x64) AppleWebKit/537.36 (KHTML, like Gecko) Chrome/88.0.4324.146 Safari/537.36","v1","","","","","","","","-80,-70,-60,-50,-40","media/audio/stims/spherical_300cm_s20_c20_cd-full_matched_a-40.wav","spherical","20","20","full","matched","-40","-80","1412"
"echo-presentation","59","767320","0.0-59.0","5e1cd047cf445f05eef00adb","5fef55e628823a0076ec12ee","601f446edc8ed948b8492cbf","Mozilla/5.0 (Windows NT 10.0; Win64; x64) AppleWebKit/537.36 (KHTML, like Gecko) Chrome/88.0.4324.146 Safari/537.36","v1","","","","","","","","-80,-70,-60,-50,-40","media/audio/stims/spherical_300cm_s20_c20_cd-full_matched_a-50.wav","spherical","20","20","full","matched","-50","-80","1069"
"echo-presentation","60","769226","0.0-60.0","5e1cd047cf445f05eef00adb","5fef55e628823a0076ec12ee","601f446edc8ed948b8492cbf","Mozilla/5.0 (Windows NT 10.0; Win64; x64) AppleWebKit/537.36 (KHTML, like Gecko) Chrome/88.0.4324.146 Safari/537.36","v1","","","","","","","","-80,-70,-60,-50,-40","media/audio/stims/spherical_300cm_s20_c20_cd-full_matched_a-60.wav","spherical","20","20","full","matched","-60","-80","1226"
"echo-presentation","61","771323","0.0-61.0","5e1cd047cf445f05eef00adb","5fef55e628823a0076ec12ee","601f446edc8ed948b8492cbf","Mozilla/5.0 (Windows NT 10.0; Win64; x64) AppleWebKit/537.36 (KHTML, like Gecko) Chrome/88.0.4324.146 Safari/537.36","v1","","","","","","","","-80,-70,-60,-50,-40","media/audio/stims/spherical_300cm_s20_c20_cd-full_matched_a-70.wav","spherical","20","20","full","matched","-70","-80","1458"
"echo-presentation","62","773844","0.0-62.0","5e1cd047cf445f05eef00adb","5fef55e628823a0076ec12ee","601f446edc8ed948b8492cbf","Mozilla/5.0 (Windows NT 10.0; Win64; x64) AppleWebKit/537.36 (KHTML, like Gecko) Chrome/88.0.4324.146 Safari/537.36","v1","","","","","","","","-80,-70,-60,-50,-40","media/audio/stims/spherical_300cm_s20_c20_cd-full_matched_a-40.wav","spherical","20","20","full","matched","-40","-80","1492"
"echo-presentation","63","775888","0.0-63.0","5e1cd047cf445f05eef00adb","5fef55e628823a0076ec12ee","601f446edc8ed948b8492cbf","Mozilla/5.0 (Windows NT 10.0; Win64; x64) AppleWebKit/537.36 (KHTML, like Gecko) Chrome/88.0.4324.146 Safari/537.36","v1","","","","","","","","-80,-70,-60,-50,-40","media/audio/stims/spherical_300cm_s20_c20_cd-full_matched_a-80.wav","spherical","20","20","full","matched","-80","-80","1317"
"echo-presentation","64","778032","0.0-64.0","5e1cd047cf445f05eef00adb","5fef55e628823a0076ec12ee","601f446edc8ed948b8492cbf","Mozilla/5.0 (Windows NT 10.0; Win64; x64) AppleWebKit/537.36 (KHTML, like Gecko) Chrome/88.0.4324.146 Safari/537.36","v1","","","","","","","","-80,-70,-60,-50,-40","media/audio/stims/spherical_300cm_s20_c20_cd-full_matched_a-60.wav","spherical","20","20","full","matched","-60","-80","1272"
"echo-presentation","65","780126","0.0-65.0","5e1cd047cf445f05eef00adb","5fef55e628823a0076ec12ee","601f446edc8ed948b8492cbf","Mozilla/5.0 (Windows NT 10.0; Win64; x64) AppleWebKit/537.36 (KHTML, like Gecko) Chrome/88.0.4324.146 Safari/537.36","v1","","","","","","","","-80,-70,-60,-50,-40","media/audio/stims/spherical_300cm_s20_c20_cd-full_matched_a-70.wav","spherical","20","20","full","matched","-70","-80","1392"
"echo-presentation","66","782477","0.0-66.0","5e1cd047cf445f05eef00adb","5fef55e628823a0076ec12ee","601f446edc8ed948b8492cbf","Mozilla/5.0 (Windows NT 10.0; Win64; x64) AppleWebKit/537.36 (KHTML, like Gecko) Chrome/88.0.4324.146 Safari/537.36","v1","","","","","","","","-80,-70,-60,-50,-40","media/audio/stims/spherical_300cm_s20_c20_cd-full_matched_a-50.wav","spherical","20","20","full","matched","-50","-80","1251"
"echo-presentation","67","784432","0.0-67.0","5e1cd047cf445f05eef00adb","5fef55e628823a0076ec12ee","601f446edc8ed948b8492cbf","Mozilla/5.0 (Windows NT 10.0; Win64; x64) AppleWebKit/537.36 (KHTML, like Gecko) Chrome/88.0.4324.146 Safari/537.36","v1","","","","","","","","-80,-70,-60,-50,-40","media/audio/stims/spherical_300cm_s20_c20_cd-full_matched_a-80.wav","spherical","20","20","full","matched","-80","-80","1148"
"echo-presentation","68","786446","0.0-68.0","5e1cd047cf445f05eef00adb","5fef55e628823a0076ec12ee","601f446edc8ed948b8492cbf","Mozilla/5.0 (Windows NT 10.0; Win64; x64) AppleWebKit/537.36 (KHTML, like Gecko) Chrome/88.0.4324.146 Safari/537.36","v1","","","","","","","","-80,-70,-60,-50,-40","media/audio/stims/spherical_300cm_s20_c20_cd-full_matched_a-60.wav","spherical","20","20","full","matched","-60","-80","1231"
"echo-presentation","69","788352","0.0-69.0","5e1cd047cf445f05eef00adb","5fef55e628823a0076ec12ee","601f446edc8ed948b8492cbf","Mozilla/5.0 (Windows NT 10.0; Win64; x64) AppleWebKit/537.36 (KHTML, like Gecko) Chrome/88.0.4324.146 Safari/537.36","v1","","","","","","","","-80,-70,-60,-50,-40","media/audio/stims/spherical_300cm_s20_c20_cd-full_matched_a-40.wav","spherical","20","20","full","matched","-40","-80","1105"
"echo-presentation","70","790435","0.0-70.0","5e1cd047cf445f05eef00adb","5fef55e628823a0076ec12ee","601f446edc8ed948b8492cbf","Mozilla/5.0 (Windows NT 10.0; Win64; x64) AppleWebKit/537.36 (KHTML, like Gecko) Chrome/88.0.4324.146 Safari/537.36","v1","","","","","","","","-80,-70,-60,-50,-40","media/audio/stims/spherical_300cm_s20_c20_cd-full_matched_a-50.wav","spherical","20","20","full","matched","-50","-80","1244"
"echo-presentation","71","792340","0.0-71.0","5e1cd047cf445f05eef00adb","5fef55e628823a0076ec12ee","601f446edc8ed948b8492cbf","Mozilla/5.0 (Windows NT 10.0; Win64; x64) AppleWebKit/537.36 (KHTML, like Gecko) Chrome/88.0.4324.146 Safari/537.36","v1","","","","","","","","-80,-70,-60,-50,-40","media/audio/stims/spherical_300cm_s20_c20_cd-full_matched_a-60.wav","spherical","20","20","full","matched","-60","-80","1228"
"block-bookend","72","794134","0.0-72.0","5e1cd047cf445f05eef00adb","5fef55e628823a0076ec12ee","601f446edc8ed948b8492cbf","Mozilla/5.0 (Windows NT 10.0; Win64; x64) AppleWebKit/537.36 (KHTML, like Gecko) Chrome/88.0.4324.146 Safari/537.36","v1","","","","","","","","","","","","","","","","",""
"block-bookend","73","799748","0.0-73.0","5e1cd047cf445f05eef00adb","5fef55e628823a0076ec12ee","601f446edc8ed948b8492cbf","Mozilla/5.0 (Windows NT 10.0; Win64; x64) AppleWebKit/537.36 (KHTML, like Gecko) Chrome/88.0.4324.146 Safari/537.36","v1","","","","","","","","","","","","","","","","",""
"echo-presentation","74","802325","0.0-74.0","5e1cd047cf445f05eef00adb","5fef55e628823a0076ec12ee","601f446edc8ed948b8492cbf","Mozilla/5.0 (Windows NT 10.0; Win64; x64) AppleWebKit/537.36 (KHTML, like Gecko) Chrome/88.0.4324.146 Safari/537.36","v1","","","","","","","","-80,-70,-60,-50,-40","media/audio/stims/spherical_300cm_s20_c20_cd-full_matched_a-80.wav","spherical","20","20","full","matched","-80","-70","1280"
"echo-presentation","75","805026","0.0-75.0","5e1cd047cf445f05eef00adb","5fef55e628823a0076ec12ee","601f446edc8ed948b8492cbf","Mozilla/5.0 (Windows NT 10.0; Win64; x64) AppleWebKit/537.36 (KHTML, like Gecko) Chrome/88.0.4324.146 Safari/537.36","v1","","","","","","","","-80,-70,-60,-50,-40","media/audio/stims/spherical_300cm_s20_c20_cd-full_matched_a-70.wav","spherical","20","20","full","matched","-70","-70","1742"
"echo-presentation","76","808428","0.0-76.0","5e1cd047cf445f05eef00adb","5fef55e628823a0076ec12ee","601f446edc8ed948b8492cbf","Mozilla/5.0 (Windows NT 10.0; Win64; x64) AppleWebKit/537.36 (KHTML, like Gecko) Chrome/88.0.4324.146 Safari/537.36","v1","","","","","","","","-80,-70,-60,-50,-40","media/audio/stims/spherical_300cm_s20_c20_cd-full_matched_a-60.wav","spherical","20","20","full","matched","-60","-70","1086"
"echo-presentation","77","810042","0.0-77.0","5e1cd047cf445f05eef00adb","5fef55e628823a0076ec12ee","601f446edc8ed948b8492cbf","Mozilla/5.0 (Windows NT 10.0; Win64; x64) AppleWebKit/537.36 (KHTML, like Gecko) Chrome/88.0.4324.146 Safari/537.36","v1","","","","","","","","-80,-70,-60,-50,-40","media/audio/stims/spherical_300cm_s20_c20_cd-full_matched_a-40.wav","spherical","20","20","full","matched","-40","-70","1015"
"echo-presentation","78","812993","0.0-78.0","5e1cd047cf445f05eef00adb","5fef55e628823a0076ec12ee","601f446edc8ed948b8492cbf","Mozilla/5.0 (Windows NT 10.0; Win64; x64) AppleWebKit/537.36 (KHTML, like Gecko) Chrome/88.0.4324.146 Safari/537.36","v1","","","","","","","","-80,-70,-60,-50,-40","media/audio/stims/spherical_300cm_s20_c20_cd-full_matched_a-80.wav","spherical","20","20","full","matched","-80","-70","1098"
"echo-presentation","79","814906","0.0-79.0","5e1cd047cf445f05eef00adb","5fef55e628823a0076ec12ee","601f446edc8ed948b8492cbf","Mozilla/5.0 (Windows NT 10.0; Win64; x64) AppleWebKit/537.36 (KHTML, like Gecko) Chrome/88.0.4324.146 Safari/537.36","v1","","","","","","","","-80,-70,-60,-50,-40","media/audio/stims/spherical_300cm_s20_c20_cd-full_matched_a-50.wav","spherical","20","20","full","matched","-50","-70","1144"
"echo-presentation","80","816944","0.0-80.0","5e1cd047cf445f05eef00adb","5fef55e628823a0076ec12ee","601f446edc8ed948b8492cbf","Mozilla/5.0 (Windows NT 10.0; Win64; x64) AppleWebKit/537.36 (KHTML, like Gecko) Chrome/88.0.4324.146 Safari/537.36","v1","","","","","","","","-80,-70,-60,-50,-40","media/audio/stims/spherical_300cm_s20_c20_cd-full_matched_a-70.wav","spherical","20","20","full","matched","-70","-70","1326"
"echo-presentation","81","818690","0.0-81.0","5e1cd047cf445f05eef00adb","5fef55e628823a0076ec12ee","601f446edc8ed948b8492cbf","Mozilla/5.0 (Windows NT 10.0; Win64; x64) AppleWebKit/537.36 (KHTML, like Gecko) Chrome/88.0.4324.146 Safari/537.36","v1","","","","","","","","-80,-70,-60,-50,-40","media/audio/stims/spherical_300cm_s20_c20_cd-full_matched_a-80.wav","spherical","20","20","full","matched","-80","-70","1170"
"echo-presentation","82","820487","0.0-82.0","5e1cd047cf445f05eef00adb","5fef55e628823a0076ec12ee","601f446edc8ed948b8492cbf","Mozilla/5.0 (Windows NT 10.0; Win64; x64) AppleWebKit/537.36 (KHTML, like Gecko) Chrome/88.0.4324.146 Safari/537.36","v1","","","","","","","","-80,-70,-60,-50,-40","media/audio/stims/spherical_300cm_s20_c20_cd-full_matched_a-80.wav","spherical","20","20","full","matched","-80","-70","1043"
"echo-presentation","83","822122","0.0-83.0","5e1cd047cf445f05eef00adb","5fef55e628823a0076ec12ee","601f446edc8ed948b8492cbf","Mozilla/5.0 (Windows NT 10.0; Win64; x64) AppleWebKit/537.36 (KHTML, like Gecko) Chrome/88.0.4324.146 Safari/537.36","v1","","","","","","","","-80,-70,-60,-50,-40","media/audio/stims/spherical_300cm_s20_c20_cd-full_matched_a-50.wav","spherical","20","20","full","matched","-50","-70","945"
"echo-presentation","84","823545","0.0-84.0","5e1cd047cf445f05eef00adb","5fef55e628823a0076ec12ee","601f446edc8ed948b8492cbf","Mozilla/5.0 (Windows NT 10.0; Win64; x64) AppleWebKit/537.36 (KHTML, like Gecko) Chrome/88.0.4324.146 Safari/537.36","v1","","","","","","","","-80,-70,-60,-50,-40","media/audio/stims/spherical_300cm_s20_c20_cd-full_matched_a-70.wav","spherical","20","20","full","matched","-70","-70","781"
"echo-presentation","85","824981","0.0-85.0","5e1cd047cf445f05eef00adb","5fef55e628823a0076ec12ee","601f446edc8ed948b8492cbf","Mozilla/5.0 (Windows NT 10.0; Win64; x64) AppleWebKit/537.36 (KHTML, like Gecko) Chrome/88.0.4324.146 Safari/537.36","v1","","","","","","","","-80,-70,-60,-50,-40","media/audio/stims/spherical_300cm_s20_c20_cd-full_matched_a-50.wav","spherical","20","20","full","matched","-50","-70","787"
"echo-presentation","86","826764","0.0-86.0","5e1cd047cf445f05eef00adb","5fef55e628823a0076ec12ee","601f446edc8ed948b8492cbf","Mozilla/5.0 (Windows NT 10.0; Win64; x64) AppleWebKit/537.36 (KHTML, like Gecko) Chrome/88.0.4324.146 Safari/537.36","v1","","","","","","","","-80,-70,-60,-50,-40","media/audio/stims/spherical_300cm_s20_c20_cd-full_matched_a-70.wav","spherical","20","20","full","matched","-70","-80","1115"
"echo-presentation","87","828542","0.0-87.0","5e1cd047cf445f05eef00adb","5fef55e628823a0076ec12ee","601f446edc8ed948b8492cbf","Mozilla/5.0 (Windows NT 10.0; Win64; x64) AppleWebKit/537.36 (KHTML, like Gecko) Chrome/88.0.4324.146 Safari/537.36","v1","","","","","","","","-80,-70,-60,-50,-40","media/audio/stims/spherical_300cm_s20_c20_cd-full_matched_a-60.wav","spherical","20","20","full","matched","-60","-80","1005"
"echo-presentation","88","830342","0.0-88.0","5e1cd047cf445f05eef00adb","5fef55e628823a0076ec12ee","601f446edc8ed948b8492cbf","Mozilla/5.0 (Windows NT 10.0; Win64; x64) AppleWebKit/537.36 (KHTML, like Gecko) Chrome/88.0.4324.146 Safari/537.36","v1","","","","","","","","-80,-70,-60,-50,-40","media/audio/stims/spherical_300cm_s20_c20_cd-full_matched_a-60.wav","spherical","20","20","full","matched","-60","-80","1149"
"echo-presentation","89","831862","0.0-89.0","5e1cd047cf445f05eef00adb","5fef55e628823a0076ec12ee","601f446edc8ed948b8492cbf","Mozilla/5.0 (Windows NT 10.0; Win64; x64) AppleWebKit/537.36 (KHTML, like Gecko) Chrome/88.0.4324.146 Safari/537.36","v1","","","","","","","","-80,-70,-60,-50,-40","media/audio/stims/spherical_300cm_s20_c20_cd-full_matched_a-40.wav","spherical","20","20","full","matched","-40","-80","925"
"echo-presentation","90","835448","0.0-90.0","5e1cd047cf445f05eef00adb","5fef55e628823a0076ec12ee","601f446edc8ed948b8492cbf","Mozilla/5.0 (Windows NT 10.0; Win64; x64) AppleWebKit/537.36 (KHTML, like Gecko) Chrome/88.0.4324.146 Safari/537.36","v1","","","","","","","","-80,-70,-60,-50,-40","media/audio/stims/spherical_300cm_s20_c20_cd-full_matched_a-60.wav","spherical","20","20","full","matched","-60","-80","3037"
"echo-presentation","91","838272","0.0-91.0","5e1cd047cf445f05eef00adb","5fef55e628823a0076ec12ee","601f446edc8ed948b8492cbf","Mozilla/5.0 (Windows NT 10.0; Win64; x64) AppleWebKit/537.36 (KHTML, like Gecko) Chrome/88.0.4324.146 Safari/537.36","v1","","","","","","","","-80,-70,-60,-50,-40","media/audio/stims/spherical_300cm_s20_c20_cd-full_matched_a-50.wav","spherical","20","20","full","matched","-50","-80","1140"
"echo-presentation","92","840350","0.0-92.0","5e1cd047cf445f05eef00adb","5fef55e628823a0076ec12ee","601f446edc8ed948b8492cbf","Mozilla/5.0 (Windows NT 10.0; Win64; x64) AppleWebKit/537.36 (KHTML, like Gecko) Chrome/88.0.4324.146 Safari/537.36","v1","","","","","","","","-80,-70,-60,-50,-40","media/audio/stims/spherical_300cm_s20_c20_cd-full_matched_a-40.wav","spherical","20","20","full","matched","-40","-80","1156"
"echo-presentation","93","841982","0.0-93.0","5e1cd047cf445f05eef00adb","5fef55e628823a0076ec12ee","601f446edc8ed948b8492cbf","Mozilla/5.0 (Windows NT 10.0; Win64; x64) AppleWebKit/537.36 (KHTML, like Gecko) Chrome/88.0.4324.146 Safari/537.36","v1","","","","","","","","-80,-70,-60,-50,-40","media/audio/stims/spherical_300cm_s20_c20_cd-full_matched_a-40.wav","spherical","20","20","full","matched","-40","-70","1057"
"block-bookend","94","843506","0.0-94.0","5e1cd047cf445f05eef00adb","5fef55e628823a0076ec12ee","601f446edc8ed948b8492cbf","Mozilla/5.0 (Windows NT 10.0; Win64; x64) AppleWebKit/537.36 (KHTML, like Gecko) Chrome/88.0.4324.146 Safari/537.36","v1","","","","","","","","","","","","","","","","",""
"block-bookend","95","851922","0.0-95.0","5e1cd047cf445f05eef00adb","5fef55e628823a0076ec12ee","601f446edc8ed948b8492cbf","Mozilla/5.0 (Windows NT 10.0; Win64; x64) AppleWebKit/537.36 (KHTML, like Gecko) Chrome/88.0.4324.146 Safari/537.36","v1","","","","","","","","","","","","","","","","",""
"echo-presentation","96","867347","0.0-96.0","5e1cd047cf445f05eef00adb","5fef55e628823a0076ec12ee","601f446edc8ed948b8492cbf","Mozilla/5.0 (Windows NT 10.0; Win64; x64) AppleWebKit/537.36 (KHTML, like Gecko) Chrome/88.0.4324.146 Safari/537.36","v1","","","","","","","","-20,-10,0,10,20","media/audio/stims/spherical_300cm_s20_c20_cd-full_matched_a0.wav","spherical","20","20","full","matched","0","0","1180"
"echo-presentation","97","868953","0.0-97.0","5e1cd047cf445f05eef00adb","5fef55e628823a0076ec12ee","601f446edc8ed948b8492cbf","Mozilla/5.0 (Windows NT 10.0; Win64; x64) AppleWebKit/537.36 (KHTML, like Gecko) Chrome/88.0.4324.146 Safari/537.36","v1","","","","","","","","-20,-10,0,10,20","media/audio/stims/spherical_300cm_s20_c20_cd-full_matched_a0.wav","spherical","20","20","full","matched","0","0","1034"
"echo-presentation","98","870552","0.0-98.0","5e1cd047cf445f05eef00adb","5fef55e628823a0076ec12ee","601f446edc8ed948b8492cbf","Mozilla/5.0 (Windows NT 10.0; Win64; x64) AppleWebKit/537.36 (KHTML, like Gecko) Chrome/88.0.4324.146 Safari/537.36","v1","","","","","","","","-20,-10,0,10,20","media/audio/stims/spherical_300cm_s20_c20_cd-full_matched_a10.wav","spherical","20","20","full","matched","10","10","953"
"echo-presentation","99","872413","0.0-99.0","5e1cd047cf445f05eef00adb","5fef55e628823a0076ec12ee","601f446edc8ed948b8492cbf","Mozilla/5.0 (Windows NT 10.0; Win64; x64) AppleWebKit/537.36 (KHTML, like Gecko) Chrome/88.0.4324.146 Safari/537.36","v1","","","","","","","","-20,-10,0,10,20","media/audio/stims/spherical_300cm_s20_c20_cd-full_matched_a10.wav","spherical","20","20","full","matched","10","10","1030"
"echo-presentation","100","874689","0.0-100.0","5e1cd047cf445f05eef00adb","5fef55e628823a0076ec12ee","601f446edc8ed948b8492cbf","Mozilla/5.0 (Windows NT 10.0; Win64; x64) AppleWebKit/537.36 (KHTML, like Gecko) Chrome/88.0.4324.146 Safari/537.36","v1","","","","","","","","-20,-10,0,10,20","media/audio/stims/spherical_300cm_s20_c20_cd-full_matched_a20.wav","spherical","20","20","full","matched","20","10","1717"
"echo-presentation","101","877403","0.0-101.0","5e1cd047cf445f05eef00adb","5fef55e628823a0076ec12ee","601f446edc8ed948b8492cbf","Mozilla/5.0 (Windows NT 10.0; Win64; x64) AppleWebKit/537.36 (KHTML, like Gecko) Chrome/88.0.4324.146 Safari/537.36","v1","","","","","","","","-20,-10,0,10,20","media/audio/stims/spherical_300cm_s20_c20_cd-full_matched_a0.wav","spherical","20","20","full","matched","0","0","1059"
"echo-presentation","102","879163","0.0-102.0","5e1cd047cf445f05eef00adb","5fef55e628823a0076ec12ee","601f446edc8ed948b8492cbf","Mozilla/5.0 (Windows NT 10.0; Win64; x64) AppleWebKit/537.36 (KHTML, like Gecko) Chrome/88.0.4324.146 Safari/537.36","v1","","","","","","","","-20,-10,0,10,20","media/audio/stims/spherical_300cm_s20_c20_cd-full_matched_a-20.wav","spherical","20","20","full","matched","-20","0","1102"
"echo-presentation","103","880880","0.0-103.0","5e1cd047cf445f05eef00adb","5fef55e628823a0076ec12ee","601f446edc8ed948b8492cbf","Mozilla/5.0 (Windows NT 10.0; Win64; x64) AppleWebKit/537.36 (KHTML, like Gecko) Chrome/88.0.4324.146 Safari/537.36","v1","","","","","","","","-20,-10,0,10,20","media/audio/stims/spherical_300cm_s20_c20_cd-full_matched_a20.wav","spherical","20","20","full","matched","20","10","1127"
"echo-presentation","104","882510","0.0-104.0","5e1cd047cf445f05eef00adb","5fef55e628823a0076ec12ee","601f446edc8ed948b8492cbf","Mozilla/5.0 (Windows NT 10.0; Win64; x64) AppleWebKit/537.36 (KHTML, like Gecko) Chrome/88.0.4324.146 Safari/537.36","v1","","","","","","","","-20,-10,0,10,20","media/audio/stims/spherical_300cm_s20_c20_cd-full_matched_a-10.wav","spherical","20","20","full","matched","-10","-10","1008"
"echo-presentation","105","884193","0.0-105.0","5e1cd047cf445f05eef00adb","5fef55e628823a0076ec12ee","601f446edc8ed948b8492cbf","Mozilla/5.0 (Windows NT 10.0; Win64; x64) AppleWebKit/537.36 (KHTML, like Gecko) Chrome/88.0.4324.146 Safari/537.36","v1","","","","","","","","-20,-10,0,10,20","media/audio/stims/spherical_300cm_s20_c20_cd-full_matched_a-10.wav","spherical","20","20","full","matched","-10","-10","978"
"echo-presentation","106","885834","0.0-106.0","5e1cd047cf445f05eef00adb","5fef55e628823a0076ec12ee","601f446edc8ed948b8492cbf","Mozilla/5.0 (Windows NT 10.0; Win64; x64) AppleWebKit/537.36 (KHTML, like Gecko) Chrome/88.0.4324.146 Safari/537.36","v1","","","","","","","","-20,-10,0,10,20","media/audio/stims/spherical_300cm_s20_c20_cd-full_matched_a-10.wav","spherical","20","20","full","matched","-10","-10","1055"
"echo-presentation","107","888976","0.0-107.0","5e1cd047cf445f05eef00adb","5fef55e628823a0076ec12ee","601f446edc8ed948b8492cbf","Mozilla/5.0 (Windows NT 10.0; Win64; x64) AppleWebKit/537.36 (KHTML, like Gecko) Chrome/88.0.4324.146 Safari/537.36","v1","","","","","","","","-20,-10,0,10,20","media/audio/stims/spherical_300cm_s20_c20_cd-full_matched_a20.wav","spherical","20","20","full","matched","20","10","982"
"echo-presentation","108","890617","0.0-108.0","5e1cd047cf445f05eef00adb","5fef55e628823a0076ec12ee","601f446edc8ed948b8492cbf","Mozilla/5.0 (Windows NT 10.0; Win64; x64) AppleWebKit/537.36 (KHTML, like Gecko) Chrome/88.0.4324.146 Safari/537.36","v1","","","","","","","","-20,-10,0,10,20","media/audio/stims/spherical_300cm_s20_c20_cd-full_matched_a-20.wav","spherical","20","20","full","matched","-20","-10","952"
"echo-presentation","109","892342","0.0-109.0","5e1cd047cf445f05eef00adb","5fef55e628823a0076ec12ee","601f446edc8ed948b8492cbf","Mozilla/5.0 (Windows NT 10.0; Win64; x64) AppleWebKit/537.36 (KHTML, like Gecko) Chrome/88.0.4324.146 Safari/537.36","v1","","","","","","","","-20,-10,0,10,20","media/audio/stims/spherical_300cm_s20_c20_cd-full_matched_a-20.wav","spherical","20","20","full","matched","-20","-10","1042"
"echo-presentation","110","893840","0.0-110.0","5e1cd047cf445f05eef00adb","5fef55e628823a0076ec12ee","601f446edc8ed948b8492cbf","Mozilla/5.0 (Windows NT 10.0; Win64; x64) AppleWebKit/537.36 (KHTML, like Gecko) Chrome/88.0.4324.146 Safari/537.36","v1","","","","","","","","-20,-10,0,10,20","media/audio/stims/spherical_300cm_s20_c20_cd-full_matched_a-20.wav","spherical","20","20","full","matched","-20","0","954"
"echo-presentation","111","896718","0.0-111.0","5e1cd047cf445f05eef00adb","5fef55e628823a0076ec12ee","601f446edc8ed948b8492cbf","Mozilla/5.0 (Windows NT 10.0; Win64; x64) AppleWebKit/537.36 (KHTML, like Gecko) Chrome/88.0.4324.146 Safari/537.36","v1","","","","","","","","-20,-10,0,10,20","media/audio/stims/spherical_300cm_s20_c20_cd-full_matched_a10.wav","spherical","20","20","full","matched","10","0","988"
"echo-presentation","112","898549","0.0-112.0","5e1cd047cf445f05eef00adb","5fef55e628823a0076ec12ee","601f446edc8ed948b8492cbf","Mozilla/5.0 (Windows NT 10.0; Win64; x64) AppleWebKit/537.36 (KHTML, like Gecko) Chrome/88.0.4324.146 Safari/537.36","v1","","","","","","","","-20,-10,0,10,20","media/audio/stims/spherical_300cm_s20_c20_cd-full_matched_a20.wav","spherical","20","20","full","matched","20","10","972"
"echo-presentation","113","900208","0.0-113.0","5e1cd047cf445f05eef00adb","5fef55e628823a0076ec12ee","601f446edc8ed948b8492cbf","Mozilla/5.0 (Windows NT 10.0; Win64; x64) AppleWebKit/537.36 (KHTML, like Gecko) Chrome/88.0.4324.146 Safari/537.36","v1","","","","","","","","-20,-10,0,10,20","media/audio/stims/spherical_300cm_s20_c20_cd-full_matched_a10.wav","spherical","20","20","full","matched","10","10","919"
"echo-presentation","114","901948","0.0-114.0","5e1cd047cf445f05eef00adb","5fef55e628823a0076ec12ee","601f446edc8ed948b8492cbf","Mozilla/5.0 (Windows NT 10.0; Win64; x64) AppleWebKit/537.36 (KHTML, like Gecko) Chrome/88.0.4324.146 Safari/537.36","v1","","","","","","","","-20,-10,0,10,20","media/audio/stims/spherical_300cm_s20_c20_cd-full_matched_a-10.wav","spherical","20","20","full","matched","-10","-10","953"
"echo-presentation","115","903515","0.0-115.0","5e1cd047cf445f05eef00adb","5fef55e628823a0076ec12ee","601f446edc8ed948b8492cbf","Mozilla/5.0 (Windows NT 10.0; Win64; x64) AppleWebKit/537.36 (KHTML, like Gecko) Chrome/88.0.4324.146 Safari/537.36","v1","","","","","","","","-20,-10,0,10,20","media/audio/stims/spherical_300cm_s20_c20_cd-full_matched_a0.wav","spherical","20","20","full","matched","0","0","883"
"block-bookend","116","905715","0.0-116.0","5e1cd047cf445f05eef00adb","5fef55e628823a0076ec12ee","601f446edc8ed948b8492cbf","Mozilla/5.0 (Windows NT 10.0; Win64; x64) AppleWebKit/537.36 (KHTML, like Gecko) Chrome/88.0.4324.146 Safari/537.36","v1","","","","","","","","","","","","","","","","",""
"block-bookend","117","909922","0.0-117.0","5e1cd047cf445f05eef00adb","5fef55e628823a0076ec12ee","601f446edc8ed948b8492cbf","Mozilla/5.0 (Windows NT 10.0; Win64; x64) AppleWebKit/537.36 (KHTML, like Gecko) Chrome/88.0.4324.146 Safari/537.36","v1","","","","","","","","","","","","","","","","",""
"echo-presentation","118","912734","0.0-118.0","5e1cd047cf445f05eef00adb","5fef55e628823a0076ec12ee","601f446edc8ed948b8492cbf","Mozilla/5.0 (Windows NT 10.0; Win64; x64) AppleWebKit/537.36 (KHTML, like Gecko) Chrome/88.0.4324.146 Safari/537.36","v1","","","","","","","","-20,-10,0,10,20","media/audio/stims/spherical_300cm_s20_c20_cd-full_matched_a0.wav","spherical","20","20","full","matched","0","0","1019"
"echo-presentation","119","914653","0.0-119.0","5e1cd047cf445f05eef00adb","5fef55e628823a0076ec12ee","601f446edc8ed948b8492cbf","Mozilla/5.0 (Windows NT 10.0; Win64; x64) AppleWebKit/537.36 (KHTML, like Gecko) Chrome/88.0.4324.146 Safari/537.36","v1","","","","","","","","-20,-10,0,10,20","media/audio/stims/spherical_300cm_s20_c20_cd-full_matched_a-10.wav","spherical","20","20","full","matched","-10","-10","995"
"echo-presentation","120","916914","0.0-120.0","5e1cd047cf445f05eef00adb","5fef55e628823a0076ec12ee","601f446edc8ed948b8492cbf","Mozilla/5.0 (Windows NT 10.0; Win64; x64) AppleWebKit/537.36 (KHTML, like Gecko) Chrome/88.0.4324.146 Safari/537.36","v1","","","","","","","","-20,-10,0,10,20","media/audio/stims/spherical_300cm_s20_c20_cd-full_matched_a20.wav","spherical","20","20","full","matched","20","10","1281"
"echo-presentation","121","918735","0.0-121.0","5e1cd047cf445f05eef00adb","5fef55e628823a0076ec12ee","601f446edc8ed948b8492cbf","Mozilla/5.0 (Windows NT 10.0; Win64; x64) AppleWebKit/537.36 (KHTML, like Gecko) Chrome/88.0.4324.146 Safari/537.36","v1","","","","","","","","-20,-10,0,10,20","media/audio/stims/spherical_300cm_s20_c20_cd-full_matched_a-20.wav","spherical","20","20","full","matched","-20","-10","1057"
"echo-presentation","122","920545","0.0-122.0","5e1cd047cf445f05eef00adb","5fef55e628823a0076ec12ee","601f446edc8ed948b8492cbf","Mozilla/5.0 (Windows NT 10.0; Win64; x64) AppleWebKit/537.36 (KHTML, like Gecko) Chrome/88.0.4324.146 Safari/537.36","v1","","","","","","","","-20,-10,0,10,20","media/audio/stims/spherical_300cm_s20_c20_cd-full_matched_a20.wav","spherical","20","20","full","matched","20","10","1020"
"echo-presentation","123","922516","0.0-123.0","5e1cd047cf445f05eef00adb","5fef55e628823a0076ec12ee","601f446edc8ed948b8492cbf","Mozilla/5.0 (Windows NT 10.0; Win64; x64) AppleWebKit/537.36 (KHTML, like Gecko) Chrome/88.0.4324.146 Safari/537.36","v1","","","","","","","","-20,-10,0,10,20","media/audio/stims/spherical_300cm_s20_c20_cd-full_matched_a10.wav","spherical","20","20","full","matched","10","10","1061"
"echo-presentation","124","924100","0.0-124.0","5e1cd047cf445f05eef00adb","5fef55e628823a0076ec12ee","601f446edc8ed948b8492cbf","Mozilla/5.0 (Windows NT 10.0; Win64; x64) AppleWebKit/537.36 (KHTML, like Gecko) Chrome/88.0.4324.146 Safari/537.36","v1","","","","","","","","-20,-10,0,10,20","media/audio/stims/spherical_300cm_s20_c20_cd-full_matched_a0.wav","spherical","20","20","full","matched","0","0","934"
"echo-presentation","125","925777","0.0-125.0","5e1cd047cf445f05eef00adb","5fef55e628823a0076ec12ee","601f446edc8ed948b8492cbf","Mozilla/5.0 (Windows NT 10.0; Win64; x64) AppleWebKit/537.36 (KHTML, like Gecko) Chrome/88.0.4324.146 Safari/537.36","v1","","","","","","","","-20,-10,0,10,20","media/audio/stims/spherical_300cm_s20_c20_cd-full_matched_a20.wav","spherical","20","20","full","matched","20","0","911"
"echo-presentation","126","927382","0.0-126.0","5e1cd047cf445f05eef00adb","5fef55e628823a0076ec12ee","601f446edc8ed948b8492cbf","Mozilla/5.0 (Windows NT 10.0; Win64; x64) AppleWebKit/537.36 (KHTML, like Gecko) Chrome/88.0.4324.146 Safari/537.36","v1","","","","","","","","-20,-10,0,10,20","media/audio/stims/spherical_300cm_s20_c20_cd-full_matched_a10.wav","spherical","20","20","full","matched","10","0","870"
"echo-presentation","127","929236","0.0-127.0","5e1cd047cf445f05eef00adb","5fef55e628823a0076ec12ee","601f446edc8ed948b8492cbf","Mozilla/5.0 (Windows NT 10.0; Win64; x64) AppleWebKit/537.36 (KHTML, like Gecko) Chrome/88.0.4324.146 Safari/537.36","v1","","","","","","","","-20,-10,0,10,20","media/audio/stims/spherical_300cm_s20_c20_cd-full_matched_a-20.wav","spherical","20","20","full","matched","-20","-10","1122"
"echo-presentation","128","931179","0.0-128.0","5e1cd047cf445f05eef00adb","5fef55e628823a0076ec12ee","601f446edc8ed948b8492cbf","Mozilla/5.0 (Windows NT 10.0; Win64; x64) AppleWebKit/537.36 (KHTML, like Gecko) Chrome/88.0.4324.146 Safari/537.36","v1","","","","","","","","-20,-10,0,10,20","media/audio/stims/spherical_300cm_s20_c20_cd-full_matched_a0.wav","spherical","20","20","full","matched","0","-10","1414"
"echo-presentation","129","933311","0.0-129.0","5e1cd047cf445f05eef00adb","5fef55e628823a0076ec12ee","601f446edc8ed948b8492cbf","Mozilla/5.0 (Windows NT 10.0; Win64; x64) AppleWebKit/537.36 (KHTML, like Gecko) Chrome/88.0.4324.146 Safari/537.36","v1","","","","","","","","-20,-10,0,10,20","media/audio/stims/spherical_300cm_s20_c20_cd-full_matched_a-10.wav","spherical","20","20","full","matched","-10","-10","898"
"echo-presentation","130","934918","0.0-130.0","5e1cd047cf445f05eef00adb","5fef55e628823a0076ec12ee","601f446edc8ed948b8492cbf","Mozilla/5.0 (Windows NT 10.0; Win64; x64) AppleWebKit/537.36 (KHTML, like Gecko) Chrome/88.0.4324.146 Safari/537.36","v1","","","","","","","","-20,-10,0,10,20","media/audio/stims/spherical_300cm_s20_c20_cd-full_matched_a10.wav","spherical","20","20","full","matched","10","10","861"
"echo-presentation","131","937283","0.0-131.0","5e1cd047cf445f05eef00adb","5fef55e628823a0076ec12ee","601f446edc8ed948b8492cbf","Mozilla/5.0 (Windows NT 10.0; Win64; x64) AppleWebKit/537.36 (KHTML, like Gecko) Chrome/88.0.4324.146 Safari/537.36","v1","","","","","","","","-20,-10,0,10,20","media/audio/stims/spherical_300cm_s20_c20_cd-full_matched_a10.wav","spherical","20","20","full","matched","10","0","1644"
"echo-presentation","132","938790","0.0-132.0","5e1cd047cf445f05eef00adb","5fef55e628823a0076ec12ee","601f446edc8ed948b8492cbf","Mozilla/5.0 (Windows NT 10.0; Win64; x64) AppleWebKit/537.36 (KHTML, like Gecko) Chrome/88.0.4324.146 Safari/537.36","v1","","","","","","","","-20,-10,0,10,20","media/audio/stims/spherical_300cm_s20_c20_cd-full_matched_a0.wav","spherical","20","20","full","matched","0","0","924"
"echo-presentation","133","940227","0.0-133.0","5e1cd047cf445f05eef00adb","5fef55e628823a0076ec12ee","601f446edc8ed948b8492cbf","Mozilla/5.0 (Windows NT 10.0; Win64; x64) AppleWebKit/537.36 (KHTML, like Gecko) Chrome/88.0.4324.146 Safari/537.36","v1","","","","","","","","-20,-10,0,10,20","media/audio/stims/spherical_300cm_s20_c20_cd-full_matched_a-20.wav","spherical","20","20","full","matched","-20","0","754"
"echo-presentation","134","941975","0.0-134.0","5e1cd047cf445f05eef00adb","5fef55e628823a0076ec12ee","601f446edc8ed948b8492cbf","Mozilla/5.0 (Windows NT 10.0; Win64; x64) AppleWebKit/537.36 (KHTML, like Gecko) Chrome/88.0.4324.146 Safari/537.36","v1","","","","","","","","-20,-10,0,10,20","media/audio/stims/spherical_300cm_s20_c20_cd-full_matched_a20.wav","spherical","20","20","full","matched","20","0","986"
"echo-presentation","135","944000","0.0-135.0","5e1cd047cf445f05eef00adb","5fef55e628823a0076ec12ee","601f446edc8ed948b8492cbf","Mozilla/5.0 (Windows NT 10.0; Win64; x64) AppleWebKit/537.36 (KHTML, like Gecko) Chrome/88.0.4324.146 Safari/537.36","v1","","","","","","","","-20,-10,0,10,20","media/audio/stims/spherical_300cm_s20_c20_cd-full_matched_a-20.wav","spherical","20","20","full","matched","-20","-10","962"
"echo-presentation","136","946202","0.0-136.0","5e1cd047cf445f05eef00adb","5fef55e628823a0076ec12ee","601f446edc8ed948b8492cbf","Mozilla/5.0 (Windows NT 10.0; Win64; x64) AppleWebKit/537.36 (KHTML, like Gecko) Chrome/88.0.4324.146 Safari/537.36","v1","","","","","","","","-20,-10,0,10,20","media/audio/stims/spherical_300cm_s20_c20_cd-full_matched_a-10.wav","spherical","20","20","full","matched","-10","-10","912"
"echo-presentation","137","949032","0.0-137.0","5e1cd047cf445f05eef00adb","5fef55e628823a0076ec12ee","601f446edc8ed948b8492cbf","Mozilla/5.0 (Windows NT 10.0; Win64; x64) AppleWebKit/537.36 (KHTML, like Gecko) Chrome/88.0.4324.146 Safari/537.36","v1","","","","","","","","-20,-10,0,10,20","media/audio/stims/spherical_300cm_s20_c20_cd-full_matched_a-10.wav","spherical","20","20","full","matched","-10","-10","1717"
"block-bookend","138","950706","0.0-138.0","5e1cd047cf445f05eef00adb","5fef55e628823a0076ec12ee","601f446edc8ed948b8492cbf","Mozilla/5.0 (Windows NT 10.0; Win64; x64) AppleWebKit/537.36 (KHTML, like Gecko) Chrome/88.0.4324.146 Safari/537.36","v1","","","","","","","","","","","","","","","","",""
