"trial_type","trial_index","time_elapsed","internal_node_id","prolificPid","studyId","sessionId","userAgent","version","rt","stimulus","key_press","chosenKeyset","failureCount","testIndex","globalVolume","choices","filename","modelName","slowdown","compensation","compensationDescriptor","receiverOrientationType","azimuth","responseAzimuth","responseDelay"
"pavlovia","0","5","0.0-0.0","5d87a74208667b0001eff922","5fef55e628823a0076ec12ee","602014e36706505d336fc3c9","Mozilla/5.0 (Macintosh; Intel Mac OS X 10_15_4) AppleWebKit/537.36 (KHTML, like Gecko) Chrome/88.0.4324.146 Safari/537.36","v1-up-stims","","","","","","","","","","","","","","","","",""
"html-keyboard-response","1","1439","0.0-1.0","5d87a74208667b0001eff922","5fef55e628823a0076ec12ee","602014e36706505d336fc3c9","Mozilla/5.0 (Macintosh; Intel Mac OS X 10_15_4) AppleWebKit/537.36 (KHTML, like Gecko) Chrome/88.0.4324.146 Safari/537.36","v1-up-stims","1431.9900000000416","<div><h1>Welcome!</h1><p>Press any key to continue.</p></div>","32","","","","","","","","","","","","","",""
"consent-form","2","25197","0.0-2.0","5d87a74208667b0001eff922","5fef55e628823a0076ec12ee","602014e36706505d336fc3c9","Mozilla/5.0 (Macintosh; Intel Mac OS X 10_15_4) AppleWebKit/537.36 (KHTML, like Gecko) Chrome/88.0.4324.146 Safari/537.36","v1-up-stims","","","","","","","","","","","","","","","","",""
"keyset-select","3","81552","0.0-3.0","5d87a74208667b0001eff922","5fef55e628823a0076ec12ee","602014e36706505d336fc3c9","Mozilla/5.0 (Macintosh; Intel Mac OS X 10_15_4) AppleWebKit/537.36 (KHTML, like Gecko) Chrome/88.0.4324.146 Safari/537.36","v1-up-stims","","","","left-hand","","","","","","","","","","","","",""
"headphone-check","4","202332","0.0-4.0","5d87a74208667b0001eff922","5fef55e628823a0076ec12ee","602014e36706505d336fc3c9","Mozilla/5.0 (Macintosh; Intel Mac OS X 10_15_4) AppleWebKit/537.36 (KHTML, like Gecko) Chrome/88.0.4324.146 Safari/537.36","v1-up-stims","","","","","1","6","0.3","","","","","","","","","",""
"headphone-backwards-check","5","230830","0.0-5.0","5d87a74208667b0001eff922","5fef55e628823a0076ec12ee","602014e36706505d336fc3c9","Mozilla/5.0 (Macintosh; Intel Mac OS X 10_15_4) AppleWebKit/537.36 (KHTML, like Gecko) Chrome/88.0.4324.146 Safari/537.36","v1-up-stims","","","","","0","","","","","","","","","","","",""
"training","6","408543","0.0-6.0","5d87a74208667b0001eff922","5fef55e628823a0076ec12ee","602014e36706505d336fc3c9","Mozilla/5.0 (Macintosh; Intel Mac OS X 10_15_4) AppleWebKit/537.36 (KHTML, like Gecko) Chrome/88.0.4324.146 Safari/537.36","v1-up-stims","","","","","","","","","","","","","","","","",""
"block-bookend","7","427987","0.0-7.0","5d87a74208667b0001eff922","5fef55e628823a0076ec12ee","602014e36706505d336fc3c9","Mozilla/5.0 (Macintosh; Intel Mac OS X 10_15_4) AppleWebKit/537.36 (KHTML, like Gecko) Chrome/88.0.4324.146 Safari/537.36","v1-up-stims","","","","","","","","","","","","","","","","",""
"echo-presentation","8","439584","0.0-8.0","5d87a74208667b0001eff922","5fef55e628823a0076ec12ee","602014e36706505d336fc3c9","Mozilla/5.0 (Macintosh; Intel Mac OS X 10_15_4) AppleWebKit/537.36 (KHTML, like Gecko) Chrome/88.0.4324.146 Safari/537.36","v1-up-stims","","","","","","","","40,50,60,70,80","media/audio/stims/spherical_300cm_s20_c20_cd-full_matched_a80.wav","spherical","20","20","full","matched","80","80","7328"
"echo-presentation","9","446443","0.0-9.0","5d87a74208667b0001eff922","5fef55e628823a0076ec12ee","602014e36706505d336fc3c9","Mozilla/5.0 (Macintosh; Intel Mac OS X 10_15_4) AppleWebKit/537.36 (KHTML, like Gecko) Chrome/88.0.4324.146 Safari/537.36","v1-up-stims","","","","","","","","40,50,60,70,80","media/audio/stims/spherical_300cm_s20_c20_cd-full_matched_a60.wav","spherical","20","20","full","matched","60","40","4126"
"echo-presentation","10","452840","0.0-10.0","5d87a74208667b0001eff922","5fef55e628823a0076ec12ee","602014e36706505d336fc3c9","Mozilla/5.0 (Macintosh; Intel Mac OS X 10_15_4) AppleWebKit/537.36 (KHTML, like Gecko) Chrome/88.0.4324.146 Safari/537.36","v1-up-stims","","","","","","","","40,50,60,70,80","media/audio/stims/spherical_300cm_s20_c20_cd-full_matched_a80.wav","spherical","20","20","full","matched","80","40","4371"
"echo-presentation","11","457144","0.0-11.0","5d87a74208667b0001eff922","5fef55e628823a0076ec12ee","602014e36706505d336fc3c9","Mozilla/5.0 (Macintosh; Intel Mac OS X 10_15_4) AppleWebKit/537.36 (KHTML, like Gecko) Chrome/88.0.4324.146 Safari/537.36","v1-up-stims","","","","","","","","40,50,60,70,80","media/audio/stims/spherical_300cm_s20_c20_cd-full_matched_a80.wav","spherical","20","20","full","matched","80","40","2535"
"echo-presentation","12","462198","0.0-12.0","5d87a74208667b0001eff922","5fef55e628823a0076ec12ee","602014e36706505d336fc3c9","Mozilla/5.0 (Macintosh; Intel Mac OS X 10_15_4) AppleWebKit/537.36 (KHTML, like Gecko) Chrome/88.0.4324.146 Safari/537.36","v1-up-stims","","","","","","","","40,50,60,70,80","media/audio/stims/spherical_300cm_s20_c20_cd-full_matched_a50.wav","spherical","20","20","full","matched","50","50","2919"
"echo-presentation","13","470615","0.0-13.0","5d87a74208667b0001eff922","5fef55e628823a0076ec12ee","602014e36706505d336fc3c9","Mozilla/5.0 (Macintosh; Intel Mac OS X 10_15_4) AppleWebKit/537.36 (KHTML, like Gecko) Chrome/88.0.4324.146 Safari/537.36","v1-up-stims","","","","","","","","40,50,60,70,80","media/audio/stims/spherical_300cm_s20_c20_cd-full_matched_a40.wav","spherical","20","20","full","matched","40","50","5359"
"echo-presentation","14","479117","0.0-14.0","5d87a74208667b0001eff922","5fef55e628823a0076ec12ee","602014e36706505d336fc3c9","Mozilla/5.0 (Macintosh; Intel Mac OS X 10_15_4) AppleWebKit/537.36 (KHTML, like Gecko) Chrome/88.0.4324.146 Safari/537.36","v1-up-stims","","","","","","","","40,50,60,70,80","media/audio/stims/spherical_300cm_s20_c20_cd-full_matched_a60.wav","spherical","20","20","full","matched","60","40","6985"
"echo-presentation","15","484094","0.0-15.0","5d87a74208667b0001eff922","5fef55e628823a0076ec12ee","602014e36706505d336fc3c9","Mozilla/5.0 (Macintosh; Intel Mac OS X 10_15_4) AppleWebKit/537.36 (KHTML, like Gecko) Chrome/88.0.4324.146 Safari/537.36","v1-up-stims","","","","","","","","40,50,60,70,80","media/audio/stims/spherical_300cm_s20_c20_cd-full_matched_a70.wav","spherical","20","20","full","matched","70","50","3586"
"echo-presentation","16","493296","0.0-16.0","5d87a74208667b0001eff922","5fef55e628823a0076ec12ee","602014e36706505d336fc3c9","Mozilla/5.0 (Macintosh; Intel Mac OS X 10_15_4) AppleWebKit/537.36 (KHTML, like Gecko) Chrome/88.0.4324.146 Safari/537.36","v1-up-stims","","","","","","","","40,50,60,70,80","media/audio/stims/spherical_300cm_s20_c20_cd-full_matched_a60.wav","spherical","20","20","full","matched","60","50","7565"
"echo-presentation","17","498560","0.0-17.0","5d87a74208667b0001eff922","5fef55e628823a0076ec12ee","602014e36706505d336fc3c9","Mozilla/5.0 (Macintosh; Intel Mac OS X 10_15_4) AppleWebKit/537.36 (KHTML, like Gecko) Chrome/88.0.4324.146 Safari/537.36","v1-up-stims","","","","","","","","40,50,60,70,80","media/audio/stims/spherical_300cm_s20_c20_cd-full_matched_a60.wav","spherical","20","20","full","matched","60","40","3020"
"echo-presentation","18","504812","0.0-18.0","5d87a74208667b0001eff922","5fef55e628823a0076ec12ee","602014e36706505d336fc3c9","Mozilla/5.0 (Macintosh; Intel Mac OS X 10_15_4) AppleWebKit/537.36 (KHTML, like Gecko) Chrome/88.0.4324.146 Safari/537.36","v1-up-stims","","","","","","","","40,50,60,70,80","media/audio/stims/spherical_300cm_s20_c20_cd-full_matched_a50.wav","spherical","20","20","full","matched","50","60","4222"
"echo-presentation","19","513139","0.0-19.0","5d87a74208667b0001eff922","5fef55e628823a0076ec12ee","602014e36706505d336fc3c9","Mozilla/5.0 (Macintosh; Intel Mac OS X 10_15_4) AppleWebKit/537.36 (KHTML, like Gecko) Chrome/88.0.4324.146 Safari/537.36","v1-up-stims","","","","","","","","40,50,60,70,80","media/audio/stims/spherical_300cm_s20_c20_cd-full_matched_a40.wav","spherical","20","20","full","matched","40","40","6545"
"echo-presentation","20","518698","0.0-20.0","5d87a74208667b0001eff922","5fef55e628823a0076ec12ee","602014e36706505d336fc3c9","Mozilla/5.0 (Macintosh; Intel Mac OS X 10_15_4) AppleWebKit/537.36 (KHTML, like Gecko) Chrome/88.0.4324.146 Safari/537.36","v1-up-stims","","","","","","","","40,50,60,70,80","media/audio/stims/spherical_300cm_s20_c20_cd-full_matched_a40.wav","spherical","20","20","full","matched","40","60","3452"
"echo-presentation","21","522309","0.0-21.0","5d87a74208667b0001eff922","5fef55e628823a0076ec12ee","602014e36706505d336fc3c9","Mozilla/5.0 (Macintosh; Intel Mac OS X 10_15_4) AppleWebKit/537.36 (KHTML, like Gecko) Chrome/88.0.4324.146 Safari/537.36","v1-up-stims","","","","","","","","40,50,60,70,80","media/audio/stims/spherical_300cm_s20_c20_cd-full_matched_a70.wav","spherical","20","20","full","matched","70","60","1738"
"echo-presentation","22","525629","0.0-22.0","5d87a74208667b0001eff922","5fef55e628823a0076ec12ee","602014e36706505d336fc3c9","Mozilla/5.0 (Macintosh; Intel Mac OS X 10_15_4) AppleWebKit/537.36 (KHTML, like Gecko) Chrome/88.0.4324.146 Safari/537.36","v1-up-stims","","","","","","","","40,50,60,70,80","media/audio/stims/spherical_300cm_s20_c20_cd-full_matched_a80.wav","spherical","20","20","full","matched","80","60","1966"
"echo-presentation","23","531341","0.0-23.0","5d87a74208667b0001eff922","5fef55e628823a0076ec12ee","602014e36706505d336fc3c9","Mozilla/5.0 (Macintosh; Intel Mac OS X 10_15_4) AppleWebKit/537.36 (KHTML, like Gecko) Chrome/88.0.4324.146 Safari/537.36","v1-up-stims","","","","","","","","40,50,60,70,80","media/audio/stims/spherical_300cm_s20_c20_cd-full_matched_a50.wav","spherical","20","20","full","matched","50","60","4061"
"echo-presentation","24","537494","0.0-24.0","5d87a74208667b0001eff922","5fef55e628823a0076ec12ee","602014e36706505d336fc3c9","Mozilla/5.0 (Macintosh; Intel Mac OS X 10_15_4) AppleWebKit/537.36 (KHTML, like Gecko) Chrome/88.0.4324.146 Safari/537.36","v1-up-stims","","","","","","","","40,50,60,70,80","media/audio/stims/spherical_300cm_s20_c20_cd-full_matched_a40.wav","spherical","20","20","full","matched","40","60","4220"
"echo-presentation","25","542481","0.0-25.0","5d87a74208667b0001eff922","5fef55e628823a0076ec12ee","602014e36706505d336fc3c9","Mozilla/5.0 (Macintosh; Intel Mac OS X 10_15_4) AppleWebKit/537.36 (KHTML, like Gecko) Chrome/88.0.4324.146 Safari/537.36","v1-up-stims","","","","","","","","40,50,60,70,80","media/audio/stims/spherical_300cm_s20_c20_cd-full_matched_a50.wav","spherical","20","20","full","matched","50","60","3426"
"echo-presentation","26","550208","0.0-26.0","5d87a74208667b0001eff922","5fef55e628823a0076ec12ee","602014e36706505d336fc3c9","Mozilla/5.0 (Macintosh; Intel Mac OS X 10_15_4) AppleWebKit/537.36 (KHTML, like Gecko) Chrome/88.0.4324.146 Safari/537.36","v1-up-stims","","","","","","","","40,50,60,70,80","media/audio/stims/spherical_300cm_s20_c20_cd-full_matched_a70.wav","spherical","20","20","full","matched","70","60","6093"
"echo-presentation","27","557353","0.0-27.0","5d87a74208667b0001eff922","5fef55e628823a0076ec12ee","602014e36706505d336fc3c9","Mozilla/5.0 (Macintosh; Intel Mac OS X 10_15_4) AppleWebKit/537.36 (KHTML, like Gecko) Chrome/88.0.4324.146 Safari/537.36","v1-up-stims","","","","","","","","40,50,60,70,80","media/audio/stims/spherical_300cm_s20_c20_cd-full_matched_a70.wav","spherical","20","20","full","matched","70","60","4566"
"block-bookend","28","562329","0.0-28.0","5d87a74208667b0001eff922","5fef55e628823a0076ec12ee","602014e36706505d336fc3c9","Mozilla/5.0 (Macintosh; Intel Mac OS X 10_15_4) AppleWebKit/537.36 (KHTML, like Gecko) Chrome/88.0.4324.146 Safari/537.36","v1-up-stims","","","","","","","","","","","","","","","","",""
"block-bookend","29","582019","0.0-29.0","5d87a74208667b0001eff922","5fef55e628823a0076ec12ee","602014e36706505d336fc3c9","Mozilla/5.0 (Macintosh; Intel Mac OS X 10_15_4) AppleWebKit/537.36 (KHTML, like Gecko) Chrome/88.0.4324.146 Safari/537.36","v1-up-stims","","","","","","","","","","","","","","","","",""
"echo-presentation","30","589937","0.0-30.0","5d87a74208667b0001eff922","5fef55e628823a0076ec12ee","602014e36706505d336fc3c9","Mozilla/5.0 (Macintosh; Intel Mac OS X 10_15_4) AppleWebKit/537.36 (KHTML, like Gecko) Chrome/88.0.4324.146 Safari/537.36","v1-up-stims","","","","","","","","40,50,60,70,80","media/audio/stims/spherical_300cm_s20_c20_cd-full_matched_a80.wav","spherical","20","20","full","matched","80","40","4213"
"echo-presentation","31","596133","0.0-31.0","5d87a74208667b0001eff922","5fef55e628823a0076ec12ee","602014e36706505d336fc3c9","Mozilla/5.0 (Macintosh; Intel Mac OS X 10_15_4) AppleWebKit/537.36 (KHTML, like Gecko) Chrome/88.0.4324.146 Safari/537.36","v1-up-stims","","","","","","","","40,50,60,70,80","media/audio/stims/spherical_300cm_s20_c20_cd-full_matched_a50.wav","spherical","20","20","full","matched","50","40","4926"
"echo-presentation","32","600084","0.0-32.0","5d87a74208667b0001eff922","5fef55e628823a0076ec12ee","602014e36706505d336fc3c9","Mozilla/5.0 (Macintosh; Intel Mac OS X 10_15_4) AppleWebKit/537.36 (KHTML, like Gecko) Chrome/88.0.4324.146 Safari/537.36","v1-up-stims","","","","","","","","40,50,60,70,80","media/audio/stims/spherical_300cm_s20_c20_cd-full_matched_a80.wav","spherical","20","20","full","matched","80","40","2383"
"echo-presentation","33","606313","0.0-33.0","5d87a74208667b0001eff922","5fef55e628823a0076ec12ee","602014e36706505d336fc3c9","Mozilla/5.0 (Macintosh; Intel Mac OS X 10_15_4) AppleWebKit/537.36 (KHTML, like Gecko) Chrome/88.0.4324.146 Safari/537.36","v1-up-stims","","","","","","","","40,50,60,70,80","media/audio/stims/spherical_300cm_s20_c20_cd-full_matched_a50.wav","spherical","20","20","full","matched","50","50","4888"
"echo-presentation","34","611484","0.0-34.0","5d87a74208667b0001eff922","5fef55e628823a0076ec12ee","602014e36706505d336fc3c9","Mozilla/5.0 (Macintosh; Intel Mac OS X 10_15_4) AppleWebKit/537.36 (KHTML, like Gecko) Chrome/88.0.4324.146 Safari/537.36","v1-up-stims","","","","","","","","40,50,60,70,80","media/audio/stims/spherical_300cm_s20_c20_cd-full_matched_a50.wav","spherical","20","20","full","matched","50","50","4060"
"echo-presentation","35","614095","0.0-35.0","5d87a74208667b0001eff922","5fef55e628823a0076ec12ee","602014e36706505d336fc3c9","Mozilla/5.0 (Macintosh; Intel Mac OS X 10_15_4) AppleWebKit/537.36 (KHTML, like Gecko) Chrome/88.0.4324.146 Safari/537.36","v1-up-stims","","","","","","","","40,50,60,70,80","media/audio/stims/spherical_300cm_s20_c20_cd-full_matched_a70.wav","spherical","20","20","full","matched","70","50","1607"
"echo-presentation","36","616756","0.0-36.0","5d87a74208667b0001eff922","5fef55e628823a0076ec12ee","602014e36706505d336fc3c9","Mozilla/5.0 (Macintosh; Intel Mac OS X 10_15_4) AppleWebKit/537.36 (KHTML, like Gecko) Chrome/88.0.4324.146 Safari/537.36","v1-up-stims","","","","","","","","40,50,60,70,80","media/audio/stims/spherical_300cm_s20_c20_cd-full_matched_a40.wav","spherical","20","20","full","matched","40","50","1658"
"echo-presentation","37","620304","0.0-37.0","5d87a74208667b0001eff922","5fef55e628823a0076ec12ee","602014e36706505d336fc3c9","Mozilla/5.0 (Macintosh; Intel Mac OS X 10_15_4) AppleWebKit/537.36 (KHTML, like Gecko) Chrome/88.0.4324.146 Safari/537.36","v1-up-stims","","","","","","","","40,50,60,70,80","media/audio/stims/spherical_300cm_s20_c20_cd-full_matched_a80.wav","spherical","20","20","full","matched","80","50","1784"
"echo-presentation","38","626416","0.0-38.0","5d87a74208667b0001eff922","5fef55e628823a0076ec12ee","602014e36706505d336fc3c9","Mozilla/5.0 (Macintosh; Intel Mac OS X 10_15_4) AppleWebKit/537.36 (KHTML, like Gecko) Chrome/88.0.4324.146 Safari/537.36","v1-up-stims","","","","","","","","40,50,60,70,80","media/audio/stims/spherical_300cm_s20_c20_cd-full_matched_a40.wav","spherical","20","20","full","matched","40","60","4717"
"echo-presentation","39","630734","0.0-39.0","5d87a74208667b0001eff922","5fef55e628823a0076ec12ee","602014e36706505d336fc3c9","Mozilla/5.0 (Macintosh; Intel Mac OS X 10_15_4) AppleWebKit/537.36 (KHTML, like Gecko) Chrome/88.0.4324.146 Safari/537.36","v1-up-stims","","","","","","","","40,50,60,70,80","media/audio/stims/spherical_300cm_s20_c20_cd-full_matched_a50.wav","spherical","20","20","full","matched","50","60","3325"
"echo-presentation","40","634165","0.0-40.0","5d87a74208667b0001eff922","5fef55e628823a0076ec12ee","602014e36706505d336fc3c9","Mozilla/5.0 (Macintosh; Intel Mac OS X 10_15_4) AppleWebKit/537.36 (KHTML, like Gecko) Chrome/88.0.4324.146 Safari/537.36","v1-up-stims","","","","","","","","40,50,60,70,80","media/audio/stims/spherical_300cm_s20_c20_cd-full_matched_a70.wav","spherical","20","20","full","matched","70","60","2197"
"echo-presentation","41","640800","0.0-41.0","5d87a74208667b0001eff922","5fef55e628823a0076ec12ee","602014e36706505d336fc3c9","Mozilla/5.0 (Macintosh; Intel Mac OS X 10_15_4) AppleWebKit/537.36 (KHTML, like Gecko) Chrome/88.0.4324.146 Safari/537.36","v1-up-stims","","","","","","","","40,50,60,70,80","media/audio/stims/spherical_300cm_s20_c20_cd-full_matched_a40.wav","spherical","20","20","full","matched","40","60","5398"
"echo-presentation","42","643128","0.0-42.0","5d87a74208667b0001eff922","5fef55e628823a0076ec12ee","602014e36706505d336fc3c9","Mozilla/5.0 (Macintosh; Intel Mac OS X 10_15_4) AppleWebKit/537.36 (KHTML, like Gecko) Chrome/88.0.4324.146 Safari/537.36","v1-up-stims","","","","","","","","40,50,60,70,80","media/audio/stims/spherical_300cm_s20_c20_cd-full_matched_a70.wav","spherical","20","20","full","matched","70","60","1431"
"echo-presentation","43","646616","0.0-43.0","5d87a74208667b0001eff922","5fef55e628823a0076ec12ee","602014e36706505d336fc3c9","Mozilla/5.0 (Macintosh; Intel Mac OS X 10_15_4) AppleWebKit/537.36 (KHTML, like Gecko) Chrome/88.0.4324.146 Safari/537.36","v1-up-stims","","","","","","","","40,50,60,70,80","media/audio/stims/spherical_300cm_s20_c20_cd-full_matched_a60.wav","spherical","20","20","full","matched","60","50","2426"
"echo-presentation","44","649113","0.0-44.0","5d87a74208667b0001eff922","5fef55e628823a0076ec12ee","602014e36706505d336fc3c9","Mozilla/5.0 (Macintosh; Intel Mac OS X 10_15_4) AppleWebKit/537.36 (KHTML, like Gecko) Chrome/88.0.4324.146 Safari/537.36","v1-up-stims","","","","","","","","40,50,60,70,80","media/audio/stims/spherical_300cm_s20_c20_cd-full_matched_a40.wav","spherical","20","20","full","matched","40","60","1378"
"echo-presentation","45","653885","0.0-45.0","5d87a74208667b0001eff922","5fef55e628823a0076ec12ee","602014e36706505d336fc3c9","Mozilla/5.0 (Macintosh; Intel Mac OS X 10_15_4) AppleWebKit/537.36 (KHTML, like Gecko) Chrome/88.0.4324.146 Safari/537.36","v1-up-stims","","","","","","","","40,50,60,70,80","media/audio/stims/spherical_300cm_s20_c20_cd-full_matched_a60.wav","spherical","20","20","full","matched","60","60","2911"
"echo-presentation","46","658367","0.0-46.0","5d87a74208667b0001eff922","5fef55e628823a0076ec12ee","602014e36706505d336fc3c9","Mozilla/5.0 (Macintosh; Intel Mac OS X 10_15_4) AppleWebKit/537.36 (KHTML, like Gecko) Chrome/88.0.4324.146 Safari/537.36","v1-up-stims","","","","","","","","40,50,60,70,80","media/audio/stims/spherical_300cm_s20_c20_cd-full_matched_a60.wav","spherical","20","20","full","matched","60","60","2735"
"echo-presentation","47","671845","0.0-47.0","5d87a74208667b0001eff922","5fef55e628823a0076ec12ee","602014e36706505d336fc3c9","Mozilla/5.0 (Macintosh; Intel Mac OS X 10_15_4) AppleWebKit/537.36 (KHTML, like Gecko) Chrome/88.0.4324.146 Safari/537.36","v1-up-stims","","","","","","","","40,50,60,70,80","media/audio/stims/spherical_300cm_s20_c20_cd-full_matched_a70.wav","spherical","20","20","full","matched","70","60","12202"
"echo-presentation","48","679067","0.0-48.0","5d87a74208667b0001eff922","5fef55e628823a0076ec12ee","602014e36706505d336fc3c9","Mozilla/5.0 (Macintosh; Intel Mac OS X 10_15_4) AppleWebKit/537.36 (KHTML, like Gecko) Chrome/88.0.4324.146 Safari/537.36","v1-up-stims","","","","","","","","40,50,60,70,80","media/audio/stims/spherical_300cm_s20_c20_cd-full_matched_a60.wav","spherical","20","20","full","matched","60","60","5850"
"echo-presentation","49","684136","0.0-49.0","5d87a74208667b0001eff922","5fef55e628823a0076ec12ee","602014e36706505d336fc3c9","Mozilla/5.0 (Macintosh; Intel Mac OS X 10_15_4) AppleWebKit/537.36 (KHTML, like Gecko) Chrome/88.0.4324.146 Safari/537.36","v1-up-stims","","","","","","","","40,50,60,70,80","media/audio/stims/spherical_300cm_s20_c20_cd-full_matched_a80.wav","spherical","20","20","full","matched","80","60","2990"
"block-bookend","50","688233","0.0-50.0","5d87a74208667b0001eff922","5fef55e628823a0076ec12ee","602014e36706505d336fc3c9","Mozilla/5.0 (Macintosh; Intel Mac OS X 10_15_4) AppleWebKit/537.36 (KHTML, like Gecko) Chrome/88.0.4324.146 Safari/537.36","v1-up-stims","","","","","","","","","","","","","","","","",""
"block-bookend","51","707821","0.0-51.0","5d87a74208667b0001eff922","5fef55e628823a0076ec12ee","602014e36706505d336fc3c9","Mozilla/5.0 (Macintosh; Intel Mac OS X 10_15_4) AppleWebKit/537.36 (KHTML, like Gecko) Chrome/88.0.4324.146 Safari/537.36","v1-up-stims","","","","","","","","","","","","","","","","",""
"echo-presentation","52","715609","0.0-52.0","5d87a74208667b0001eff922","5fef55e628823a0076ec12ee","602014e36706505d336fc3c9","Mozilla/5.0 (Macintosh; Intel Mac OS X 10_15_4) AppleWebKit/537.36 (KHTML, like Gecko) Chrome/88.0.4324.146 Safari/537.36","v1-up-stims","","","","","","","","-20,-10,0,10,20","media/audio/stims/spherical_300cm_s20_c20_cd-full_matched_a20.wav","spherical","20","20","full","matched","20","20","4967"
"echo-presentation","53","720090","0.0-53.0","5d87a74208667b0001eff922","5fef55e628823a0076ec12ee","602014e36706505d336fc3c9","Mozilla/5.0 (Macintosh; Intel Mac OS X 10_15_4) AppleWebKit/537.36 (KHTML, like Gecko) Chrome/88.0.4324.146 Safari/537.36","v1-up-stims","","","","","","","","-20,-10,0,10,20","media/audio/stims/spherical_300cm_s20_c20_cd-full_matched_a0.wav","spherical","20","20","full","matched","0","10","2823"
"echo-presentation","54","725779","0.0-54.0","5d87a74208667b0001eff922","5fef55e628823a0076ec12ee","602014e36706505d336fc3c9","Mozilla/5.0 (Macintosh; Intel Mac OS X 10_15_4) AppleWebKit/537.36 (KHTML, like Gecko) Chrome/88.0.4324.146 Safari/537.36","v1-up-stims","","","","","","","","-20,-10,0,10,20","media/audio/stims/spherical_300cm_s20_c20_cd-full_matched_a0.wav","spherical","20","20","full","matched","0","10","4077"
"echo-presentation","55","731965","0.0-55.0","5d87a74208667b0001eff922","5fef55e628823a0076ec12ee","602014e36706505d336fc3c9","Mozilla/5.0 (Macintosh; Intel Mac OS X 10_15_4) AppleWebKit/537.36 (KHTML, like Gecko) Chrome/88.0.4324.146 Safari/537.36","v1-up-stims","","","","","","","","-20,-10,0,10,20","media/audio/stims/spherical_300cm_s20_c20_cd-full_matched_a-10.wav","spherical","20","20","full","matched","-10","0","4753"
"echo-presentation","56","737129","0.0-56.0","5d87a74208667b0001eff922","5fef55e628823a0076ec12ee","602014e36706505d336fc3c9","Mozilla/5.0 (Macintosh; Intel Mac OS X 10_15_4) AppleWebKit/537.36 (KHTML, like Gecko) Chrome/88.0.4324.146 Safari/537.36","v1-up-stims","","","","","","","","-20,-10,0,10,20","media/audio/stims/spherical_300cm_s20_c20_cd-full_matched_a-10.wav","spherical","20","20","full","matched","-10","0","1925"
"echo-presentation","57","740780","0.0-57.0","5d87a74208667b0001eff922","5fef55e628823a0076ec12ee","602014e36706505d336fc3c9","Mozilla/5.0 (Macintosh; Intel Mac OS X 10_15_4) AppleWebKit/537.36 (KHTML, like Gecko) Chrome/88.0.4324.146 Safari/537.36","v1-up-stims","","","","","","","","-20,-10,0,10,20","media/audio/stims/spherical_300cm_s20_c20_cd-full_matched_a0.wav","spherical","20","20","full","matched","0","-10","2302"
"echo-presentation","58","746481","0.0-58.0","5d87a74208667b0001eff922","5fef55e628823a0076ec12ee","602014e36706505d336fc3c9","Mozilla/5.0 (Macintosh; Intel Mac OS X 10_15_4) AppleWebKit/537.36 (KHTML, like Gecko) Chrome/88.0.4324.146 Safari/537.36","v1-up-stims","","","","","","","","-20,-10,0,10,20","media/audio/stims/spherical_300cm_s20_c20_cd-full_matched_a-20.wav","spherical","20","20","full","matched","-20","-10","3701"
"echo-presentation","59","749852","0.0-59.0","5d87a74208667b0001eff922","5fef55e628823a0076ec12ee","602014e36706505d336fc3c9","Mozilla/5.0 (Macintosh; Intel Mac OS X 10_15_4) AppleWebKit/537.36 (KHTML, like Gecko) Chrome/88.0.4324.146 Safari/537.36","v1-up-stims","","","","","","","","-20,-10,0,10,20","media/audio/stims/spherical_300cm_s20_c20_cd-full_matched_a-10.wav","spherical","20","20","full","matched","-10","-10","2425"
"echo-presentation","60","753707","0.0-60.0","5d87a74208667b0001eff922","5fef55e628823a0076ec12ee","602014e36706505d336fc3c9","Mozilla/5.0 (Macintosh; Intel Mac OS X 10_15_4) AppleWebKit/537.36 (KHTML, like Gecko) Chrome/88.0.4324.146 Safari/537.36","v1-up-stims","","","","","","","","-20,-10,0,10,20","media/audio/stims/spherical_300cm_s20_c20_cd-full_matched_a20.wav","spherical","20","20","full","matched","20","10","2660"
"echo-presentation","61","758032","0.0-61.0","5d87a74208667b0001eff922","5fef55e628823a0076ec12ee","602014e36706505d336fc3c9","Mozilla/5.0 (Macintosh; Intel Mac OS X 10_15_4) AppleWebKit/537.36 (KHTML, like Gecko) Chrome/88.0.4324.146 Safari/537.36","v1-up-stims","","","","","","","","-20,-10,0,10,20","media/audio/stims/spherical_300cm_s20_c20_cd-full_matched_a-20.wav","spherical","20","20","full","matched","-20","-10","2829"
"echo-presentation","62","761400","0.0-62.0","5d87a74208667b0001eff922","5fef55e628823a0076ec12ee","602014e36706505d336fc3c9","Mozilla/5.0 (Macintosh; Intel Mac OS X 10_15_4) AppleWebKit/537.36 (KHTML, like Gecko) Chrome/88.0.4324.146 Safari/537.36","v1-up-stims","","","","","","","","-20,-10,0,10,20","media/audio/stims/spherical_300cm_s20_c20_cd-full_matched_a10.wav","spherical","20","20","full","matched","10","0","2219"
"echo-presentation","63","765548","0.0-63.0","5d87a74208667b0001eff922","5fef55e628823a0076ec12ee","602014e36706505d336fc3c9","Mozilla/5.0 (Macintosh; Intel Mac OS X 10_15_4) AppleWebKit/537.36 (KHTML, like Gecko) Chrome/88.0.4324.146 Safari/537.36","v1-up-stims","","","","","","","","-20,-10,0,10,20","media/audio/stims/spherical_300cm_s20_c20_cd-full_matched_a10.wav","spherical","20","20","full","matched","10","0","2611"
"echo-presentation","64","769069","0.0-64.0","5d87a74208667b0001eff922","5fef55e628823a0076ec12ee","602014e36706505d336fc3c9","Mozilla/5.0 (Macintosh; Intel Mac OS X 10_15_4) AppleWebKit/537.36 (KHTML, like Gecko) Chrome/88.0.4324.146 Safari/537.36","v1-up-stims","","","","","","","","-20,-10,0,10,20","media/audio/stims/spherical_300cm_s20_c20_cd-full_matched_a20.wav","spherical","20","20","full","matched","20","10","2117"
"echo-presentation","65","773192","0.0-65.0","5d87a74208667b0001eff922","5fef55e628823a0076ec12ee","602014e36706505d336fc3c9","Mozilla/5.0 (Macintosh; Intel Mac OS X 10_15_4) AppleWebKit/537.36 (KHTML, like Gecko) Chrome/88.0.4324.146 Safari/537.36","v1-up-stims","","","","","","","","-20,-10,0,10,20","media/audio/stims/spherical_300cm_s20_c20_cd-full_matched_a-20.wav","spherical","20","20","full","matched","-20","-20","2615"
"echo-presentation","66","776440","0.0-66.0","5d87a74208667b0001eff922","5fef55e628823a0076ec12ee","602014e36706505d336fc3c9","Mozilla/5.0 (Macintosh; Intel Mac OS X 10_15_4) AppleWebKit/537.36 (KHTML, like Gecko) Chrome/88.0.4324.146 Safari/537.36","v1-up-stims","","","","","","","","-20,-10,0,10,20","media/audio/stims/spherical_300cm_s20_c20_cd-full_matched_a20.wav","spherical","20","20","full","matched","20","10","1920"
"echo-presentation","67","780382","0.0-67.0","5d87a74208667b0001eff922","5fef55e628823a0076ec12ee","602014e36706505d336fc3c9","Mozilla/5.0 (Macintosh; Intel Mac OS X 10_15_4) AppleWebKit/537.36 (KHTML, like Gecko) Chrome/88.0.4324.146 Safari/537.36","v1-up-stims","","","","","","","","-20,-10,0,10,20","media/audio/stims/spherical_300cm_s20_c20_cd-full_matched_a0.wav","spherical","20","20","full","matched","0","-10","2459"
"echo-presentation","68","784050","0.0-68.0","5d87a74208667b0001eff922","5fef55e628823a0076ec12ee","602014e36706505d336fc3c9","Mozilla/5.0 (Macintosh; Intel Mac OS X 10_15_4) AppleWebKit/537.36 (KHTML, like Gecko) Chrome/88.0.4324.146 Safari/537.36","v1-up-stims","","","","","","","","-20,-10,0,10,20","media/audio/stims/spherical_300cm_s20_c20_cd-full_matched_a-10.wav","spherical","20","20","full","matched","-10","-20","2351"
"echo-presentation","69","787289","0.0-69.0","5d87a74208667b0001eff922","5fef55e628823a0076ec12ee","602014e36706505d336fc3c9","Mozilla/5.0 (Macintosh; Intel Mac OS X 10_15_4) AppleWebKit/537.36 (KHTML, like Gecko) Chrome/88.0.4324.146 Safari/537.36","v1-up-stims","","","","","","","","-20,-10,0,10,20","media/audio/stims/spherical_300cm_s20_c20_cd-full_matched_a10.wav","spherical","20","20","full","matched","10","-10","1713"
"echo-presentation","70","791480","0.0-70.0","5d87a74208667b0001eff922","5fef55e628823a0076ec12ee","602014e36706505d336fc3c9","Mozilla/5.0 (Macintosh; Intel Mac OS X 10_15_4) AppleWebKit/537.36 (KHTML, like Gecko) Chrome/88.0.4324.146 Safari/537.36","v1-up-stims","","","","","","","","-20,-10,0,10,20","media/audio/stims/spherical_300cm_s20_c20_cd-full_matched_a10.wav","spherical","20","20","full","matched","10","10","2926"
"echo-presentation","71","794498","0.0-71.0","5d87a74208667b0001eff922","5fef55e628823a0076ec12ee","602014e36706505d336fc3c9","Mozilla/5.0 (Macintosh; Intel Mac OS X 10_15_4) AppleWebKit/537.36 (KHTML, like Gecko) Chrome/88.0.4324.146 Safari/537.36","v1-up-stims","","","","","","","","-20,-10,0,10,20","media/audio/stims/spherical_300cm_s20_c20_cd-full_matched_a-20.wav","spherical","20","20","full","matched","-20","-10","1665"
"block-bookend","72","797486","0.0-72.0","5d87a74208667b0001eff922","5fef55e628823a0076ec12ee","602014e36706505d336fc3c9","Mozilla/5.0 (Macintosh; Intel Mac OS X 10_15_4) AppleWebKit/537.36 (KHTML, like Gecko) Chrome/88.0.4324.146 Safari/537.36","v1-up-stims","","","","","","","","","","","","","","","","",""
"block-bookend","73","809318","0.0-73.0","5d87a74208667b0001eff922","5fef55e628823a0076ec12ee","602014e36706505d336fc3c9","Mozilla/5.0 (Macintosh; Intel Mac OS X 10_15_4) AppleWebKit/537.36 (KHTML, like Gecko) Chrome/88.0.4324.146 Safari/537.36","v1-up-stims","","","","","","","","","","","","","","","","",""
"echo-presentation","74","814462","0.0-74.0","5d87a74208667b0001eff922","5fef55e628823a0076ec12ee","602014e36706505d336fc3c9","Mozilla/5.0 (Macintosh; Intel Mac OS X 10_15_4) AppleWebKit/537.36 (KHTML, like Gecko) Chrome/88.0.4324.146 Safari/537.36","v1-up-stims","","","","","","","","-20,-10,0,10,20","media/audio/stims/spherical_300cm_s20_c20_cd-full_matched_a10.wav","spherical","20","20","full","matched","10","10","2063"
"echo-presentation","75","817922","0.0-75.0","5d87a74208667b0001eff922","5fef55e628823a0076ec12ee","602014e36706505d336fc3c9","Mozilla/5.0 (Macintosh; Intel Mac OS X 10_15_4) AppleWebKit/537.36 (KHTML, like Gecko) Chrome/88.0.4324.146 Safari/537.36","v1-up-stims","","","","","","","","-20,-10,0,10,20","media/audio/stims/spherical_300cm_s20_c20_cd-full_matched_a-20.wav","spherical","20","20","full","matched","-20","-10","2075"
"echo-presentation","76","820500","0.0-76.0","5d87a74208667b0001eff922","5fef55e628823a0076ec12ee","602014e36706505d336fc3c9","Mozilla/5.0 (Macintosh; Intel Mac OS X 10_15_4) AppleWebKit/537.36 (KHTML, like Gecko) Chrome/88.0.4324.146 Safari/537.36","v1-up-stims","","","","","","","","-20,-10,0,10,20","media/audio/stims/spherical_300cm_s20_c20_cd-full_matched_a-20.wav","spherical","20","20","full","matched","-20","-10","1554"
"echo-presentation","77","823686","0.0-77.0","5d87a74208667b0001eff922","5fef55e628823a0076ec12ee","602014e36706505d336fc3c9","Mozilla/5.0 (Macintosh; Intel Mac OS X 10_15_4) AppleWebKit/537.36 (KHTML, like Gecko) Chrome/88.0.4324.146 Safari/537.36","v1-up-stims","","","","","","","","-20,-10,0,10,20","media/audio/stims/spherical_300cm_s20_c20_cd-full_matched_a-10.wav","spherical","20","20","full","matched","-10","-10","2093"
"echo-presentation","78","826747","0.0-78.0","5d87a74208667b0001eff922","5fef55e628823a0076ec12ee","602014e36706505d336fc3c9","Mozilla/5.0 (Macintosh; Intel Mac OS X 10_15_4) AppleWebKit/537.36 (KHTML, like Gecko) Chrome/88.0.4324.146 Safari/537.36","v1-up-stims","","","","","","","","-20,-10,0,10,20","media/audio/stims/spherical_300cm_s20_c20_cd-full_matched_a10.wav","spherical","20","20","full","matched","10","0","1892"
"echo-presentation","79","829749","0.0-79.0","5d87a74208667b0001eff922","5fef55e628823a0076ec12ee","602014e36706505d336fc3c9","Mozilla/5.0 (Macintosh; Intel Mac OS X 10_15_4) AppleWebKit/537.36 (KHTML, like Gecko) Chrome/88.0.4324.146 Safari/537.36","v1-up-stims","","","","","","","","-20,-10,0,10,20","media/audio/stims/spherical_300cm_s20_c20_cd-full_matched_a10.wav","spherical","20","20","full","matched","10","10","2032"
"echo-presentation","80","833806","0.0-80.0","5d87a74208667b0001eff922","5fef55e628823a0076ec12ee","602014e36706505d336fc3c9","Mozilla/5.0 (Macintosh; Intel Mac OS X 10_15_4) AppleWebKit/537.36 (KHTML, like Gecko) Chrome/88.0.4324.146 Safari/537.36","v1-up-stims","","","","","","","","-20,-10,0,10,20","media/audio/stims/spherical_300cm_s20_c20_cd-full_matched_a20.wav","spherical","20","20","full","matched","20","10","2953"
"echo-presentation","81","838864","0.0-81.0","5d87a74208667b0001eff922","5fef55e628823a0076ec12ee","602014e36706505d336fc3c9","Mozilla/5.0 (Macintosh; Intel Mac OS X 10_15_4) AppleWebKit/537.36 (KHTML, like Gecko) Chrome/88.0.4324.146 Safari/537.36","v1-up-stims","","","","","","","","-20,-10,0,10,20","media/audio/stims/spherical_300cm_s20_c20_cd-full_matched_a20.wav","spherical","20","20","full","matched","20","0","3281"
"echo-presentation","82","841794","0.0-82.0","5d87a74208667b0001eff922","5fef55e628823a0076ec12ee","602014e36706505d336fc3c9","Mozilla/5.0 (Macintosh; Intel Mac OS X 10_15_4) AppleWebKit/537.36 (KHTML, like Gecko) Chrome/88.0.4324.146 Safari/537.36","v1-up-stims","","","","","","","","-20,-10,0,10,20","media/audio/stims/spherical_300cm_s20_c20_cd-full_matched_a20.wav","spherical","20","20","full","matched","20","0","2016"
"echo-presentation","83","844421","0.0-83.0","5d87a74208667b0001eff922","5fef55e628823a0076ec12ee","602014e36706505d336fc3c9","Mozilla/5.0 (Macintosh; Intel Mac OS X 10_15_4) AppleWebKit/537.36 (KHTML, like Gecko) Chrome/88.0.4324.146 Safari/537.36","v1-up-stims","","","","","","","","-20,-10,0,10,20","media/audio/stims/spherical_300cm_s20_c20_cd-full_matched_a-10.wav","spherical","20","20","full","matched","-10","-10","1622"
"echo-presentation","84","847846","0.0-84.0","5d87a74208667b0001eff922","5fef55e628823a0076ec12ee","602014e36706505d336fc3c9","Mozilla/5.0 (Macintosh; Intel Mac OS X 10_15_4) AppleWebKit/537.36 (KHTML, like Gecko) Chrome/88.0.4324.146 Safari/537.36","v1-up-stims","","","","","","","","-20,-10,0,10,20","media/audio/stims/spherical_300cm_s20_c20_cd-full_matched_a10.wav","spherical","20","20","full","matched","10","-10","2334"
"echo-presentation","85","850604","0.0-85.0","5d87a74208667b0001eff922","5fef55e628823a0076ec12ee","602014e36706505d336fc3c9","Mozilla/5.0 (Macintosh; Intel Mac OS X 10_15_4) AppleWebKit/537.36 (KHTML, like Gecko) Chrome/88.0.4324.146 Safari/537.36","v1-up-stims","","","","","","","","-20,-10,0,10,20","media/audio/stims/spherical_300cm_s20_c20_cd-full_matched_a20.wav","spherical","20","20","full","matched","20","0","1752"
"echo-presentation","86","853916","0.0-86.0","5d87a74208667b0001eff922","5fef55e628823a0076ec12ee","602014e36706505d336fc3c9","Mozilla/5.0 (Macintosh; Intel Mac OS X 10_15_4) AppleWebKit/537.36 (KHTML, like Gecko) Chrome/88.0.4324.146 Safari/537.36","v1-up-stims","","","","","","","","-20,-10,0,10,20","media/audio/stims/spherical_300cm_s20_c20_cd-full_matched_a-10.wav","spherical","20","20","full","matched","-10","-10","1779"
"echo-presentation","87","857997","0.0-87.0","5d87a74208667b0001eff922","5fef55e628823a0076ec12ee","602014e36706505d336fc3c9","Mozilla/5.0 (Macintosh; Intel Mac OS X 10_15_4) AppleWebKit/537.36 (KHTML, like Gecko) Chrome/88.0.4324.146 Safari/537.36","v1-up-stims","","","","","","","","-20,-10,0,10,20","media/audio/stims/spherical_300cm_s20_c20_cd-full_matched_a0.wav","spherical","20","20","full","matched","0","-10","2728"
"echo-presentation","88","861029","0.0-88.0","5d87a74208667b0001eff922","5fef55e628823a0076ec12ee","602014e36706505d336fc3c9","Mozilla/5.0 (Macintosh; Intel Mac OS X 10_15_4) AppleWebKit/537.36 (KHTML, like Gecko) Chrome/88.0.4324.146 Safari/537.36","v1-up-stims","","","","","","","","-20,-10,0,10,20","media/audio/stims/spherical_300cm_s20_c20_cd-full_matched_a-20.wav","spherical","20","20","full","matched","-20","-10","1655"
"echo-presentation","89","864807","0.0-89.0","5d87a74208667b0001eff922","5fef55e628823a0076ec12ee","602014e36706505d336fc3c9","Mozilla/5.0 (Macintosh; Intel Mac OS X 10_15_4) AppleWebKit/537.36 (KHTML, like Gecko) Chrome/88.0.4324.146 Safari/537.36","v1-up-stims","","","","","","","","-20,-10,0,10,20","media/audio/stims/spherical_300cm_s20_c20_cd-full_matched_a0.wav","spherical","20","20","full","matched","0","-10","2164"
"echo-presentation","90","868186","0.0-90.0","5d87a74208667b0001eff922","5fef55e628823a0076ec12ee","602014e36706505d336fc3c9","Mozilla/5.0 (Macintosh; Intel Mac OS X 10_15_4) AppleWebKit/537.36 (KHTML, like Gecko) Chrome/88.0.4324.146 Safari/537.36","v1-up-stims","","","","","","","","-20,-10,0,10,20","media/audio/stims/spherical_300cm_s20_c20_cd-full_matched_a-10.wav","spherical","20","20","full","matched","-10","-20","2197"
"echo-presentation","91","870717","0.0-91.0","5d87a74208667b0001eff922","5fef55e628823a0076ec12ee","602014e36706505d336fc3c9","Mozilla/5.0 (Macintosh; Intel Mac OS X 10_15_4) AppleWebKit/537.36 (KHTML, like Gecko) Chrome/88.0.4324.146 Safari/537.36","v1-up-stims","","","","","","","","-20,-10,0,10,20","media/audio/stims/spherical_300cm_s20_c20_cd-full_matched_a0.wav","spherical","20","20","full","matched","0","-10","1456"
"echo-presentation","92","873399","0.0-92.0","5d87a74208667b0001eff922","5fef55e628823a0076ec12ee","602014e36706505d336fc3c9","Mozilla/5.0 (Macintosh; Intel Mac OS X 10_15_4) AppleWebKit/537.36 (KHTML, like Gecko) Chrome/88.0.4324.146 Safari/537.36","v1-up-stims","","","","","","","","-20,-10,0,10,20","media/audio/stims/spherical_300cm_s20_c20_cd-full_matched_a0.wav","spherical","20","20","full","matched","0","-10","1422"
"echo-presentation","93","876198","0.0-93.0","5d87a74208667b0001eff922","5fef55e628823a0076ec12ee","602014e36706505d336fc3c9","Mozilla/5.0 (Macintosh; Intel Mac OS X 10_15_4) AppleWebKit/537.36 (KHTML, like Gecko) Chrome/88.0.4324.146 Safari/537.36","v1-up-stims","","","","","","","","-20,-10,0,10,20","media/audio/stims/spherical_300cm_s20_c20_cd-full_matched_a-20.wav","spherical","20","20","full","matched","-20","-20","1575"
"block-bookend","94","879741","0.0-94.0","5d87a74208667b0001eff922","5fef55e628823a0076ec12ee","602014e36706505d336fc3c9","Mozilla/5.0 (Macintosh; Intel Mac OS X 10_15_4) AppleWebKit/537.36 (KHTML, like Gecko) Chrome/88.0.4324.146 Safari/537.36","v1-up-stims","","","","","","","","","","","","","","","","",""
"block-bookend","95","901973","0.0-95.0","5d87a74208667b0001eff922","5fef55e628823a0076ec12ee","602014e36706505d336fc3c9","Mozilla/5.0 (Macintosh; Intel Mac OS X 10_15_4) AppleWebKit/537.36 (KHTML, like Gecko) Chrome/88.0.4324.146 Safari/537.36","v1-up-stims","","","","","","","","","","","","","","","","",""
"echo-presentation","96","906891","0.0-96.0","5d87a74208667b0001eff922","5fef55e628823a0076ec12ee","602014e36706505d336fc3c9","Mozilla/5.0 (Macintosh; Intel Mac OS X 10_15_4) AppleWebKit/537.36 (KHTML, like Gecko) Chrome/88.0.4324.146 Safari/537.36","v1-up-stims","","","","","","","","-80,-70,-60,-50,-40","media/audio/stims/spherical_300cm_s20_c20_cd-full_matched_a-50.wav","spherical","20","20","full","matched","-50","-80","2242"
"echo-presentation","97","910112","0.0-97.0","5d87a74208667b0001eff922","5fef55e628823a0076ec12ee","602014e36706505d336fc3c9","Mozilla/5.0 (Macintosh; Intel Mac OS X 10_15_4) AppleWebKit/537.36 (KHTML, like Gecko) Chrome/88.0.4324.146 Safari/537.36","v1-up-stims","","","","","","","","-80,-70,-60,-50,-40","media/audio/stims/spherical_300cm_s20_c20_cd-full_matched_a-60.wav","spherical","20","20","full","matched","-60","-80","1752"
"echo-presentation","98","912674","0.0-98.0","5d87a74208667b0001eff922","5fef55e628823a0076ec12ee","602014e36706505d336fc3c9","Mozilla/5.0 (Macintosh; Intel Mac OS X 10_15_4) AppleWebKit/537.36 (KHTML, like Gecko) Chrome/88.0.4324.146 Safari/537.36","v1-up-stims","","","","","","","","-80,-70,-60,-50,-40","media/audio/stims/spherical_300cm_s20_c20_cd-full_matched_a-40.wav","spherical","20","20","full","matched","-40","-80","1446"
"echo-presentation","99","916039","0.0-99.0","5d87a74208667b0001eff922","5fef55e628823a0076ec12ee","602014e36706505d336fc3c9","Mozilla/5.0 (Macintosh; Intel Mac OS X 10_15_4) AppleWebKit/537.36 (KHTML, like Gecko) Chrome/88.0.4324.146 Safari/537.36","v1-up-stims","","","","","","","","-80,-70,-60,-50,-40","media/audio/stims/spherical_300cm_s20_c20_cd-full_matched_a-80.wav","spherical","20","20","full","matched","-80","-80","2074"
"echo-presentation","100","919946","0.0-100.0","5d87a74208667b0001eff922","5fef55e628823a0076ec12ee","602014e36706505d336fc3c9","Mozilla/5.0 (Macintosh; Intel Mac OS X 10_15_4) AppleWebKit/537.36 (KHTML, like Gecko) Chrome/88.0.4324.146 Safari/537.36","v1-up-stims","","","","","","","","-80,-70,-60,-50,-40","media/audio/stims/spherical_300cm_s20_c20_cd-full_matched_a-80.wav","spherical","20","20","full","matched","-80","-70","2227"
"echo-presentation","101","922430","0.0-101.0","5d87a74208667b0001eff922","5fef55e628823a0076ec12ee","602014e36706505d336fc3c9","Mozilla/5.0 (Macintosh; Intel Mac OS X 10_15_4) AppleWebKit/537.36 (KHTML, like Gecko) Chrome/88.0.4324.146 Safari/537.36","v1-up-stims","","","","","","","","-80,-70,-60,-50,-40","media/audio/stims/spherical_300cm_s20_c20_cd-full_matched_a-50.wav","spherical","20","20","full","matched","-50","-80","1520"
"echo-presentation","102","925097","0.0-102.0","5d87a74208667b0001eff922","5fef55e628823a0076ec12ee","602014e36706505d336fc3c9","Mozilla/5.0 (Macintosh; Intel Mac OS X 10_15_4) AppleWebKit/537.36 (KHTML, like Gecko) Chrome/88.0.4324.146 Safari/537.36","v1-up-stims","","","","","","","","-80,-70,-60,-50,-40","media/audio/stims/spherical_300cm_s20_c20_cd-full_matched_a-60.wav","spherical","20","20","full","matched","-60","-80","1745"
"echo-presentation","103","928062","0.0-103.0","5d87a74208667b0001eff922","5fef55e628823a0076ec12ee","602014e36706505d336fc3c9","Mozilla/5.0 (Macintosh; Intel Mac OS X 10_15_4) AppleWebKit/537.36 (KHTML, like Gecko) Chrome/88.0.4324.146 Safari/537.36","v1-up-stims","","","","","","","","-80,-70,-60,-50,-40","media/audio/stims/spherical_300cm_s20_c20_cd-full_matched_a-50.wav","spherical","20","20","full","matched","-50","-80","1909"
"echo-presentation","104","931161","0.0-104.0","5d87a74208667b0001eff922","5fef55e628823a0076ec12ee","602014e36706505d336fc3c9","Mozilla/5.0 (Macintosh; Intel Mac OS X 10_15_4) AppleWebKit/537.36 (KHTML, like Gecko) Chrome/88.0.4324.146 Safari/537.36","v1-up-stims","","","","","","","","-80,-70,-60,-50,-40","media/audio/stims/spherical_300cm_s20_c20_cd-full_matched_a-70.wav","spherical","20","20","full","matched","-70","-80","1974"
"echo-presentation","105","933369","0.0-105.0","5d87a74208667b0001eff922","5fef55e628823a0076ec12ee","602014e36706505d336fc3c9","Mozilla/5.0 (Macintosh; Intel Mac OS X 10_15_4) AppleWebKit/537.36 (KHTML, like Gecko) Chrome/88.0.4324.146 Safari/537.36","v1-up-stims","","","","","","","","-80,-70,-60,-50,-40","media/audio/stims/spherical_300cm_s20_c20_cd-full_matched_a-80.wav","spherical","20","20","full","matched","-80","-80","1153"
"echo-presentation","106","935869","0.0-106.0","5d87a74208667b0001eff922","5fef55e628823a0076ec12ee","602014e36706505d336fc3c9","Mozilla/5.0 (Macintosh; Intel Mac OS X 10_15_4) AppleWebKit/537.36 (KHTML, like Gecko) Chrome/88.0.4324.146 Safari/537.36","v1-up-stims","","","","","","","","-80,-70,-60,-50,-40","media/audio/stims/spherical_300cm_s20_c20_cd-full_matched_a-70.wav","spherical","20","20","full","matched","-70","-80","1335"
"echo-presentation","107","938528","0.0-107.0","5d87a74208667b0001eff922","5fef55e628823a0076ec12ee","602014e36706505d336fc3c9","Mozilla/5.0 (Macintosh; Intel Mac OS X 10_15_4) AppleWebKit/537.36 (KHTML, like Gecko) Chrome/88.0.4324.146 Safari/537.36","v1-up-stims","","","","","","","","-80,-70,-60,-50,-40","media/audio/stims/spherical_300cm_s20_c20_cd-full_matched_a-60.wav","spherical","20","20","full","matched","-60","-70","1620"
"echo-presentation","108","940651","0.0-108.0","5d87a74208667b0001eff922","5fef55e628823a0076ec12ee","602014e36706505d336fc3c9","Mozilla/5.0 (Macintosh; Intel Mac OS X 10_15_4) AppleWebKit/537.36 (KHTML, like Gecko) Chrome/88.0.4324.146 Safari/537.36","v1-up-stims","","","","","","","","-80,-70,-60,-50,-40","media/audio/stims/spherical_300cm_s20_c20_cd-full_matched_a-70.wav","spherical","20","20","full","matched","-70","-70","1461"
"echo-presentation","109","942856","0.0-109.0","5d87a74208667b0001eff922","5fef55e628823a0076ec12ee","602014e36706505d336fc3c9","Mozilla/5.0 (Macintosh; Intel Mac OS X 10_15_4) AppleWebKit/537.36 (KHTML, like Gecko) Chrome/88.0.4324.146 Safari/537.36","v1-up-stims","","","","","","","","-80,-70,-60,-50,-40","media/audio/stims/spherical_300cm_s20_c20_cd-full_matched_a-50.wav","spherical","20","20","full","matched","-50","-80","1278"
"echo-presentation","110","945222","0.0-110.0","5d87a74208667b0001eff922","5fef55e628823a0076ec12ee","602014e36706505d336fc3c9","Mozilla/5.0 (Macintosh; Intel Mac OS X 10_15_4) AppleWebKit/537.36 (KHTML, like Gecko) Chrome/88.0.4324.146 Safari/537.36","v1-up-stims","","","","","","","","-80,-70,-60,-50,-40","media/audio/stims/spherical_300cm_s20_c20_cd-full_matched_a-40.wav","spherical","20","20","full","matched","-40","-80","1338"
"echo-presentation","111","950527","0.0-111.0","5d87a74208667b0001eff922","5fef55e628823a0076ec12ee","602014e36706505d336fc3c9","Mozilla/5.0 (Macintosh; Intel Mac OS X 10_15_4) AppleWebKit/537.36 (KHTML, like Gecko) Chrome/88.0.4324.146 Safari/537.36","v1-up-stims","","","","","","","","-80,-70,-60,-50,-40","media/audio/stims/spherical_300cm_s20_c20_cd-full_matched_a-60.wav","spherical","20","20","full","matched","-60","-80","2235"
"echo-presentation","112","953409","0.0-112.0","5d87a74208667b0001eff922","5fef55e628823a0076ec12ee","602014e36706505d336fc3c9","Mozilla/5.0 (Macintosh; Intel Mac OS X 10_15_4) AppleWebKit/537.36 (KHTML, like Gecko) Chrome/88.0.4324.146 Safari/537.36","v1-up-stims","","","","","","","","-80,-70,-60,-50,-40","media/audio/stims/spherical_300cm_s20_c20_cd-full_matched_a-80.wav","spherical","20","20","full","matched","-80","-70","1795"
"echo-presentation","113","955903","0.0-113.0","5d87a74208667b0001eff922","5fef55e628823a0076ec12ee","602014e36706505d336fc3c9","Mozilla/5.0 (Macintosh; Intel Mac OS X 10_15_4) AppleWebKit/537.36 (KHTML, like Gecko) Chrome/88.0.4324.146 Safari/537.36","v1-up-stims","","","","","","","","-80,-70,-60,-50,-40","media/audio/stims/spherical_300cm_s20_c20_cd-full_matched_a-40.wav","spherical","20","20","full","matched","-40","-70","1423"
"echo-presentation","114","958295","0.0-114.0","5d87a74208667b0001eff922","5fef55e628823a0076ec12ee","602014e36706505d336fc3c9","Mozilla/5.0 (Macintosh; Intel Mac OS X 10_15_4) AppleWebKit/537.36 (KHTML, like Gecko) Chrome/88.0.4324.146 Safari/537.36","v1-up-stims","","","","","","","","-80,-70,-60,-50,-40","media/audio/stims/spherical_300cm_s20_c20_cd-full_matched_a-40.wav","spherical","20","20","full","matched","-40","-70","1439"
"echo-presentation","115","961615","0.0-115.0","5d87a74208667b0001eff922","5fef55e628823a0076ec12ee","602014e36706505d336fc3c9","Mozilla/5.0 (Macintosh; Intel Mac OS X 10_15_4) AppleWebKit/537.36 (KHTML, like Gecko) Chrome/88.0.4324.146 Safari/537.36","v1-up-stims","","","","","","","","-80,-70,-60,-50,-40","media/audio/stims/spherical_300cm_s20_c20_cd-full_matched_a-70.wav","spherical","20","20","full","matched","-70","-70","1359"
"block-bookend","116","968825","0.0-116.0","5d87a74208667b0001eff922","5fef55e628823a0076ec12ee","602014e36706505d336fc3c9","Mozilla/5.0 (Macintosh; Intel Mac OS X 10_15_4) AppleWebKit/537.36 (KHTML, like Gecko) Chrome/88.0.4324.146 Safari/537.36","v1-up-stims","","","","","","","","","","","","","","","","",""
"block-bookend","117","981251","0.0-117.0","5d87a74208667b0001eff922","5fef55e628823a0076ec12ee","602014e36706505d336fc3c9","Mozilla/5.0 (Macintosh; Intel Mac OS X 10_15_4) AppleWebKit/537.36 (KHTML, like Gecko) Chrome/88.0.4324.146 Safari/537.36","v1-up-stims","","","","","","","","","","","","","","","","",""
"echo-presentation","118","986153","0.0-118.0","5d87a74208667b0001eff922","5fef55e628823a0076ec12ee","602014e36706505d336fc3c9","Mozilla/5.0 (Macintosh; Intel Mac OS X 10_15_4) AppleWebKit/537.36 (KHTML, like Gecko) Chrome/88.0.4324.146 Safari/537.36","v1-up-stims","","","","","","","","-80,-70,-60,-50,-40","media/audio/stims/spherical_300cm_s20_c20_cd-full_matched_a-60.wav","spherical","20","20","full","matched","-60","-60","3203"
"echo-presentation","119","990495","0.0-119.0","5d87a74208667b0001eff922","5fef55e628823a0076ec12ee","602014e36706505d336fc3c9","Mozilla/5.0 (Macintosh; Intel Mac OS X 10_15_4) AppleWebKit/537.36 (KHTML, like Gecko) Chrome/88.0.4324.146 Safari/537.36","v1-up-stims","","","","","","","","-80,-70,-60,-50,-40","media/audio/stims/spherical_300cm_s20_c20_cd-full_matched_a-80.wav","spherical","20","20","full","matched","-80","-70","3034"
"echo-presentation","120","992946","0.0-120.0","5d87a74208667b0001eff922","5fef55e628823a0076ec12ee","602014e36706505d336fc3c9","Mozilla/5.0 (Macintosh; Intel Mac OS X 10_15_4) AppleWebKit/537.36 (KHTML, like Gecko) Chrome/88.0.4324.146 Safari/537.36","v1-up-stims","","","","","","","","-80,-70,-60,-50,-40","media/audio/stims/spherical_300cm_s20_c20_cd-full_matched_a-50.wav","spherical","20","20","full","matched","-50","-70","1817"
"echo-presentation","121","997920","0.0-121.0","5d87a74208667b0001eff922","5fef55e628823a0076ec12ee","602014e36706505d336fc3c9","Mozilla/5.0 (Macintosh; Intel Mac OS X 10_15_4) AppleWebKit/537.36 (KHTML, like Gecko) Chrome/88.0.4324.146 Safari/537.36","v1-up-stims","","","","","","","","-80,-70,-60,-50,-40","media/audio/stims/spherical_300cm_s20_c20_cd-full_matched_a-80.wav","spherical","20","20","full","matched","-80","-70","3808"
"echo-presentation","122","1000904","0.0-122.0","5d87a74208667b0001eff922","5fef55e628823a0076ec12ee","602014e36706505d336fc3c9","Mozilla/5.0 (Macintosh; Intel Mac OS X 10_15_4) AppleWebKit/537.36 (KHTML, like Gecko) Chrome/88.0.4324.146 Safari/537.36","v1-up-stims","","","","","","","","-80,-70,-60,-50,-40","media/audio/stims/spherical_300cm_s20_c20_cd-full_matched_a-60.wav","spherical","20","20","full","matched","-60","-60","2020"
"echo-presentation","123","1003770","0.0-123.0","5d87a74208667b0001eff922","5fef55e628823a0076ec12ee","602014e36706505d336fc3c9","Mozilla/5.0 (Macintosh; Intel Mac OS X 10_15_4) AppleWebKit/537.36 (KHTML, like Gecko) Chrome/88.0.4324.146 Safari/537.36","v1-up-stims","","","","","","","","-80,-70,-60,-50,-40","media/audio/stims/spherical_300cm_s20_c20_cd-full_matched_a-80.wav","spherical","20","20","full","matched","-80","-60","1224"
"echo-presentation","124","1006003","0.0-124.0","5d87a74208667b0001eff922","5fef55e628823a0076ec12ee","602014e36706505d336fc3c9","Mozilla/5.0 (Macintosh; Intel Mac OS X 10_15_4) AppleWebKit/537.36 (KHTML, like Gecko) Chrome/88.0.4324.146 Safari/537.36","v1-up-stims","","","","","","","","-80,-70,-60,-50,-40","media/audio/stims/spherical_300cm_s20_c20_cd-full_matched_a-70.wav","spherical","20","20","full","matched","-70","-60","1225"
"echo-presentation","125","1009681","0.0-125.0","5d87a74208667b0001eff922","5fef55e628823a0076ec12ee","602014e36706505d336fc3c9","Mozilla/5.0 (Macintosh; Intel Mac OS X 10_15_4) AppleWebKit/537.36 (KHTML, like Gecko) Chrome/88.0.4324.146 Safari/537.36","v1-up-stims","","","","","","","","-80,-70,-60,-50,-40","media/audio/stims/spherical_300cm_s20_c20_cd-full_matched_a-50.wav","spherical","20","20","full","matched","-50","-60","2422"
"echo-presentation","126","1012305","0.0-126.0","5d87a74208667b0001eff922","5fef55e628823a0076ec12ee","602014e36706505d336fc3c9","Mozilla/5.0 (Macintosh; Intel Mac OS X 10_15_4) AppleWebKit/537.36 (KHTML, like Gecko) Chrome/88.0.4324.146 Safari/537.36","v1-up-stims","","","","","","","","-80,-70,-60,-50,-40","media/audio/stims/spherical_300cm_s20_c20_cd-full_matched_a-40.wav","spherical","20","20","full","matched","-40","-60","1651"
"echo-presentation","127","1015771","0.0-127.0","5d87a74208667b0001eff922","5fef55e628823a0076ec12ee","602014e36706505d336fc3c9","Mozilla/5.0 (Macintosh; Intel Mac OS X 10_15_4) AppleWebKit/537.36 (KHTML, like Gecko) Chrome/88.0.4324.146 Safari/537.36","v1-up-stims","","","","","","","","-80,-70,-60,-50,-40","media/audio/stims/spherical_300cm_s20_c20_cd-full_matched_a-60.wav","spherical","20","20","full","matched","-60","-60","2149"
"echo-presentation","128","1018761","0.0-128.0","5d87a74208667b0001eff922","5fef55e628823a0076ec12ee","602014e36706505d336fc3c9","Mozilla/5.0 (Macintosh; Intel Mac OS X 10_15_4) AppleWebKit/537.36 (KHTML, like Gecko) Chrome/88.0.4324.146 Safari/537.36","v1-up-stims","","","","","","","","-80,-70,-60,-50,-40","media/audio/stims/spherical_300cm_s20_c20_cd-full_matched_a-50.wav","spherical","20","20","full","matched","-50","-60","2006"
"echo-presentation","129","1025019","0.0-129.0","5d87a74208667b0001eff922","5fef55e628823a0076ec12ee","602014e36706505d336fc3c9","Mozilla/5.0 (Macintosh; Intel Mac OS X 10_15_4) AppleWebKit/537.36 (KHTML, like Gecko) Chrome/88.0.4324.146 Safari/537.36","v1-up-stims","","","","","","","","-80,-70,-60,-50,-40","media/audio/stims/spherical_300cm_s20_c20_cd-full_matched_a-70.wav","spherical","20","20","full","matched","-70","-60","4937"
"echo-presentation","130","1030620","0.0-130.0","5d87a74208667b0001eff922","5fef55e628823a0076ec12ee","602014e36706505d336fc3c9","Mozilla/5.0 (Macintosh; Intel Mac OS X 10_15_4) AppleWebKit/537.36 (KHTML, like Gecko) Chrome/88.0.4324.146 Safari/537.36","v1-up-stims","","","","","","","","-80,-70,-60,-50,-40","media/audio/stims/spherical_300cm_s20_c20_cd-full_matched_a-40.wav","spherical","20","20","full","matched","-40","-70","4369"
"echo-presentation","131","1033807","0.0-131.0","5d87a74208667b0001eff922","5fef55e628823a0076ec12ee","602014e36706505d336fc3c9","Mozilla/5.0 (Macintosh; Intel Mac OS X 10_15_4) AppleWebKit/537.36 (KHTML, like Gecko) Chrome/88.0.4324.146 Safari/537.36","v1-up-stims","","","","","","","","-80,-70,-60,-50,-40","media/audio/stims/spherical_300cm_s20_c20_cd-full_matched_a-40.wav","spherical","20","20","full","matched","-40","-70","2655"
"echo-presentation","132","1037446","0.0-132.0","5d87a74208667b0001eff922","5fef55e628823a0076ec12ee","602014e36706505d336fc3c9","Mozilla/5.0 (Macintosh; Intel Mac OS X 10_15_4) AppleWebKit/537.36 (KHTML, like Gecko) Chrome/88.0.4324.146 Safari/537.36","v1-up-stims","","","","","","","","-80,-70,-60,-50,-40","media/audio/stims/spherical_300cm_s20_c20_cd-full_matched_a-70.wav","spherical","20","20","full","matched","-70","-70","2197"
"echo-presentation","133","1040379","0.0-133.0","5d87a74208667b0001eff922","5fef55e628823a0076ec12ee","602014e36706505d336fc3c9","Mozilla/5.0 (Macintosh; Intel Mac OS X 10_15_4) AppleWebKit/537.36 (KHTML, like Gecko) Chrome/88.0.4324.146 Safari/537.36","v1-up-stims","","","","","","","","-80,-70,-60,-50,-40","media/audio/stims/spherical_300cm_s20_c20_cd-full_matched_a-80.wav","spherical","20","20","full","matched","-80","-80","1700"
"echo-presentation","134","1043334","0.0-134.0","5d87a74208667b0001eff922","5fef55e628823a0076ec12ee","602014e36706505d336fc3c9","Mozilla/5.0 (Macintosh; Intel Mac OS X 10_15_4) AppleWebKit/537.36 (KHTML, like Gecko) Chrome/88.0.4324.146 Safari/537.36","v1-up-stims","","","","","","","","-80,-70,-60,-50,-40","media/audio/stims/spherical_300cm_s20_c20_cd-full_matched_a-50.wav","spherical","20","20","full","matched","-50","-80","1821"
"echo-presentation","135","1046474","0.0-135.0","5d87a74208667b0001eff922","5fef55e628823a0076ec12ee","602014e36706505d336fc3c9","Mozilla/5.0 (Macintosh; Intel Mac OS X 10_15_4) AppleWebKit/537.36 (KHTML, like Gecko) Chrome/88.0.4324.146 Safari/537.36","v1-up-stims","","","","","","","","-80,-70,-60,-50,-40","media/audio/stims/spherical_300cm_s20_c20_cd-full_matched_a-40.wav","spherical","20","20","full","matched","-40","-70","1727"
"echo-presentation","136","1049015","0.0-136.0","5d87a74208667b0001eff922","5fef55e628823a0076ec12ee","602014e36706505d336fc3c9","Mozilla/5.0 (Macintosh; Intel Mac OS X 10_15_4) AppleWebKit/537.36 (KHTML, like Gecko) Chrome/88.0.4324.146 Safari/537.36","v1-up-stims","","","","","","","","-80,-70,-60,-50,-40","media/audio/stims/spherical_300cm_s20_c20_cd-full_matched_a-60.wav","spherical","20","20","full","matched","-60","-70","1432"
"echo-presentation","137","1051983","0.0-137.0","5d87a74208667b0001eff922","5fef55e628823a0076ec12ee","602014e36706505d336fc3c9","Mozilla/5.0 (Macintosh; Intel Mac OS X 10_15_4) AppleWebKit/537.36 (KHTML, like Gecko) Chrome/88.0.4324.146 Safari/537.36","v1-up-stims","","","","","","","","-80,-70,-60,-50,-40","media/audio/stims/spherical_300cm_s20_c20_cd-full_matched_a-70.wav","spherical","20","20","full","matched","-70","-70","1781"
"block-bookend","138","1055469","0.0-138.0","5d87a74208667b0001eff922","5fef55e628823a0076ec12ee","602014e36706505d336fc3c9","Mozilla/5.0 (Macintosh; Intel Mac OS X 10_15_4) AppleWebKit/537.36 (KHTML, like Gecko) Chrome/88.0.4324.146 Safari/537.36","v1-up-stims","","","","","","","","","","","","","","","","",""
