"trial_type","trial_index","time_elapsed","internal_node_id","prolificPid","studyId","sessionId","userAgent","version","rt","stimulus","key_press","chosenKeyset","failureCount","testIndex","globalVolume","choices","filename","modelName","slowdown","compensation","compensationDescriptor","receiverOrientationType","azimuth","responseAzimuth","responseDelay"
"pavlovia","0","7","0.0-0.0","5bc2e0ec4f3bfd00012e97b5","5fef55e628823a0076ec12ee","60201d3e8d79b25d46f14721","Mozilla/5.0 (Windows NT 10.0; Win64; x64) AppleWebKit/537.36 (KHTML, like Gecko) Chrome/86.0.4240.193 Safari/537.36","v1-up-stims","","","","","","","","","","","","","","","","",""
"html-keyboard-response","1","4939","0.0-1.0","5bc2e0ec4f3bfd00012e97b5","5fef55e628823a0076ec12ee","60201d3e8d79b25d46f14721","Mozilla/5.0 (Windows NT 10.0; Win64; x64) AppleWebKit/537.36 (KHTML, like Gecko) Chrome/86.0.4240.193 Safari/537.36","v1-up-stims","4929.974999977276","<div><h1>Welcome!</h1><p>Press any key to continue.</p></div>","13","","","","","","","","","","","","","",""
"consent-form","2","12725","0.0-2.0","5bc2e0ec4f3bfd00012e97b5","5fef55e628823a0076ec12ee","60201d3e8d79b25d46f14721","Mozilla/5.0 (Windows NT 10.0; Win64; x64) AppleWebKit/537.36 (KHTML, like Gecko) Chrome/86.0.4240.193 Safari/537.36","v1-up-stims","","","","","","","","","","","","","","","","",""
"keyset-select","3","15429","0.0-3.0","5bc2e0ec4f3bfd00012e97b5","5fef55e628823a0076ec12ee","60201d3e8d79b25d46f14721","Mozilla/5.0 (Windows NT 10.0; Win64; x64) AppleWebKit/537.36 (KHTML, like Gecko) Chrome/86.0.4240.193 Safari/537.36","v1-up-stims","","","","right-hand","","","","","","","","","","","","",""
"headphone-check","4","55449","0.0-4.0","5bc2e0ec4f3bfd00012e97b5","5fef55e628823a0076ec12ee","60201d3e8d79b25d46f14721","Mozilla/5.0 (Windows NT 10.0; Win64; x64) AppleWebKit/537.36 (KHTML, like Gecko) Chrome/86.0.4240.193 Safari/537.36","v1-up-stims","","","","","0","6","0.7","","","","","","","","","",""
"headphone-backwards-check","5","60590","0.0-5.0","5bc2e0ec4f3bfd00012e97b5","5fef55e628823a0076ec12ee","60201d3e8d79b25d46f14721","Mozilla/5.0 (Windows NT 10.0; Win64; x64) AppleWebKit/537.36 (KHTML, like Gecko) Chrome/86.0.4240.193 Safari/537.36","v1-up-stims","","","","","0","","","","","","","","","","","",""
"training","6","167655","0.0-6.0","5bc2e0ec4f3bfd00012e97b5","5fef55e628823a0076ec12ee","60201d3e8d79b25d46f14721","Mozilla/5.0 (Windows NT 10.0; Win64; x64) AppleWebKit/537.36 (KHTML, like Gecko) Chrome/86.0.4240.193 Safari/537.36","v1-up-stims","","","","","","","","","","","","","","","","",""
"block-bookend","7","185365","0.0-7.0","5bc2e0ec4f3bfd00012e97b5","5fef55e628823a0076ec12ee","60201d3e8d79b25d46f14721","Mozilla/5.0 (Windows NT 10.0; Win64; x64) AppleWebKit/537.36 (KHTML, like Gecko) Chrome/86.0.4240.193 Safari/537.36","v1-up-stims","","","","","","","","","","","","","","","","",""
"echo-presentation","8","195977","0.0-8.0","5bc2e0ec4f3bfd00012e97b5","5fef55e628823a0076ec12ee","60201d3e8d79b25d46f14721","Mozilla/5.0 (Windows NT 10.0; Win64; x64) AppleWebKit/537.36 (KHTML, like Gecko) Chrome/86.0.4240.193 Safari/537.36","v1-up-stims","","","","","","","","40,50,60,70,80","media/audio/stims/spherical_300cm_s20_c20_cd-full_matched_a50.wav","spherical","20","20","full","matched","50","40","7852"
"echo-presentation","9","206343","0.0-9.0","5bc2e0ec4f3bfd00012e97b5","5fef55e628823a0076ec12ee","60201d3e8d79b25d46f14721","Mozilla/5.0 (Windows NT 10.0; Win64; x64) AppleWebKit/537.36 (KHTML, like Gecko) Chrome/86.0.4240.193 Safari/537.36","v1-up-stims","","","","","","","","40,50,60,70,80","media/audio/stims/spherical_300cm_s20_c20_cd-full_matched_a40.wav","spherical","20","20","full","matched","40","70","8585"
"echo-presentation","10","212490","0.0-10.0","5bc2e0ec4f3bfd00012e97b5","5fef55e628823a0076ec12ee","60201d3e8d79b25d46f14721","Mozilla/5.0 (Windows NT 10.0; Win64; x64) AppleWebKit/537.36 (KHTML, like Gecko) Chrome/86.0.4240.193 Safari/537.36","v1-up-stims","","","","","","","","40,50,60,70,80","media/audio/stims/spherical_300cm_s20_c20_cd-full_matched_a60.wav","spherical","20","20","full","matched","60","70","3289"
"echo-presentation","11","216041","0.0-11.0","5bc2e0ec4f3bfd00012e97b5","5fef55e628823a0076ec12ee","60201d3e8d79b25d46f14721","Mozilla/5.0 (Windows NT 10.0; Win64; x64) AppleWebKit/537.36 (KHTML, like Gecko) Chrome/86.0.4240.193 Safari/537.36","v1-up-stims","","","","","","","","40,50,60,70,80","media/audio/stims/spherical_300cm_s20_c20_cd-full_matched_a80.wav","spherical","20","20","full","matched","80","70","2229"
"echo-presentation","12","219281","0.0-12.0","5bc2e0ec4f3bfd00012e97b5","5fef55e628823a0076ec12ee","60201d3e8d79b25d46f14721","Mozilla/5.0 (Windows NT 10.0; Win64; x64) AppleWebKit/537.36 (KHTML, like Gecko) Chrome/86.0.4240.193 Safari/537.36","v1-up-stims","","","","","","","","40,50,60,70,80","media/audio/stims/spherical_300cm_s20_c20_cd-full_matched_a50.wav","spherical","20","20","full","matched","50","70","1800"
"echo-presentation","13","223516","0.0-13.0","5bc2e0ec4f3bfd00012e97b5","5fef55e628823a0076ec12ee","60201d3e8d79b25d46f14721","Mozilla/5.0 (Windows NT 10.0; Win64; x64) AppleWebKit/537.36 (KHTML, like Gecko) Chrome/86.0.4240.193 Safari/537.36","v1-up-stims","","","","","","","","40,50,60,70,80","media/audio/stims/spherical_300cm_s20_c20_cd-full_matched_a60.wav","spherical","20","20","full","matched","60","60","2763"
"echo-presentation","14","226419","0.0-14.0","5bc2e0ec4f3bfd00012e97b5","5fef55e628823a0076ec12ee","60201d3e8d79b25d46f14721","Mozilla/5.0 (Windows NT 10.0; Win64; x64) AppleWebKit/537.36 (KHTML, like Gecko) Chrome/86.0.4240.193 Safari/537.36","v1-up-stims","","","","","","","","40,50,60,70,80","media/audio/stims/spherical_300cm_s20_c20_cd-full_matched_a70.wav","spherical","20","20","full","matched","70","60","1315"
"echo-presentation","15","229118","0.0-15.0","5bc2e0ec4f3bfd00012e97b5","5fef55e628823a0076ec12ee","60201d3e8d79b25d46f14721","Mozilla/5.0 (Windows NT 10.0; Win64; x64) AppleWebKit/537.36 (KHTML, like Gecko) Chrome/86.0.4240.193 Safari/537.36","v1-up-stims","","","","","","","","40,50,60,70,80","media/audio/stims/spherical_300cm_s20_c20_cd-full_matched_a80.wav","spherical","20","20","full","matched","80","60","1289"
"echo-presentation","16","234838","0.0-16.0","5bc2e0ec4f3bfd00012e97b5","5fef55e628823a0076ec12ee","60201d3e8d79b25d46f14721","Mozilla/5.0 (Windows NT 10.0; Win64; x64) AppleWebKit/537.36 (KHTML, like Gecko) Chrome/86.0.4240.193 Safari/537.36","v1-up-stims","","","","","","","","40,50,60,70,80","media/audio/stims/spherical_300cm_s20_c20_cd-full_matched_a50.wav","spherical","20","20","full","matched","50","70","3692"
"echo-presentation","17","237200","0.0-17.0","5bc2e0ec4f3bfd00012e97b5","5fef55e628823a0076ec12ee","60201d3e8d79b25d46f14721","Mozilla/5.0 (Windows NT 10.0; Win64; x64) AppleWebKit/537.36 (KHTML, like Gecko) Chrome/86.0.4240.193 Safari/537.36","v1-up-stims","","","","","","","","40,50,60,70,80","media/audio/stims/spherical_300cm_s20_c20_cd-full_matched_a80.wav","spherical","20","20","full","matched","80","70","1156"
"echo-presentation","18","240651","0.0-18.0","5bc2e0ec4f3bfd00012e97b5","5fef55e628823a0076ec12ee","60201d3e8d79b25d46f14721","Mozilla/5.0 (Windows NT 10.0; Win64; x64) AppleWebKit/537.36 (KHTML, like Gecko) Chrome/86.0.4240.193 Safari/537.36","v1-up-stims","","","","","","","","40,50,60,70,80","media/audio/stims/spherical_300cm_s20_c20_cd-full_matched_a70.wav","spherical","20","20","full","matched","70","70","1544"
"echo-presentation","19","243958","0.0-19.0","5bc2e0ec4f3bfd00012e97b5","5fef55e628823a0076ec12ee","60201d3e8d79b25d46f14721","Mozilla/5.0 (Windows NT 10.0; Win64; x64) AppleWebKit/537.36 (KHTML, like Gecko) Chrome/86.0.4240.193 Safari/537.36","v1-up-stims","","","","","","","","40,50,60,70,80","media/audio/stims/spherical_300cm_s20_c20_cd-full_matched_a40.wav","spherical","20","20","full","matched","40","70","1383"
"echo-presentation","20","248328","0.0-20.0","5bc2e0ec4f3bfd00012e97b5","5fef55e628823a0076ec12ee","60201d3e8d79b25d46f14721","Mozilla/5.0 (Windows NT 10.0; Win64; x64) AppleWebKit/537.36 (KHTML, like Gecko) Chrome/86.0.4240.193 Safari/537.36","v1-up-stims","","","","","","","","40,50,60,70,80","media/audio/stims/spherical_300cm_s20_c20_cd-full_matched_a50.wav","spherical","20","20","full","matched","50","70","2581"
"echo-presentation","21","253207","0.0-21.0","5bc2e0ec4f3bfd00012e97b5","5fef55e628823a0076ec12ee","60201d3e8d79b25d46f14721","Mozilla/5.0 (Windows NT 10.0; Win64; x64) AppleWebKit/537.36 (KHTML, like Gecko) Chrome/86.0.4240.193 Safari/537.36","v1-up-stims","","","","","","","","40,50,60,70,80","media/audio/stims/spherical_300cm_s20_c20_cd-full_matched_a70.wav","spherical","20","20","full","matched","70","60","3332"
"echo-presentation","22","260564","0.0-22.0","5bc2e0ec4f3bfd00012e97b5","5fef55e628823a0076ec12ee","60201d3e8d79b25d46f14721","Mozilla/5.0 (Windows NT 10.0; Win64; x64) AppleWebKit/537.36 (KHTML, like Gecko) Chrome/86.0.4240.193 Safari/537.36","v1-up-stims","","","","","","","","40,50,60,70,80","media/audio/stims/spherical_300cm_s20_c20_cd-full_matched_a40.wav","spherical","20","20","full","matched","40","70","5599"
"echo-presentation","23","264186","0.0-23.0","5bc2e0ec4f3bfd00012e97b5","5fef55e628823a0076ec12ee","60201d3e8d79b25d46f14721","Mozilla/5.0 (Windows NT 10.0; Win64; x64) AppleWebKit/537.36 (KHTML, like Gecko) Chrome/86.0.4240.193 Safari/537.36","v1-up-stims","","","","","","","","40,50,60,70,80","media/audio/stims/spherical_300cm_s20_c20_cd-full_matched_a60.wav","spherical","20","20","full","matched","60","60","2112"
"echo-presentation","24","266470","0.0-24.0","5bc2e0ec4f3bfd00012e97b5","5fef55e628823a0076ec12ee","60201d3e8d79b25d46f14721","Mozilla/5.0 (Windows NT 10.0; Win64; x64) AppleWebKit/537.36 (KHTML, like Gecko) Chrome/86.0.4240.193 Safari/537.36","v1-up-stims","","","","","","","","40,50,60,70,80","media/audio/stims/spherical_300cm_s20_c20_cd-full_matched_a70.wav","spherical","20","20","full","matched","70","60","1170"
"echo-presentation","25","269146","0.0-25.0","5bc2e0ec4f3bfd00012e97b5","5fef55e628823a0076ec12ee","60201d3e8d79b25d46f14721","Mozilla/5.0 (Windows NT 10.0; Win64; x64) AppleWebKit/537.36 (KHTML, like Gecko) Chrome/86.0.4240.193 Safari/537.36","v1-up-stims","","","","","","","","40,50,60,70,80","media/audio/stims/spherical_300cm_s20_c20_cd-full_matched_a40.wav","spherical","20","20","full","matched","40","60","1166"
"echo-presentation","26","271540","0.0-26.0","5bc2e0ec4f3bfd00012e97b5","5fef55e628823a0076ec12ee","60201d3e8d79b25d46f14721","Mozilla/5.0 (Windows NT 10.0; Win64; x64) AppleWebKit/537.36 (KHTML, like Gecko) Chrome/86.0.4240.193 Safari/537.36","v1-up-stims","","","","","","","","40,50,60,70,80","media/audio/stims/spherical_300cm_s20_c20_cd-full_matched_a80.wav","spherical","20","20","full","matched","80","60","1246"
"echo-presentation","27","274173","0.0-27.0","5bc2e0ec4f3bfd00012e97b5","5fef55e628823a0076ec12ee","60201d3e8d79b25d46f14721","Mozilla/5.0 (Windows NT 10.0; Win64; x64) AppleWebKit/537.36 (KHTML, like Gecko) Chrome/86.0.4240.193 Safari/537.36","v1-up-stims","","","","","","","","40,50,60,70,80","media/audio/stims/spherical_300cm_s20_c20_cd-full_matched_a60.wav","spherical","20","20","full","matched","60","60","1211"
"block-bookend","28","279020","0.0-28.0","5bc2e0ec4f3bfd00012e97b5","5fef55e628823a0076ec12ee","60201d3e8d79b25d46f14721","Mozilla/5.0 (Windows NT 10.0; Win64; x64) AppleWebKit/537.36 (KHTML, like Gecko) Chrome/86.0.4240.193 Safari/537.36","v1-up-stims","","","","","","","","","","","","","","","","",""
"block-bookend","29","292833","0.0-29.0","5bc2e0ec4f3bfd00012e97b5","5fef55e628823a0076ec12ee","60201d3e8d79b25d46f14721","Mozilla/5.0 (Windows NT 10.0; Win64; x64) AppleWebKit/537.36 (KHTML, like Gecko) Chrome/86.0.4240.193 Safari/537.36","v1-up-stims","","","","","","","","","","","","","","","","",""
"echo-presentation","30","297732","0.0-30.0","5bc2e0ec4f3bfd00012e97b5","5fef55e628823a0076ec12ee","60201d3e8d79b25d46f14721","Mozilla/5.0 (Windows NT 10.0; Win64; x64) AppleWebKit/537.36 (KHTML, like Gecko) Chrome/86.0.4240.193 Safari/537.36","v1-up-stims","","","","","","","","40,50,60,70,80","media/audio/stims/spherical_300cm_s20_c20_cd-full_matched_a70.wav","spherical","20","20","full","matched","70","60","1399"
"echo-presentation","31","300912","0.0-31.0","5bc2e0ec4f3bfd00012e97b5","5fef55e628823a0076ec12ee","60201d3e8d79b25d46f14721","Mozilla/5.0 (Windows NT 10.0; Win64; x64) AppleWebKit/537.36 (KHTML, like Gecko) Chrome/86.0.4240.193 Safari/537.36","v1-up-stims","","","","","","","","40,50,60,70,80","media/audio/stims/spherical_300cm_s20_c20_cd-full_matched_a40.wav","spherical","20","20","full","matched","40","50","1803"
"echo-presentation","32","303752","0.0-32.0","5bc2e0ec4f3bfd00012e97b5","5fef55e628823a0076ec12ee","60201d3e8d79b25d46f14721","Mozilla/5.0 (Windows NT 10.0; Win64; x64) AppleWebKit/537.36 (KHTML, like Gecko) Chrome/86.0.4240.193 Safari/537.36","v1-up-stims","","","","","","","","40,50,60,70,80","media/audio/stims/spherical_300cm_s20_c20_cd-full_matched_a60.wav","spherical","20","20","full","matched","60","60","1525"
"echo-presentation","33","307386","0.0-33.0","5bc2e0ec4f3bfd00012e97b5","5fef55e628823a0076ec12ee","60201d3e8d79b25d46f14721","Mozilla/5.0 (Windows NT 10.0; Win64; x64) AppleWebKit/537.36 (KHTML, like Gecko) Chrome/86.0.4240.193 Safari/537.36","v1-up-stims","","","","","","","","40,50,60,70,80","media/audio/stims/spherical_300cm_s20_c20_cd-full_matched_a60.wav","spherical","20","20","full","matched","60","60","2385"
"echo-presentation","34","310114","0.0-34.0","5bc2e0ec4f3bfd00012e97b5","5fef55e628823a0076ec12ee","60201d3e8d79b25d46f14721","Mozilla/5.0 (Windows NT 10.0; Win64; x64) AppleWebKit/537.36 (KHTML, like Gecko) Chrome/86.0.4240.193 Safari/537.36","v1-up-stims","","","","","","","","40,50,60,70,80","media/audio/stims/spherical_300cm_s20_c20_cd-full_matched_a70.wav","spherical","20","20","full","matched","70","60","1411"
"echo-presentation","35","312405","0.0-35.0","5bc2e0ec4f3bfd00012e97b5","5fef55e628823a0076ec12ee","60201d3e8d79b25d46f14721","Mozilla/5.0 (Windows NT 10.0; Win64; x64) AppleWebKit/537.36 (KHTML, like Gecko) Chrome/86.0.4240.193 Safari/537.36","v1-up-stims","","","","","","","","40,50,60,70,80","media/audio/stims/spherical_300cm_s20_c20_cd-full_matched_a70.wav","spherical","20","20","full","matched","70","60","1193"
"echo-presentation","36","316201","0.0-36.0","5bc2e0ec4f3bfd00012e97b5","5fef55e628823a0076ec12ee","60201d3e8d79b25d46f14721","Mozilla/5.0 (Windows NT 10.0; Win64; x64) AppleWebKit/537.36 (KHTML, like Gecko) Chrome/86.0.4240.193 Safari/537.36","v1-up-stims","","","","","","","","40,50,60,70,80","media/audio/stims/spherical_300cm_s20_c20_cd-full_matched_a80.wav","spherical","20","20","full","matched","80","60","1616"
"echo-presentation","37","318843","0.0-37.0","5bc2e0ec4f3bfd00012e97b5","5fef55e628823a0076ec12ee","60201d3e8d79b25d46f14721","Mozilla/5.0 (Windows NT 10.0; Win64; x64) AppleWebKit/537.36 (KHTML, like Gecko) Chrome/86.0.4240.193 Safari/537.36","v1-up-stims","","","","","","","","40,50,60,70,80","media/audio/stims/spherical_300cm_s20_c20_cd-full_matched_a60.wav","spherical","20","20","full","matched","60","60","1091"
"echo-presentation","38","322858","0.0-38.0","5bc2e0ec4f3bfd00012e97b5","5fef55e628823a0076ec12ee","60201d3e8d79b25d46f14721","Mozilla/5.0 (Windows NT 10.0; Win64; x64) AppleWebKit/537.36 (KHTML, like Gecko) Chrome/86.0.4240.193 Safari/537.36","v1-up-stims","","","","","","","","40,50,60,70,80","media/audio/stims/spherical_300cm_s20_c20_cd-full_matched_a70.wav","spherical","20","20","full","matched","70","60","2541"
"echo-presentation","39","325345","0.0-39.0","5bc2e0ec4f3bfd00012e97b5","5fef55e628823a0076ec12ee","60201d3e8d79b25d46f14721","Mozilla/5.0 (Windows NT 10.0; Win64; x64) AppleWebKit/537.36 (KHTML, like Gecko) Chrome/86.0.4240.193 Safari/537.36","v1-up-stims","","","","","","","","40,50,60,70,80","media/audio/stims/spherical_300cm_s20_c20_cd-full_matched_a40.wav","spherical","20","20","full","matched","40","70","1427"
"echo-presentation","40","327979","0.0-40.0","5bc2e0ec4f3bfd00012e97b5","5fef55e628823a0076ec12ee","60201d3e8d79b25d46f14721","Mozilla/5.0 (Windows NT 10.0; Win64; x64) AppleWebKit/537.36 (KHTML, like Gecko) Chrome/86.0.4240.193 Safari/537.36","v1-up-stims","","","","","","","","40,50,60,70,80","media/audio/stims/spherical_300cm_s20_c20_cd-full_matched_a60.wav","spherical","20","20","full","matched","60","70","1394"
"echo-presentation","41","330385","0.0-41.0","5bc2e0ec4f3bfd00012e97b5","5fef55e628823a0076ec12ee","60201d3e8d79b25d46f14721","Mozilla/5.0 (Windows NT 10.0; Win64; x64) AppleWebKit/537.36 (KHTML, like Gecko) Chrome/86.0.4240.193 Safari/537.36","v1-up-stims","","","","","","","","40,50,60,70,80","media/audio/stims/spherical_300cm_s20_c20_cd-full_matched_a50.wav","spherical","20","20","full","matched","50","70","1196"
"echo-presentation","42","333068","0.0-42.0","5bc2e0ec4f3bfd00012e97b5","5fef55e628823a0076ec12ee","60201d3e8d79b25d46f14721","Mozilla/5.0 (Windows NT 10.0; Win64; x64) AppleWebKit/537.36 (KHTML, like Gecko) Chrome/86.0.4240.193 Safari/537.36","v1-up-stims","","","","","","","","40,50,60,70,80","media/audio/stims/spherical_300cm_s20_c20_cd-full_matched_a80.wav","spherical","20","20","full","matched","80","70","1175"
"echo-presentation","43","336066","0.0-43.0","5bc2e0ec4f3bfd00012e97b5","5fef55e628823a0076ec12ee","60201d3e8d79b25d46f14721","Mozilla/5.0 (Windows NT 10.0; Win64; x64) AppleWebKit/537.36 (KHTML, like Gecko) Chrome/86.0.4240.193 Safari/537.36","v1-up-stims","","","","","","","","40,50,60,70,80","media/audio/stims/spherical_300cm_s20_c20_cd-full_matched_a80.wav","spherical","20","20","full","matched","80","70","1421"
"echo-presentation","44","338534","0.0-44.0","5bc2e0ec4f3bfd00012e97b5","5fef55e628823a0076ec12ee","60201d3e8d79b25d46f14721","Mozilla/5.0 (Windows NT 10.0; Win64; x64) AppleWebKit/537.36 (KHTML, like Gecko) Chrome/86.0.4240.193 Safari/537.36","v1-up-stims","","","","","","","","40,50,60,70,80","media/audio/stims/spherical_300cm_s20_c20_cd-full_matched_a50.wav","spherical","20","20","full","matched","50","70","1180"
"echo-presentation","45","342621","0.0-45.0","5bc2e0ec4f3bfd00012e97b5","5fef55e628823a0076ec12ee","60201d3e8d79b25d46f14721","Mozilla/5.0 (Windows NT 10.0; Win64; x64) AppleWebKit/537.36 (KHTML, like Gecko) Chrome/86.0.4240.193 Safari/537.36","v1-up-stims","","","","","","","","40,50,60,70,80","media/audio/stims/spherical_300cm_s20_c20_cd-full_matched_a80.wav","spherical","20","20","full","matched","80","60","2960"
"echo-presentation","46","345158","0.0-46.0","5bc2e0ec4f3bfd00012e97b5","5fef55e628823a0076ec12ee","60201d3e8d79b25d46f14721","Mozilla/5.0 (Windows NT 10.0; Win64; x64) AppleWebKit/537.36 (KHTML, like Gecko) Chrome/86.0.4240.193 Safari/537.36","v1-up-stims","","","","","","","","40,50,60,70,80","media/audio/stims/spherical_300cm_s20_c20_cd-full_matched_a40.wav","spherical","20","20","full","matched","40","60","1512"
"echo-presentation","47","347438","0.0-47.0","5bc2e0ec4f3bfd00012e97b5","5fef55e628823a0076ec12ee","60201d3e8d79b25d46f14721","Mozilla/5.0 (Windows NT 10.0; Win64; x64) AppleWebKit/537.36 (KHTML, like Gecko) Chrome/86.0.4240.193 Safari/537.36","v1-up-stims","","","","","","","","40,50,60,70,80","media/audio/stims/spherical_300cm_s20_c20_cd-full_matched_a50.wav","spherical","20","20","full","matched","50","60","1253"
"echo-presentation","48","349556","0.0-48.0","5bc2e0ec4f3bfd00012e97b5","5fef55e628823a0076ec12ee","60201d3e8d79b25d46f14721","Mozilla/5.0 (Windows NT 10.0; Win64; x64) AppleWebKit/537.36 (KHTML, like Gecko) Chrome/86.0.4240.193 Safari/537.36","v1-up-stims","","","","","","","","40,50,60,70,80","media/audio/stims/spherical_300cm_s20_c20_cd-full_matched_a40.wav","spherical","20","20","full","matched","40","60","1120"
"echo-presentation","49","352093","0.0-49.0","5bc2e0ec4f3bfd00012e97b5","5fef55e628823a0076ec12ee","60201d3e8d79b25d46f14721","Mozilla/5.0 (Windows NT 10.0; Win64; x64) AppleWebKit/537.36 (KHTML, like Gecko) Chrome/86.0.4240.193 Safari/537.36","v1-up-stims","","","","","","","","40,50,60,70,80","media/audio/stims/spherical_300cm_s20_c20_cd-full_matched_a50.wav","spherical","20","20","full","matched","50","60","1269"
"block-bookend","50","356145","0.0-50.0","5bc2e0ec4f3bfd00012e97b5","5fef55e628823a0076ec12ee","60201d3e8d79b25d46f14721","Mozilla/5.0 (Windows NT 10.0; Win64; x64) AppleWebKit/537.36 (KHTML, like Gecko) Chrome/86.0.4240.193 Safari/537.36","v1-up-stims","","","","","","","","","","","","","","","","",""
"block-bookend","51","365815","0.0-51.0","5bc2e0ec4f3bfd00012e97b5","5fef55e628823a0076ec12ee","60201d3e8d79b25d46f14721","Mozilla/5.0 (Windows NT 10.0; Win64; x64) AppleWebKit/537.36 (KHTML, like Gecko) Chrome/86.0.4240.193 Safari/537.36","v1-up-stims","","","","","","","","","","","","","","","","",""
"echo-presentation","52","369339","0.0-52.0","5bc2e0ec4f3bfd00012e97b5","5fef55e628823a0076ec12ee","60201d3e8d79b25d46f14721","Mozilla/5.0 (Windows NT 10.0; Win64; x64) AppleWebKit/537.36 (KHTML, like Gecko) Chrome/86.0.4240.193 Safari/537.36","v1-up-stims","","","","","","","","-20,-10,0,10,20","media/audio/stims/spherical_300cm_s20_c20_cd-full_matched_a0.wav","spherical","20","20","full","matched","0","-10","1162"
"echo-presentation","53","373768","0.0-53.0","5bc2e0ec4f3bfd00012e97b5","5fef55e628823a0076ec12ee","60201d3e8d79b25d46f14721","Mozilla/5.0 (Windows NT 10.0; Win64; x64) AppleWebKit/537.36 (KHTML, like Gecko) Chrome/86.0.4240.193 Safari/537.36","v1-up-stims","","","","","","","","-20,-10,0,10,20","media/audio/stims/spherical_300cm_s20_c20_cd-full_matched_a20.wav","spherical","20","20","full","matched","20","-10","2957"
"echo-presentation","54","377068","0.0-54.0","5bc2e0ec4f3bfd00012e97b5","5fef55e628823a0076ec12ee","60201d3e8d79b25d46f14721","Mozilla/5.0 (Windows NT 10.0; Win64; x64) AppleWebKit/537.36 (KHTML, like Gecko) Chrome/86.0.4240.193 Safari/537.36","v1-up-stims","","","","","","","","-20,-10,0,10,20","media/audio/stims/spherical_300cm_s20_c20_cd-full_matched_a-10.wav","spherical","20","20","full","matched","-10","-10","2129"
"echo-presentation","55","380119","0.0-55.0","5bc2e0ec4f3bfd00012e97b5","5fef55e628823a0076ec12ee","60201d3e8d79b25d46f14721","Mozilla/5.0 (Windows NT 10.0; Win64; x64) AppleWebKit/537.36 (KHTML, like Gecko) Chrome/86.0.4240.193 Safari/537.36","v1-up-stims","","","","","","","","-20,-10,0,10,20","media/audio/stims/spherical_300cm_s20_c20_cd-full_matched_a0.wav","spherical","20","20","full","matched","0","0","2266"
"echo-presentation","56","382712","0.0-56.0","5bc2e0ec4f3bfd00012e97b5","5fef55e628823a0076ec12ee","60201d3e8d79b25d46f14721","Mozilla/5.0 (Windows NT 10.0; Win64; x64) AppleWebKit/537.36 (KHTML, like Gecko) Chrome/86.0.4240.193 Safari/537.36","v1-up-stims","","","","","","","","-20,-10,0,10,20","media/audio/stims/spherical_300cm_s20_c20_cd-full_matched_a0.wav","spherical","20","20","full","matched","0","0","1618"
"echo-presentation","57","384555","0.0-57.0","5bc2e0ec4f3bfd00012e97b5","5fef55e628823a0076ec12ee","60201d3e8d79b25d46f14721","Mozilla/5.0 (Windows NT 10.0; Win64; x64) AppleWebKit/537.36 (KHTML, like Gecko) Chrome/86.0.4240.193 Safari/537.36","v1-up-stims","","","","","","","","-20,-10,0,10,20","media/audio/stims/spherical_300cm_s20_c20_cd-full_matched_a-20.wav","spherical","20","20","full","matched","-20","0","1172"
"echo-presentation","58","387773","0.0-58.0","5bc2e0ec4f3bfd00012e97b5","5fef55e628823a0076ec12ee","60201d3e8d79b25d46f14721","Mozilla/5.0 (Windows NT 10.0; Win64; x64) AppleWebKit/537.36 (KHTML, like Gecko) Chrome/86.0.4240.193 Safari/537.36","v1-up-stims","","","","","","","","-20,-10,0,10,20","media/audio/stims/spherical_300cm_s20_c20_cd-full_matched_a10.wav","spherical","20","20","full","matched","10","0","1301"
"echo-presentation","59","390991","0.0-59.0","5bc2e0ec4f3bfd00012e97b5","5fef55e628823a0076ec12ee","60201d3e8d79b25d46f14721","Mozilla/5.0 (Windows NT 10.0; Win64; x64) AppleWebKit/537.36 (KHTML, like Gecko) Chrome/86.0.4240.193 Safari/537.36","v1-up-stims","","","","","","","","-20,-10,0,10,20","media/audio/stims/spherical_300cm_s20_c20_cd-full_matched_a-10.wav","spherical","20","20","full","matched","-10","0","1569"
"echo-presentation","60","393547","0.0-60.0","5bc2e0ec4f3bfd00012e97b5","5fef55e628823a0076ec12ee","60201d3e8d79b25d46f14721","Mozilla/5.0 (Windows NT 10.0; Win64; x64) AppleWebKit/537.36 (KHTML, like Gecko) Chrome/86.0.4240.193 Safari/537.36","v1-up-stims","","","","","","","","-20,-10,0,10,20","media/audio/stims/spherical_300cm_s20_c20_cd-full_matched_a-20.wav","spherical","20","20","full","matched","-20","0","1286"
"echo-presentation","61","396043","0.0-61.0","5bc2e0ec4f3bfd00012e97b5","5fef55e628823a0076ec12ee","60201d3e8d79b25d46f14721","Mozilla/5.0 (Windows NT 10.0; Win64; x64) AppleWebKit/537.36 (KHTML, like Gecko) Chrome/86.0.4240.193 Safari/537.36","v1-up-stims","","","","","","","","-20,-10,0,10,20","media/audio/stims/spherical_300cm_s20_c20_cd-full_matched_a20.wav","spherical","20","20","full","matched","20","0","1152"
"echo-presentation","62","398422","0.0-62.0","5bc2e0ec4f3bfd00012e97b5","5fef55e628823a0076ec12ee","60201d3e8d79b25d46f14721","Mozilla/5.0 (Windows NT 10.0; Win64; x64) AppleWebKit/537.36 (KHTML, like Gecko) Chrome/86.0.4240.193 Safari/537.36","v1-up-stims","","","","","","","","-20,-10,0,10,20","media/audio/stims/spherical_300cm_s20_c20_cd-full_matched_a-20.wav","spherical","20","20","full","matched","-20","0","1134"
"echo-presentation","63","400978","0.0-63.0","5bc2e0ec4f3bfd00012e97b5","5fef55e628823a0076ec12ee","60201d3e8d79b25d46f14721","Mozilla/5.0 (Windows NT 10.0; Win64; x64) AppleWebKit/537.36 (KHTML, like Gecko) Chrome/86.0.4240.193 Safari/537.36","v1-up-stims","","","","","","","","-20,-10,0,10,20","media/audio/stims/spherical_300cm_s20_c20_cd-full_matched_a20.wav","spherical","20","20","full","matched","20","0","1207"
"echo-presentation","64","403101","0.0-64.0","5bc2e0ec4f3bfd00012e97b5","5fef55e628823a0076ec12ee","60201d3e8d79b25d46f14721","Mozilla/5.0 (Windows NT 10.0; Win64; x64) AppleWebKit/537.36 (KHTML, like Gecko) Chrome/86.0.4240.193 Safari/537.36","v1-up-stims","","","","","","","","-20,-10,0,10,20","media/audio/stims/spherical_300cm_s20_c20_cd-full_matched_a10.wav","spherical","20","20","full","matched","10","0","977"
"echo-presentation","65","405075","0.0-65.0","5bc2e0ec4f3bfd00012e97b5","5fef55e628823a0076ec12ee","60201d3e8d79b25d46f14721","Mozilla/5.0 (Windows NT 10.0; Win64; x64) AppleWebKit/537.36 (KHTML, like Gecko) Chrome/86.0.4240.193 Safari/537.36","v1-up-stims","","","","","","","","-20,-10,0,10,20","media/audio/stims/spherical_300cm_s20_c20_cd-full_matched_a-10.wav","spherical","20","20","full","matched","-10","0","952"
"echo-presentation","66","407310","0.0-66.0","5bc2e0ec4f3bfd00012e97b5","5fef55e628823a0076ec12ee","60201d3e8d79b25d46f14721","Mozilla/5.0 (Windows NT 10.0; Win64; x64) AppleWebKit/537.36 (KHTML, like Gecko) Chrome/86.0.4240.193 Safari/537.36","v1-up-stims","","","","","","","","-20,-10,0,10,20","media/audio/stims/spherical_300cm_s20_c20_cd-full_matched_a-10.wav","spherical","20","20","full","matched","-10","0","1070"
"echo-presentation","67","409446","0.0-67.0","5bc2e0ec4f3bfd00012e97b5","5fef55e628823a0076ec12ee","60201d3e8d79b25d46f14721","Mozilla/5.0 (Windows NT 10.0; Win64; x64) AppleWebKit/537.36 (KHTML, like Gecko) Chrome/86.0.4240.193 Safari/537.36","v1-up-stims","","","","","","","","-20,-10,0,10,20","media/audio/stims/spherical_300cm_s20_c20_cd-full_matched_a20.wav","spherical","20","20","full","matched","20","0","1114"
"echo-presentation","68","412033","0.0-68.0","5bc2e0ec4f3bfd00012e97b5","5fef55e628823a0076ec12ee","60201d3e8d79b25d46f14721","Mozilla/5.0 (Windows NT 10.0; Win64; x64) AppleWebKit/537.36 (KHTML, like Gecko) Chrome/86.0.4240.193 Safari/537.36","v1-up-stims","","","","","","","","-20,-10,0,10,20","media/audio/stims/spherical_300cm_s20_c20_cd-full_matched_a0.wav","spherical","20","20","full","matched","0","0","1164"
"echo-presentation","69","414968","0.0-69.0","5bc2e0ec4f3bfd00012e97b5","5fef55e628823a0076ec12ee","60201d3e8d79b25d46f14721","Mozilla/5.0 (Windows NT 10.0; Win64; x64) AppleWebKit/537.36 (KHTML, like Gecko) Chrome/86.0.4240.193 Safari/537.36","v1-up-stims","","","","","","","","-20,-10,0,10,20","media/audio/stims/spherical_300cm_s20_c20_cd-full_matched_a-20.wav","spherical","20","20","full","matched","-20","0","1222"
"echo-presentation","70","417465","0.0-70.0","5bc2e0ec4f3bfd00012e97b5","5fef55e628823a0076ec12ee","60201d3e8d79b25d46f14721","Mozilla/5.0 (Windows NT 10.0; Win64; x64) AppleWebKit/537.36 (KHTML, like Gecko) Chrome/86.0.4240.193 Safari/537.36","v1-up-stims","","","","","","","","-20,-10,0,10,20","media/audio/stims/spherical_300cm_s20_c20_cd-full_matched_a10.wav","spherical","20","20","full","matched","10","0","1381"
"echo-presentation","71","419620","0.0-71.0","5bc2e0ec4f3bfd00012e97b5","5fef55e628823a0076ec12ee","60201d3e8d79b25d46f14721","Mozilla/5.0 (Windows NT 10.0; Win64; x64) AppleWebKit/537.36 (KHTML, like Gecko) Chrome/86.0.4240.193 Safari/537.36","v1-up-stims","","","","","","","","-20,-10,0,10,20","media/audio/stims/spherical_300cm_s20_c20_cd-full_matched_a10.wav","spherical","20","20","full","matched","10","0","1161"
"block-bookend","72","421914","0.0-72.0","5bc2e0ec4f3bfd00012e97b5","5fef55e628823a0076ec12ee","60201d3e8d79b25d46f14721","Mozilla/5.0 (Windows NT 10.0; Win64; x64) AppleWebKit/537.36 (KHTML, like Gecko) Chrome/86.0.4240.193 Safari/537.36","v1-up-stims","","","","","","","","","","","","","","","","",""
"block-bookend","73","430339","0.0-73.0","5bc2e0ec4f3bfd00012e97b5","5fef55e628823a0076ec12ee","60201d3e8d79b25d46f14721","Mozilla/5.0 (Windows NT 10.0; Win64; x64) AppleWebKit/537.36 (KHTML, like Gecko) Chrome/86.0.4240.193 Safari/537.36","v1-up-stims","","","","","","","","","","","","","","","","",""
"echo-presentation","74","433677","0.0-74.0","5bc2e0ec4f3bfd00012e97b5","5fef55e628823a0076ec12ee","60201d3e8d79b25d46f14721","Mozilla/5.0 (Windows NT 10.0; Win64; x64) AppleWebKit/537.36 (KHTML, like Gecko) Chrome/86.0.4240.193 Safari/537.36","v1-up-stims","","","","","","","","-20,-10,0,10,20","media/audio/stims/spherical_300cm_s20_c20_cd-full_matched_a-10.wav","spherical","20","20","full","matched","-10","0","1143"
"echo-presentation","75","435403","0.0-75.0","5bc2e0ec4f3bfd00012e97b5","5fef55e628823a0076ec12ee","60201d3e8d79b25d46f14721","Mozilla/5.0 (Windows NT 10.0; Win64; x64) AppleWebKit/537.36 (KHTML, like Gecko) Chrome/86.0.4240.193 Safari/537.36","v1-up-stims","","","","","","","","-20,-10,0,10,20","media/audio/stims/spherical_300cm_s20_c20_cd-full_matched_a-20.wav","spherical","20","20","full","matched","-20","0","1028"
"echo-presentation","76","437551","0.0-76.0","5bc2e0ec4f3bfd00012e97b5","5fef55e628823a0076ec12ee","60201d3e8d79b25d46f14721","Mozilla/5.0 (Windows NT 10.0; Win64; x64) AppleWebKit/537.36 (KHTML, like Gecko) Chrome/86.0.4240.193 Safari/537.36","v1-up-stims","","","","","","","","-20,-10,0,10,20","media/audio/stims/spherical_300cm_s20_c20_cd-full_matched_a10.wav","spherical","20","20","full","matched","10","0","1210"
"echo-presentation","77","439947","0.0-77.0","5bc2e0ec4f3bfd00012e97b5","5fef55e628823a0076ec12ee","60201d3e8d79b25d46f14721","Mozilla/5.0 (Windows NT 10.0; Win64; x64) AppleWebKit/537.36 (KHTML, like Gecko) Chrome/86.0.4240.193 Safari/537.36","v1-up-stims","","","","","","","","-20,-10,0,10,20","media/audio/stims/spherical_300cm_s20_c20_cd-full_matched_a10.wav","spherical","20","20","full","matched","10","0","1228"
"echo-presentation","78","442581","0.0-78.0","5bc2e0ec4f3bfd00012e97b5","5fef55e628823a0076ec12ee","60201d3e8d79b25d46f14721","Mozilla/5.0 (Windows NT 10.0; Win64; x64) AppleWebKit/537.36 (KHTML, like Gecko) Chrome/86.0.4240.193 Safari/537.36","v1-up-stims","","","","","","","","-20,-10,0,10,20","media/audio/stims/spherical_300cm_s20_c20_cd-full_matched_a-20.wav","spherical","20","20","full","matched","-20","0","1691"
"echo-presentation","79","445032","0.0-79.0","5bc2e0ec4f3bfd00012e97b5","5fef55e628823a0076ec12ee","60201d3e8d79b25d46f14721","Mozilla/5.0 (Windows NT 10.0; Win64; x64) AppleWebKit/537.36 (KHTML, like Gecko) Chrome/86.0.4240.193 Safari/537.36","v1-up-stims","","","","","","","","-20,-10,0,10,20","media/audio/stims/spherical_300cm_s20_c20_cd-full_matched_a0.wav","spherical","20","20","full","matched","0","0","1148"
"echo-presentation","80","447243","0.0-80.0","5bc2e0ec4f3bfd00012e97b5","5fef55e628823a0076ec12ee","60201d3e8d79b25d46f14721","Mozilla/5.0 (Windows NT 10.0; Win64; x64) AppleWebKit/537.36 (KHTML, like Gecko) Chrome/86.0.4240.193 Safari/537.36","v1-up-stims","","","","","","","","-20,-10,0,10,20","media/audio/stims/spherical_300cm_s20_c20_cd-full_matched_a0.wav","spherical","20","20","full","matched","0","0","1074"
"echo-presentation","81","449818","0.0-81.0","5bc2e0ec4f3bfd00012e97b5","5fef55e628823a0076ec12ee","60201d3e8d79b25d46f14721","Mozilla/5.0 (Windows NT 10.0; Win64; x64) AppleWebKit/537.36 (KHTML, like Gecko) Chrome/86.0.4240.193 Safari/537.36","v1-up-stims","","","","","","","","-20,-10,0,10,20","media/audio/stims/spherical_300cm_s20_c20_cd-full_matched_a-10.wav","spherical","20","20","full","matched","-10","0","1533"
"echo-presentation","82","452318","0.0-82.0","5bc2e0ec4f3bfd00012e97b5","5fef55e628823a0076ec12ee","60201d3e8d79b25d46f14721","Mozilla/5.0 (Windows NT 10.0; Win64; x64) AppleWebKit/537.36 (KHTML, like Gecko) Chrome/86.0.4240.193 Safari/537.36","v1-up-stims","","","","","","","","-20,-10,0,10,20","media/audio/stims/spherical_300cm_s20_c20_cd-full_matched_a-20.wav","spherical","20","20","full","matched","-20","0","1822"
"echo-presentation","83","454970","0.0-83.0","5bc2e0ec4f3bfd00012e97b5","5fef55e628823a0076ec12ee","60201d3e8d79b25d46f14721","Mozilla/5.0 (Windows NT 10.0; Win64; x64) AppleWebKit/537.36 (KHTML, like Gecko) Chrome/86.0.4240.193 Safari/537.36","v1-up-stims","","","","","","","","-20,-10,0,10,20","media/audio/stims/spherical_300cm_s20_c20_cd-full_matched_a-10.wav","spherical","20","20","full","matched","-10","0","1215"
"echo-presentation","84","457522","0.0-84.0","5bc2e0ec4f3bfd00012e97b5","5fef55e628823a0076ec12ee","60201d3e8d79b25d46f14721","Mozilla/5.0 (Windows NT 10.0; Win64; x64) AppleWebKit/537.36 (KHTML, like Gecko) Chrome/86.0.4240.193 Safari/537.36","v1-up-stims","","","","","","","","-20,-10,0,10,20","media/audio/stims/spherical_300cm_s20_c20_cd-full_matched_a20.wav","spherical","20","20","full","matched","20","0","1232"
"echo-presentation","85","460512","0.0-85.0","5bc2e0ec4f3bfd00012e97b5","5fef55e628823a0076ec12ee","60201d3e8d79b25d46f14721","Mozilla/5.0 (Windows NT 10.0; Win64; x64) AppleWebKit/537.36 (KHTML, like Gecko) Chrome/86.0.4240.193 Safari/537.36","v1-up-stims","","","","","","","","-20,-10,0,10,20","media/audio/stims/spherical_300cm_s20_c20_cd-full_matched_a10.wav","spherical","20","20","full","matched","10","0","891"
"echo-presentation","86","462940","0.0-86.0","5bc2e0ec4f3bfd00012e97b5","5fef55e628823a0076ec12ee","60201d3e8d79b25d46f14721","Mozilla/5.0 (Windows NT 10.0; Win64; x64) AppleWebKit/537.36 (KHTML, like Gecko) Chrome/86.0.4240.193 Safari/537.36","v1-up-stims","","","","","","","","-20,-10,0,10,20","media/audio/stims/spherical_300cm_s20_c20_cd-full_matched_a10.wav","spherical","20","20","full","matched","10","0","1292"
"echo-presentation","87","465074","0.0-87.0","5bc2e0ec4f3bfd00012e97b5","5fef55e628823a0076ec12ee","60201d3e8d79b25d46f14721","Mozilla/5.0 (Windows NT 10.0; Win64; x64) AppleWebKit/537.36 (KHTML, like Gecko) Chrome/86.0.4240.193 Safari/537.36","v1-up-stims","","","","","","","","-20,-10,0,10,20","media/audio/stims/spherical_300cm_s20_c20_cd-full_matched_a-10.wav","spherical","20","20","full","matched","-10","0","1109"
"echo-presentation","88","467209","0.0-88.0","5bc2e0ec4f3bfd00012e97b5","5fef55e628823a0076ec12ee","60201d3e8d79b25d46f14721","Mozilla/5.0 (Windows NT 10.0; Win64; x64) AppleWebKit/537.36 (KHTML, like Gecko) Chrome/86.0.4240.193 Safari/537.36","v1-up-stims","","","","","","","","-20,-10,0,10,20","media/audio/stims/spherical_300cm_s20_c20_cd-full_matched_a0.wav","spherical","20","20","full","matched","0","0","1154"
"echo-presentation","89","469371","0.0-89.0","5bc2e0ec4f3bfd00012e97b5","5fef55e628823a0076ec12ee","60201d3e8d79b25d46f14721","Mozilla/5.0 (Windows NT 10.0; Win64; x64) AppleWebKit/537.36 (KHTML, like Gecko) Chrome/86.0.4240.193 Safari/537.36","v1-up-stims","","","","","","","","-20,-10,0,10,20","media/audio/stims/spherical_300cm_s20_c20_cd-full_matched_a20.wav","spherical","20","20","full","matched","20","0","1156"
"echo-presentation","90","471478","0.0-90.0","5bc2e0ec4f3bfd00012e97b5","5fef55e628823a0076ec12ee","60201d3e8d79b25d46f14721","Mozilla/5.0 (Windows NT 10.0; Win64; x64) AppleWebKit/537.36 (KHTML, like Gecko) Chrome/86.0.4240.193 Safari/537.36","v1-up-stims","","","","","","","","-20,-10,0,10,20","media/audio/stims/spherical_300cm_s20_c20_cd-full_matched_a0.wav","spherical","20","20","full","matched","0","0","1116"
"echo-presentation","91","473523","0.0-91.0","5bc2e0ec4f3bfd00012e97b5","5fef55e628823a0076ec12ee","60201d3e8d79b25d46f14721","Mozilla/5.0 (Windows NT 10.0; Win64; x64) AppleWebKit/537.36 (KHTML, like Gecko) Chrome/86.0.4240.193 Safari/537.36","v1-up-stims","","","","","","","","-20,-10,0,10,20","media/audio/stims/spherical_300cm_s20_c20_cd-full_matched_a-20.wav","spherical","20","20","full","matched","-20","0","1058"
"echo-presentation","92","475712","0.0-92.0","5bc2e0ec4f3bfd00012e97b5","5fef55e628823a0076ec12ee","60201d3e8d79b25d46f14721","Mozilla/5.0 (Windows NT 10.0; Win64; x64) AppleWebKit/537.36 (KHTML, like Gecko) Chrome/86.0.4240.193 Safari/537.36","v1-up-stims","","","","","","","","-20,-10,0,10,20","media/audio/stims/spherical_300cm_s20_c20_cd-full_matched_a20.wav","spherical","20","20","full","matched","20","0","1150"
"echo-presentation","93","477809","0.0-93.0","5bc2e0ec4f3bfd00012e97b5","5fef55e628823a0076ec12ee","60201d3e8d79b25d46f14721","Mozilla/5.0 (Windows NT 10.0; Win64; x64) AppleWebKit/537.36 (KHTML, like Gecko) Chrome/86.0.4240.193 Safari/537.36","v1-up-stims","","","","","","","","-20,-10,0,10,20","media/audio/stims/spherical_300cm_s20_c20_cd-full_matched_a20.wav","spherical","20","20","full","matched","20","0","1061"
"block-bookend","94","479314","0.0-94.0","5bc2e0ec4f3bfd00012e97b5","5fef55e628823a0076ec12ee","60201d3e8d79b25d46f14721","Mozilla/5.0 (Windows NT 10.0; Win64; x64) AppleWebKit/537.36 (KHTML, like Gecko) Chrome/86.0.4240.193 Safari/537.36","v1-up-stims","","","","","","","","","","","","","","","","",""
"block-bookend","95","486017","0.0-95.0","5bc2e0ec4f3bfd00012e97b5","5fef55e628823a0076ec12ee","60201d3e8d79b25d46f14721","Mozilla/5.0 (Windows NT 10.0; Win64; x64) AppleWebKit/537.36 (KHTML, like Gecko) Chrome/86.0.4240.193 Safari/537.36","v1-up-stims","","","","","","","","","","","","","","","","",""
"echo-presentation","96","489518","0.0-96.0","5bc2e0ec4f3bfd00012e97b5","5fef55e628823a0076ec12ee","60201d3e8d79b25d46f14721","Mozilla/5.0 (Windows NT 10.0; Win64; x64) AppleWebKit/537.36 (KHTML, like Gecko) Chrome/86.0.4240.193 Safari/537.36","v1-up-stims","","","","","","","","-80,-70,-60,-50,-40","media/audio/stims/spherical_300cm_s20_c20_cd-full_matched_a-60.wav","spherical","20","20","full","matched","-60","-60","1592"
"echo-presentation","97","492136","0.0-97.0","5bc2e0ec4f3bfd00012e97b5","5fef55e628823a0076ec12ee","60201d3e8d79b25d46f14721","Mozilla/5.0 (Windows NT 10.0; Win64; x64) AppleWebKit/537.36 (KHTML, like Gecko) Chrome/86.0.4240.193 Safari/537.36","v1-up-stims","","","","","","","","-80,-70,-60,-50,-40","media/audio/stims/spherical_300cm_s20_c20_cd-full_matched_a-40.wav","spherical","20","20","full","matched","-40","-60","1459"
"echo-presentation","98","494895","0.0-98.0","5bc2e0ec4f3bfd00012e97b5","5fef55e628823a0076ec12ee","60201d3e8d79b25d46f14721","Mozilla/5.0 (Windows NT 10.0; Win64; x64) AppleWebKit/537.36 (KHTML, like Gecko) Chrome/86.0.4240.193 Safari/537.36","v1-up-stims","","","","","","","","-80,-70,-60,-50,-40","media/audio/stims/spherical_300cm_s20_c20_cd-full_matched_a-60.wav","spherical","20","20","full","matched","-60","-70","1658"
"echo-presentation","99","498245","0.0-99.0","5bc2e0ec4f3bfd00012e97b5","5fef55e628823a0076ec12ee","60201d3e8d79b25d46f14721","Mozilla/5.0 (Windows NT 10.0; Win64; x64) AppleWebKit/537.36 (KHTML, like Gecko) Chrome/86.0.4240.193 Safari/537.36","v1-up-stims","","","","","","","","-80,-70,-60,-50,-40","media/audio/stims/spherical_300cm_s20_c20_cd-full_matched_a-40.wav","spherical","20","20","full","matched","-40","-70","2310"
"echo-presentation","100","501721","0.0-100.0","5bc2e0ec4f3bfd00012e97b5","5fef55e628823a0076ec12ee","60201d3e8d79b25d46f14721","Mozilla/5.0 (Windows NT 10.0; Win64; x64) AppleWebKit/537.36 (KHTML, like Gecko) Chrome/86.0.4240.193 Safari/537.36","v1-up-stims","","","","","","","","-80,-70,-60,-50,-40","media/audio/stims/spherical_300cm_s20_c20_cd-full_matched_a-50.wav","spherical","20","20","full","matched","-50","-60","2077"
"echo-presentation","101","504608","0.0-101.0","5bc2e0ec4f3bfd00012e97b5","5fef55e628823a0076ec12ee","60201d3e8d79b25d46f14721","Mozilla/5.0 (Windows NT 10.0; Win64; x64) AppleWebKit/537.36 (KHTML, like Gecko) Chrome/86.0.4240.193 Safari/537.36","v1-up-stims","","","","","","","","-80,-70,-60,-50,-40","media/audio/stims/spherical_300cm_s20_c20_cd-full_matched_a-80.wav","spherical","20","20","full","matched","-80","-50","2271"
"echo-presentation","102","507210","0.0-102.0","5bc2e0ec4f3bfd00012e97b5","5fef55e628823a0076ec12ee","60201d3e8d79b25d46f14721","Mozilla/5.0 (Windows NT 10.0; Win64; x64) AppleWebKit/537.36 (KHTML, like Gecko) Chrome/86.0.4240.193 Safari/537.36","v1-up-stims","","","","","","","","-80,-70,-60,-50,-40","media/audio/stims/spherical_300cm_s20_c20_cd-full_matched_a-40.wav","spherical","20","20","full","matched","-40","-50","1574"
"echo-presentation","103","510372","0.0-103.0","5bc2e0ec4f3bfd00012e97b5","5fef55e628823a0076ec12ee","60201d3e8d79b25d46f14721","Mozilla/5.0 (Windows NT 10.0; Win64; x64) AppleWebKit/537.36 (KHTML, like Gecko) Chrome/86.0.4240.193 Safari/537.36","v1-up-stims","","","","","","","","-80,-70,-60,-50,-40","media/audio/stims/spherical_300cm_s20_c20_cd-full_matched_a-80.wav","spherical","20","20","full","matched","-80","-50","2122"
"echo-presentation","104","512812","0.0-104.0","5bc2e0ec4f3bfd00012e97b5","5fef55e628823a0076ec12ee","60201d3e8d79b25d46f14721","Mozilla/5.0 (Windows NT 10.0; Win64; x64) AppleWebKit/537.36 (KHTML, like Gecko) Chrome/86.0.4240.193 Safari/537.36","v1-up-stims","","","","","","","","-80,-70,-60,-50,-40","media/audio/stims/spherical_300cm_s20_c20_cd-full_matched_a-60.wav","spherical","20","20","full","matched","-60","-50","1362"
"echo-presentation","105","515129","0.0-105.0","5bc2e0ec4f3bfd00012e97b5","5fef55e628823a0076ec12ee","60201d3e8d79b25d46f14721","Mozilla/5.0 (Windows NT 10.0; Win64; x64) AppleWebKit/537.36 (KHTML, like Gecko) Chrome/86.0.4240.193 Safari/537.36","v1-up-stims","","","","","","","","-80,-70,-60,-50,-40","media/audio/stims/spherical_300cm_s20_c20_cd-full_matched_a-50.wav","spherical","20","20","full","matched","-50","-50","1201"
"echo-presentation","106","517381","0.0-106.0","5bc2e0ec4f3bfd00012e97b5","5fef55e628823a0076ec12ee","60201d3e8d79b25d46f14721","Mozilla/5.0 (Windows NT 10.0; Win64; x64) AppleWebKit/537.36 (KHTML, like Gecko) Chrome/86.0.4240.193 Safari/537.36","v1-up-stims","","","","","","","","-80,-70,-60,-50,-40","media/audio/stims/spherical_300cm_s20_c20_cd-full_matched_a-70.wav","spherical","20","20","full","matched","-70","-50","1270"
"echo-presentation","107","519531","0.0-107.0","5bc2e0ec4f3bfd00012e97b5","5fef55e628823a0076ec12ee","60201d3e8d79b25d46f14721","Mozilla/5.0 (Windows NT 10.0; Win64; x64) AppleWebKit/537.36 (KHTML, like Gecko) Chrome/86.0.4240.193 Safari/537.36","v1-up-stims","","","","","","","","-80,-70,-60,-50,-40","media/audio/stims/spherical_300cm_s20_c20_cd-full_matched_a-70.wav","spherical","20","20","full","matched","-70","-50","1253"
"echo-presentation","108","528035","0.0-108.0","5bc2e0ec4f3bfd00012e97b5","5fef55e628823a0076ec12ee","60201d3e8d79b25d46f14721","Mozilla/5.0 (Windows NT 10.0; Win64; x64) AppleWebKit/537.36 (KHTML, like Gecko) Chrome/86.0.4240.193 Safari/537.36","v1-up-stims","","","","","","","","-80,-70,-60,-50,-40","media/audio/stims/spherical_300cm_s20_c20_cd-full_matched_a-40.wav","spherical","20","20","full","matched","-40","-50","7340"
"echo-presentation","109","534576","0.0-109.0","5bc2e0ec4f3bfd00012e97b5","5fef55e628823a0076ec12ee","60201d3e8d79b25d46f14721","Mozilla/5.0 (Windows NT 10.0; Win64; x64) AppleWebKit/537.36 (KHTML, like Gecko) Chrome/86.0.4240.193 Safari/537.36","v1-up-stims","","","","","","","","-80,-70,-60,-50,-40","media/audio/stims/spherical_300cm_s20_c20_cd-full_matched_a-50.wav","spherical","20","20","full","matched","-50","-50","4700"
"echo-presentation","110","537207","0.0-110.0","5bc2e0ec4f3bfd00012e97b5","5fef55e628823a0076ec12ee","60201d3e8d79b25d46f14721","Mozilla/5.0 (Windows NT 10.0; Win64; x64) AppleWebKit/537.36 (KHTML, like Gecko) Chrome/86.0.4240.193 Safari/537.36","v1-up-stims","","","","","","","","-80,-70,-60,-50,-40","media/audio/stims/spherical_300cm_s20_c20_cd-full_matched_a-80.wav","spherical","20","20","full","matched","-80","-50","1390"
"echo-presentation","111","539491","0.0-111.0","5bc2e0ec4f3bfd00012e97b5","5fef55e628823a0076ec12ee","60201d3e8d79b25d46f14721","Mozilla/5.0 (Windows NT 10.0; Win64; x64) AppleWebKit/537.36 (KHTML, like Gecko) Chrome/86.0.4240.193 Safari/537.36","v1-up-stims","","","","","","","","-80,-70,-60,-50,-40","media/audio/stims/spherical_300cm_s20_c20_cd-full_matched_a-70.wav","spherical","20","20","full","matched","-70","-50","1276"
"echo-presentation","112","541741","0.0-112.0","5bc2e0ec4f3bfd00012e97b5","5fef55e628823a0076ec12ee","60201d3e8d79b25d46f14721","Mozilla/5.0 (Windows NT 10.0; Win64; x64) AppleWebKit/537.36 (KHTML, like Gecko) Chrome/86.0.4240.193 Safari/537.36","v1-up-stims","","","","","","","","-80,-70,-60,-50,-40","media/audio/stims/spherical_300cm_s20_c20_cd-full_matched_a-50.wav","spherical","20","20","full","matched","-50","-50","1146"
"echo-presentation","113","544103","0.0-113.0","5bc2e0ec4f3bfd00012e97b5","5fef55e628823a0076ec12ee","60201d3e8d79b25d46f14721","Mozilla/5.0 (Windows NT 10.0; Win64; x64) AppleWebKit/537.36 (KHTML, like Gecko) Chrome/86.0.4240.193 Safari/537.36","v1-up-stims","","","","","","","","-80,-70,-60,-50,-40","media/audio/stims/spherical_300cm_s20_c20_cd-full_matched_a-60.wav","spherical","20","20","full","matched","-60","-50","1168"
"echo-presentation","114","546476","0.0-114.0","5bc2e0ec4f3bfd00012e97b5","5fef55e628823a0076ec12ee","60201d3e8d79b25d46f14721","Mozilla/5.0 (Windows NT 10.0; Win64; x64) AppleWebKit/537.36 (KHTML, like Gecko) Chrome/86.0.4240.193 Safari/537.36","v1-up-stims","","","","","","","","-80,-70,-60,-50,-40","media/audio/stims/spherical_300cm_s20_c20_cd-full_matched_a-80.wav","spherical","20","20","full","matched","-80","-50","1309"
"echo-presentation","115","549021","0.0-115.0","5bc2e0ec4f3bfd00012e97b5","5fef55e628823a0076ec12ee","60201d3e8d79b25d46f14721","Mozilla/5.0 (Windows NT 10.0; Win64; x64) AppleWebKit/537.36 (KHTML, like Gecko) Chrome/86.0.4240.193 Safari/537.36","v1-up-stims","","","","","","","","-80,-70,-60,-50,-40","media/audio/stims/spherical_300cm_s20_c20_cd-full_matched_a-70.wav","spherical","20","20","full","matched","-70","-50","1489"
"block-bookend","116","550490","0.0-116.0","5bc2e0ec4f3bfd00012e97b5","5fef55e628823a0076ec12ee","60201d3e8d79b25d46f14721","Mozilla/5.0 (Windows NT 10.0; Win64; x64) AppleWebKit/537.36 (KHTML, like Gecko) Chrome/86.0.4240.193 Safari/537.36","v1-up-stims","","","","","","","","","","","","","","","","",""
"block-bookend","117","556289","0.0-117.0","5bc2e0ec4f3bfd00012e97b5","5fef55e628823a0076ec12ee","60201d3e8d79b25d46f14721","Mozilla/5.0 (Windows NT 10.0; Win64; x64) AppleWebKit/537.36 (KHTML, like Gecko) Chrome/86.0.4240.193 Safari/537.36","v1-up-stims","","","","","","","","","","","","","","","","",""
"echo-presentation","118","562978","0.0-118.0","5bc2e0ec4f3bfd00012e97b5","5fef55e628823a0076ec12ee","60201d3e8d79b25d46f14721","Mozilla/5.0 (Windows NT 10.0; Win64; x64) AppleWebKit/537.36 (KHTML, like Gecko) Chrome/86.0.4240.193 Safari/537.36","v1-up-stims","","","","","","","","-80,-70,-60,-50,-40","media/audio/stims/spherical_300cm_s20_c20_cd-full_matched_a-40.wav","spherical","20","20","full","matched","-40","-50","4834"
"echo-presentation","119","565113","0.0-119.0","5bc2e0ec4f3bfd00012e97b5","5fef55e628823a0076ec12ee","60201d3e8d79b25d46f14721","Mozilla/5.0 (Windows NT 10.0; Win64; x64) AppleWebKit/537.36 (KHTML, like Gecko) Chrome/86.0.4240.193 Safari/537.36","v1-up-stims","","","","","","","","-80,-70,-60,-50,-40","media/audio/stims/spherical_300cm_s20_c20_cd-full_matched_a-50.wav","spherical","20","20","full","matched","-50","-50","1030"
"echo-presentation","120","566961","0.0-120.0","5bc2e0ec4f3bfd00012e97b5","5fef55e628823a0076ec12ee","60201d3e8d79b25d46f14721","Mozilla/5.0 (Windows NT 10.0; Win64; x64) AppleWebKit/537.36 (KHTML, like Gecko) Chrome/86.0.4240.193 Safari/537.36","v1-up-stims","","","","","","","","-80,-70,-60,-50,-40","media/audio/stims/spherical_300cm_s20_c20_cd-full_matched_a-70.wav","spherical","20","20","full","matched","-70","-50","933"
"echo-presentation","121","569053","0.0-121.0","5bc2e0ec4f3bfd00012e97b5","5fef55e628823a0076ec12ee","60201d3e8d79b25d46f14721","Mozilla/5.0 (Windows NT 10.0; Win64; x64) AppleWebKit/537.36 (KHTML, like Gecko) Chrome/86.0.4240.193 Safari/537.36","v1-up-stims","","","","","","","","-80,-70,-60,-50,-40","media/audio/stims/spherical_300cm_s20_c20_cd-full_matched_a-80.wav","spherical","20","20","full","matched","-80","-50","1053"
"echo-presentation","122","571133","0.0-122.0","5bc2e0ec4f3bfd00012e97b5","5fef55e628823a0076ec12ee","60201d3e8d79b25d46f14721","Mozilla/5.0 (Windows NT 10.0; Win64; x64) AppleWebKit/537.36 (KHTML, like Gecko) Chrome/86.0.4240.193 Safari/537.36","v1-up-stims","","","","","","","","-80,-70,-60,-50,-40","media/audio/stims/spherical_300cm_s20_c20_cd-full_matched_a-40.wav","spherical","20","20","full","matched","-40","-50","1015"
"echo-presentation","123","573422","0.0-123.0","5bc2e0ec4f3bfd00012e97b5","5fef55e628823a0076ec12ee","60201d3e8d79b25d46f14721","Mozilla/5.0 (Windows NT 10.0; Win64; x64) AppleWebKit/537.36 (KHTML, like Gecko) Chrome/86.0.4240.193 Safari/537.36","v1-up-stims","","","","","","","","-80,-70,-60,-50,-40","media/audio/stims/spherical_300cm_s20_c20_cd-full_matched_a-60.wav","spherical","20","20","full","matched","-60","-50","973"
"echo-presentation","124","575374","0.0-124.0","5bc2e0ec4f3bfd00012e97b5","5fef55e628823a0076ec12ee","60201d3e8d79b25d46f14721","Mozilla/5.0 (Windows NT 10.0; Win64; x64) AppleWebKit/537.36 (KHTML, like Gecko) Chrome/86.0.4240.193 Safari/537.36","v1-up-stims","","","","","","","","-80,-70,-60,-50,-40","media/audio/stims/spherical_300cm_s20_c20_cd-full_matched_a-50.wav","spherical","20","20","full","matched","-50","-50","1022"
"echo-presentation","125","577524","0.0-125.0","5bc2e0ec4f3bfd00012e97b5","5fef55e628823a0076ec12ee","60201d3e8d79b25d46f14721","Mozilla/5.0 (Windows NT 10.0; Win64; x64) AppleWebKit/537.36 (KHTML, like Gecko) Chrome/86.0.4240.193 Safari/537.36","v1-up-stims","","","","","","","","-80,-70,-60,-50,-40","media/audio/stims/spherical_300cm_s20_c20_cd-full_matched_a-40.wav","spherical","20","20","full","matched","-40","-50","957"
"echo-presentation","126","579531","0.0-126.0","5bc2e0ec4f3bfd00012e97b5","5fef55e628823a0076ec12ee","60201d3e8d79b25d46f14721","Mozilla/5.0 (Windows NT 10.0; Win64; x64) AppleWebKit/537.36 (KHTML, like Gecko) Chrome/86.0.4240.193 Safari/537.36","v1-up-stims","","","","","","","","-80,-70,-60,-50,-40","media/audio/stims/spherical_300cm_s20_c20_cd-full_matched_a-70.wav","spherical","20","20","full","matched","-70","-50","961"
"echo-presentation","127","581601","0.0-127.0","5bc2e0ec4f3bfd00012e97b5","5fef55e628823a0076ec12ee","60201d3e8d79b25d46f14721","Mozilla/5.0 (Windows NT 10.0; Win64; x64) AppleWebKit/537.36 (KHTML, like Gecko) Chrome/86.0.4240.193 Safari/537.36","v1-up-stims","","","","","","","","-80,-70,-60,-50,-40","media/audio/stims/spherical_300cm_s20_c20_cd-full_matched_a-40.wav","spherical","20","20","full","matched","-40","-50","1089"
"echo-presentation","128","583627","0.0-128.0","5bc2e0ec4f3bfd00012e97b5","5fef55e628823a0076ec12ee","60201d3e8d79b25d46f14721","Mozilla/5.0 (Windows NT 10.0; Win64; x64) AppleWebKit/537.36 (KHTML, like Gecko) Chrome/86.0.4240.193 Safari/537.36","v1-up-stims","","","","","","","","-80,-70,-60,-50,-40","media/audio/stims/spherical_300cm_s20_c20_cd-full_matched_a-60.wav","spherical","20","20","full","matched","-60","-50","1114"
"echo-presentation","129","586547","0.0-129.0","5bc2e0ec4f3bfd00012e97b5","5fef55e628823a0076ec12ee","60201d3e8d79b25d46f14721","Mozilla/5.0 (Windows NT 10.0; Win64; x64) AppleWebKit/537.36 (KHTML, like Gecko) Chrome/86.0.4240.193 Safari/537.36","v1-up-stims","","","","","","","","-80,-70,-60,-50,-40","media/audio/stims/spherical_300cm_s20_c20_cd-full_matched_a-80.wav","spherical","20","20","full","matched","-80","-50","1857"
"echo-presentation","130","588976","0.0-130.0","5bc2e0ec4f3bfd00012e97b5","5fef55e628823a0076ec12ee","60201d3e8d79b25d46f14721","Mozilla/5.0 (Windows NT 10.0; Win64; x64) AppleWebKit/537.36 (KHTML, like Gecko) Chrome/86.0.4240.193 Safari/537.36","v1-up-stims","","","","","","","","-80,-70,-60,-50,-40","media/audio/stims/spherical_300cm_s20_c20_cd-full_matched_a-80.wav","spherical","20","20","full","matched","-80","-50","1294"
"echo-presentation","131","590930","0.0-131.0","5bc2e0ec4f3bfd00012e97b5","5fef55e628823a0076ec12ee","60201d3e8d79b25d46f14721","Mozilla/5.0 (Windows NT 10.0; Win64; x64) AppleWebKit/537.36 (KHTML, like Gecko) Chrome/86.0.4240.193 Safari/537.36","v1-up-stims","","","","","","","","-80,-70,-60,-50,-40","media/audio/stims/spherical_300cm_s20_c20_cd-full_matched_a-50.wav","spherical","20","20","full","matched","-50","-50","1009"
"echo-presentation","132","592881","0.0-132.0","5bc2e0ec4f3bfd00012e97b5","5fef55e628823a0076ec12ee","60201d3e8d79b25d46f14721","Mozilla/5.0 (Windows NT 10.0; Win64; x64) AppleWebKit/537.36 (KHTML, like Gecko) Chrome/86.0.4240.193 Safari/537.36","v1-up-stims","","","","","","","","-80,-70,-60,-50,-40","media/audio/stims/spherical_300cm_s20_c20_cd-full_matched_a-50.wav","spherical","20","20","full","matched","-50","-50","1038"
"echo-presentation","133","599701","0.0-133.0","5bc2e0ec4f3bfd00012e97b5","5fef55e628823a0076ec12ee","60201d3e8d79b25d46f14721","Mozilla/5.0 (Windows NT 10.0; Win64; x64) AppleWebKit/537.36 (KHTML, like Gecko) Chrome/86.0.4240.193 Safari/537.36","v1-up-stims","","","","","","","","-80,-70,-60,-50,-40","media/audio/stims/spherical_300cm_s20_c20_cd-full_matched_a-80.wav","spherical","20","20","full","matched","-80","-50","5724"
"echo-presentation","134","601785","0.0-134.0","5bc2e0ec4f3bfd00012e97b5","5fef55e628823a0076ec12ee","60201d3e8d79b25d46f14721","Mozilla/5.0 (Windows NT 10.0; Win64; x64) AppleWebKit/537.36 (KHTML, like Gecko) Chrome/86.0.4240.193 Safari/537.36","v1-up-stims","","","","","","","","-80,-70,-60,-50,-40","media/audio/stims/spherical_300cm_s20_c20_cd-full_matched_a-60.wav","spherical","20","20","full","matched","-60","-50","1074"
"echo-presentation","135","604540","0.0-135.0","5bc2e0ec4f3bfd00012e97b5","5fef55e628823a0076ec12ee","60201d3e8d79b25d46f14721","Mozilla/5.0 (Windows NT 10.0; Win64; x64) AppleWebKit/537.36 (KHTML, like Gecko) Chrome/86.0.4240.193 Safari/537.36","v1-up-stims","","","","","","","","-80,-70,-60,-50,-40","media/audio/stims/spherical_300cm_s20_c20_cd-full_matched_a-70.wav","spherical","20","20","full","matched","-70","-50","1874"
"echo-presentation","136","606642","0.0-136.0","5bc2e0ec4f3bfd00012e97b5","5fef55e628823a0076ec12ee","60201d3e8d79b25d46f14721","Mozilla/5.0 (Windows NT 10.0; Win64; x64) AppleWebKit/537.36 (KHTML, like Gecko) Chrome/86.0.4240.193 Safari/537.36","v1-up-stims","","","","","","","","-80,-70,-60,-50,-40","media/audio/stims/spherical_300cm_s20_c20_cd-full_matched_a-70.wav","spherical","20","20","full","matched","-70","-50","1130"
"echo-presentation","137","608866","0.0-137.0","5bc2e0ec4f3bfd00012e97b5","5fef55e628823a0076ec12ee","60201d3e8d79b25d46f14721","Mozilla/5.0 (Windows NT 10.0; Win64; x64) AppleWebKit/537.36 (KHTML, like Gecko) Chrome/86.0.4240.193 Safari/537.36","v1-up-stims","","","","","","","","-80,-70,-60,-50,-40","media/audio/stims/spherical_300cm_s20_c20_cd-full_matched_a-60.wav","spherical","20","20","full","matched","-60","-50","1127"
"block-bookend","138","611299","0.0-138.0","5bc2e0ec4f3bfd00012e97b5","5fef55e628823a0076ec12ee","60201d3e8d79b25d46f14721","Mozilla/5.0 (Windows NT 10.0; Win64; x64) AppleWebKit/537.36 (KHTML, like Gecko) Chrome/86.0.4240.193 Safari/537.36","v1-up-stims","","","","","","","","","","","","","","","","",""
