"trial_type","trial_index","time_elapsed","internal_node_id","prolificPid","studyId","sessionId","userAgent","version","rt","stimulus","key_press","chosenKeyset","failureCount","testIndex","globalVolume","choices","filename","modelName","slowdown","compensation","compensationDescriptor","receiverOrientationType","azimuth","responseAzimuth","responseDelay"
"pavlovia","0","4","0.0-0.0","5fdea3ff9bf07d61c6087fdd","5fef55e628823a0076ec12ee","601f447d0cc54b494a60db00","Mozilla/5.0 (Windows NT 10.0; Win64; x64) AppleWebKit/537.36 (KHTML, like Gecko) Chrome/88.0.4324.150 Safari/537.36 Edg/88.0.705.63","v1","","","","","","","","","","","","","","","","",""
"html-keyboard-response","1","801","0.0-1.0","5fdea3ff9bf07d61c6087fdd","5fef55e628823a0076ec12ee","601f447d0cc54b494a60db00","Mozilla/5.0 (Windows NT 10.0; Win64; x64) AppleWebKit/537.36 (KHTML, like Gecko) Chrome/88.0.4324.150 Safari/537.36 Edg/88.0.705.63","v1","796.3199999940116","<div><h1>Welcome!</h1><p>Press any key to continue.</p></div>","32","","","","","","","","","","","","","",""
"consent-form","2","6662","0.0-2.0","5fdea3ff9bf07d61c6087fdd","5fef55e628823a0076ec12ee","601f447d0cc54b494a60db00","Mozilla/5.0 (Windows NT 10.0; Win64; x64) AppleWebKit/537.36 (KHTML, like Gecko) Chrome/88.0.4324.150 Safari/537.36 Edg/88.0.705.63","v1","","","","","","","","","","","","","","","","",""
"keyset-select","3","8777","0.0-3.0","5fdea3ff9bf07d61c6087fdd","5fef55e628823a0076ec12ee","601f447d0cc54b494a60db00","Mozilla/5.0 (Windows NT 10.0; Win64; x64) AppleWebKit/537.36 (KHTML, like Gecko) Chrome/88.0.4324.150 Safari/537.36 Edg/88.0.705.63","v1","","","","left-hand","","","","","","","","","","","","",""
"headphone-check","4","60801","0.0-4.0","5fdea3ff9bf07d61c6087fdd","5fef55e628823a0076ec12ee","601f447d0cc54b494a60db00","Mozilla/5.0 (Windows NT 10.0; Win64; x64) AppleWebKit/537.36 (KHTML, like Gecko) Chrome/88.0.4324.150 Safari/537.36 Edg/88.0.705.63","v1","","","","","0","6","0.7","","","","","","","","","",""
"headphone-backwards-check","5","73765","0.0-5.0","5fdea3ff9bf07d61c6087fdd","5fef55e628823a0076ec12ee","601f447d0cc54b494a60db00","Mozilla/5.0 (Windows NT 10.0; Win64; x64) AppleWebKit/537.36 (KHTML, like Gecko) Chrome/88.0.4324.150 Safari/537.36 Edg/88.0.705.63","v1","","","","","0","","","","","","","","","","","",""
"training","6","188729","0.0-6.0","5fdea3ff9bf07d61c6087fdd","5fef55e628823a0076ec12ee","601f447d0cc54b494a60db00","Mozilla/5.0 (Windows NT 10.0; Win64; x64) AppleWebKit/537.36 (KHTML, like Gecko) Chrome/88.0.4324.150 Safari/537.36 Edg/88.0.705.63","v1","","","","","","","","","","","","","","","","",""
"block-bookend","7","206144","0.0-7.0","5fdea3ff9bf07d61c6087fdd","5fef55e628823a0076ec12ee","601f447d0cc54b494a60db00","Mozilla/5.0 (Windows NT 10.0; Win64; x64) AppleWebKit/537.36 (KHTML, like Gecko) Chrome/88.0.4324.150 Safari/537.36 Edg/88.0.705.63","v1","","","","","","","","","","","","","","","","",""
"echo-presentation","8","219385","0.0-8.0","5fdea3ff9bf07d61c6087fdd","5fef55e628823a0076ec12ee","601f447d0cc54b494a60db00","Mozilla/5.0 (Windows NT 10.0; Win64; x64) AppleWebKit/537.36 (KHTML, like Gecko) Chrome/88.0.4324.150 Safari/537.36 Edg/88.0.705.63","v1","","","","","","","","40,50,60,70,80","media/audio/stims/spherical_300cm_s20_c20_cd-full_matched_a40.wav","spherical","20","20","full","matched","40","40","7222"
"echo-presentation","9","222995","0.0-9.0","5fdea3ff9bf07d61c6087fdd","5fef55e628823a0076ec12ee","601f447d0cc54b494a60db00","Mozilla/5.0 (Windows NT 10.0; Win64; x64) AppleWebKit/537.36 (KHTML, like Gecko) Chrome/88.0.4324.150 Safari/537.36 Edg/88.0.705.63","v1","","","","","","","","40,50,60,70,80","media/audio/stims/spherical_300cm_s20_c20_cd-full_matched_a60.wav","spherical","20","20","full","matched","60","50","1657"
"echo-presentation","10","227751","0.0-10.0","5fdea3ff9bf07d61c6087fdd","5fef55e628823a0076ec12ee","601f447d0cc54b494a60db00","Mozilla/5.0 (Windows NT 10.0; Win64; x64) AppleWebKit/537.36 (KHTML, like Gecko) Chrome/88.0.4324.150 Safari/537.36 Edg/88.0.705.63","v1","","","","","","","","40,50,60,70,80","media/audio/stims/spherical_300cm_s20_c20_cd-full_matched_a80.wav","spherical","20","20","full","matched","80","60","2742"
"echo-presentation","11","231077","0.0-11.0","5fdea3ff9bf07d61c6087fdd","5fef55e628823a0076ec12ee","601f447d0cc54b494a60db00","Mozilla/5.0 (Windows NT 10.0; Win64; x64) AppleWebKit/537.36 (KHTML, like Gecko) Chrome/88.0.4324.150 Safari/537.36 Edg/88.0.705.63","v1","","","","","","","","40,50,60,70,80","media/audio/stims/spherical_300cm_s20_c20_cd-full_matched_a40.wav","spherical","20","20","full","matched","40","60","1869"
"echo-presentation","12","234917","0.0-12.0","5fdea3ff9bf07d61c6087fdd","5fef55e628823a0076ec12ee","601f447d0cc54b494a60db00","Mozilla/5.0 (Windows NT 10.0; Win64; x64) AppleWebKit/537.36 (KHTML, like Gecko) Chrome/88.0.4324.150 Safari/537.36 Edg/88.0.705.63","v1","","","","","","","","40,50,60,70,80","media/audio/stims/spherical_300cm_s20_c20_cd-full_matched_a50.wav","spherical","20","20","full","matched","50","60","2763"
"echo-presentation","13","239542","0.0-13.0","5fdea3ff9bf07d61c6087fdd","5fef55e628823a0076ec12ee","601f447d0cc54b494a60db00","Mozilla/5.0 (Windows NT 10.0; Win64; x64) AppleWebKit/537.36 (KHTML, like Gecko) Chrome/88.0.4324.150 Safari/537.36 Edg/88.0.705.63","v1","","","","","","","","40,50,60,70,80","media/audio/stims/spherical_300cm_s20_c20_cd-full_matched_a70.wav","spherical","20","20","full","matched","70","70","3438"
"echo-presentation","14","242150","0.0-14.0","5fdea3ff9bf07d61c6087fdd","5fef55e628823a0076ec12ee","601f447d0cc54b494a60db00","Mozilla/5.0 (Windows NT 10.0; Win64; x64) AppleWebKit/537.36 (KHTML, like Gecko) Chrome/88.0.4324.150 Safari/537.36 Edg/88.0.705.63","v1","","","","","","","","40,50,60,70,80","media/audio/stims/spherical_300cm_s20_c20_cd-full_matched_a40.wav","spherical","20","20","full","matched","40","60","1469"
"echo-presentation","15","246272","0.0-15.0","5fdea3ff9bf07d61c6087fdd","5fef55e628823a0076ec12ee","601f447d0cc54b494a60db00","Mozilla/5.0 (Windows NT 10.0; Win64; x64) AppleWebKit/537.36 (KHTML, like Gecko) Chrome/88.0.4324.150 Safari/537.36 Edg/88.0.705.63","v1","","","","","","","","40,50,60,70,80","media/audio/stims/spherical_300cm_s20_c20_cd-full_matched_a60.wav","spherical","20","20","full","matched","60","50","1858"
"echo-presentation","16","251088","0.0-16.0","5fdea3ff9bf07d61c6087fdd","5fef55e628823a0076ec12ee","601f447d0cc54b494a60db00","Mozilla/5.0 (Windows NT 10.0; Win64; x64) AppleWebKit/537.36 (KHTML, like Gecko) Chrome/88.0.4324.150 Safari/537.36 Edg/88.0.705.63","v1","","","","","","","","40,50,60,70,80","media/audio/stims/spherical_300cm_s20_c20_cd-full_matched_a80.wav","spherical","20","20","full","matched","80","60","3293"
"echo-presentation","17","257125","0.0-17.0","5fdea3ff9bf07d61c6087fdd","5fef55e628823a0076ec12ee","601f447d0cc54b494a60db00","Mozilla/5.0 (Windows NT 10.0; Win64; x64) AppleWebKit/537.36 (KHTML, like Gecko) Chrome/88.0.4324.150 Safari/537.36 Edg/88.0.705.63","v1","","","","","","","","40,50,60,70,80","media/audio/stims/spherical_300cm_s20_c20_cd-full_matched_a80.wav","spherical","20","20","full","matched","80","70","4709"
"echo-presentation","18","260583","0.0-18.0","5fdea3ff9bf07d61c6087fdd","5fef55e628823a0076ec12ee","601f447d0cc54b494a60db00","Mozilla/5.0 (Windows NT 10.0; Win64; x64) AppleWebKit/537.36 (KHTML, like Gecko) Chrome/88.0.4324.150 Safari/537.36 Edg/88.0.705.63","v1","","","","","","","","40,50,60,70,80","media/audio/stims/spherical_300cm_s20_c20_cd-full_matched_a60.wav","spherical","20","20","full","matched","60","40","2317"
"echo-presentation","19","265415","0.0-19.0","5fdea3ff9bf07d61c6087fdd","5fef55e628823a0076ec12ee","601f447d0cc54b494a60db00","Mozilla/5.0 (Windows NT 10.0; Win64; x64) AppleWebKit/537.36 (KHTML, like Gecko) Chrome/88.0.4324.150 Safari/537.36 Edg/88.0.705.63","v1","","","","","","","","40,50,60,70,80","media/audio/stims/spherical_300cm_s20_c20_cd-full_matched_a80.wav","spherical","20","20","full","matched","80","50","3318"
"echo-presentation","20","268188","0.0-20.0","5fdea3ff9bf07d61c6087fdd","5fef55e628823a0076ec12ee","601f447d0cc54b494a60db00","Mozilla/5.0 (Windows NT 10.0; Win64; x64) AppleWebKit/537.36 (KHTML, like Gecko) Chrome/88.0.4324.150 Safari/537.36 Edg/88.0.705.63","v1","","","","","","","","40,50,60,70,80","media/audio/stims/spherical_300cm_s20_c20_cd-full_matched_a50.wav","spherical","20","20","full","matched","50","50","1612"
"echo-presentation","21","272016","0.0-21.0","5fdea3ff9bf07d61c6087fdd","5fef55e628823a0076ec12ee","601f447d0cc54b494a60db00","Mozilla/5.0 (Windows NT 10.0; Win64; x64) AppleWebKit/537.36 (KHTML, like Gecko) Chrome/88.0.4324.150 Safari/537.36 Edg/88.0.705.63","v1","","","","","","","","40,50,60,70,80","media/audio/stims/spherical_300cm_s20_c20_cd-full_matched_a40.wav","spherical","20","20","full","matched","40","40","2053"
"echo-presentation","22","276262","0.0-22.0","5fdea3ff9bf07d61c6087fdd","5fef55e628823a0076ec12ee","601f447d0cc54b494a60db00","Mozilla/5.0 (Windows NT 10.0; Win64; x64) AppleWebKit/537.36 (KHTML, like Gecko) Chrome/88.0.4324.150 Safari/537.36 Edg/88.0.705.63","v1","","","","","","","","40,50,60,70,80","media/audio/stims/spherical_300cm_s20_c20_cd-full_matched_a70.wav","spherical","20","20","full","matched","70","60","3118"
"echo-presentation","23","278565","0.0-23.0","5fdea3ff9bf07d61c6087fdd","5fef55e628823a0076ec12ee","601f447d0cc54b494a60db00","Mozilla/5.0 (Windows NT 10.0; Win64; x64) AppleWebKit/537.36 (KHTML, like Gecko) Chrome/88.0.4324.150 Safari/537.36 Edg/88.0.705.63","v1","","","","","","","","40,50,60,70,80","media/audio/stims/spherical_300cm_s20_c20_cd-full_matched_a60.wav","spherical","20","20","full","matched","60","50","1315"
"echo-presentation","24","282793","0.0-24.0","5fdea3ff9bf07d61c6087fdd","5fef55e628823a0076ec12ee","601f447d0cc54b494a60db00","Mozilla/5.0 (Windows NT 10.0; Win64; x64) AppleWebKit/537.36 (KHTML, like Gecko) Chrome/88.0.4324.150 Safari/537.36 Edg/88.0.705.63","v1","","","","","","","","40,50,60,70,80","media/audio/stims/spherical_300cm_s20_c20_cd-full_matched_a50.wav","spherical","20","20","full","matched","50","70","3077"
"echo-presentation","25","285614","0.0-25.0","5fdea3ff9bf07d61c6087fdd","5fef55e628823a0076ec12ee","601f447d0cc54b494a60db00","Mozilla/5.0 (Windows NT 10.0; Win64; x64) AppleWebKit/537.36 (KHTML, like Gecko) Chrome/88.0.4324.150 Safari/537.36 Edg/88.0.705.63","v1","","","","","","","","40,50,60,70,80","media/audio/stims/spherical_300cm_s20_c20_cd-full_matched_a70.wav","spherical","20","20","full","matched","70","60","1749"
"echo-presentation","26","288765","0.0-26.0","5fdea3ff9bf07d61c6087fdd","5fef55e628823a0076ec12ee","601f447d0cc54b494a60db00","Mozilla/5.0 (Windows NT 10.0; Win64; x64) AppleWebKit/537.36 (KHTML, like Gecko) Chrome/88.0.4324.150 Safari/537.36 Edg/88.0.705.63","v1","","","","","","","","40,50,60,70,80","media/audio/stims/spherical_300cm_s20_c20_cd-full_matched_a70.wav","spherical","20","20","full","matched","70","50","2179"
"echo-presentation","27","291783","0.0-27.0","5fdea3ff9bf07d61c6087fdd","5fef55e628823a0076ec12ee","601f447d0cc54b494a60db00","Mozilla/5.0 (Windows NT 10.0; Win64; x64) AppleWebKit/537.36 (KHTML, like Gecko) Chrome/88.0.4324.150 Safari/537.36 Edg/88.0.705.63","v1","","","","","","","","40,50,60,70,80","media/audio/stims/spherical_300cm_s20_c20_cd-full_matched_a50.wav","spherical","20","20","full","matched","50","50","2382"
"block-bookend","28","295369","0.0-28.0","5fdea3ff9bf07d61c6087fdd","5fef55e628823a0076ec12ee","601f447d0cc54b494a60db00","Mozilla/5.0 (Windows NT 10.0; Win64; x64) AppleWebKit/537.36 (KHTML, like Gecko) Chrome/88.0.4324.150 Safari/537.36 Edg/88.0.705.63","v1","","","","","","","","","","","","","","","","",""
"block-bookend","29","310569","0.0-29.0","5fdea3ff9bf07d61c6087fdd","5fef55e628823a0076ec12ee","601f447d0cc54b494a60db00","Mozilla/5.0 (Windows NT 10.0; Win64; x64) AppleWebKit/537.36 (KHTML, like Gecko) Chrome/88.0.4324.150 Safari/537.36 Edg/88.0.705.63","v1","","","","","","","","","","","","","","","","",""
"echo-presentation","30","317043","0.0-30.0","5fdea3ff9bf07d61c6087fdd","5fef55e628823a0076ec12ee","601f447d0cc54b494a60db00","Mozilla/5.0 (Windows NT 10.0; Win64; x64) AppleWebKit/537.36 (KHTML, like Gecko) Chrome/88.0.4324.150 Safari/537.36 Edg/88.0.705.63","v1","","","","","","","","40,50,60,70,80","media/audio/stims/spherical_300cm_s20_c20_cd-full_matched_a80.wav","spherical","20","20","full","matched","80","70","3450"
"echo-presentation","31","319654","0.0-31.0","5fdea3ff9bf07d61c6087fdd","5fef55e628823a0076ec12ee","601f447d0cc54b494a60db00","Mozilla/5.0 (Windows NT 10.0; Win64; x64) AppleWebKit/537.36 (KHTML, like Gecko) Chrome/88.0.4324.150 Safari/537.36 Edg/88.0.705.63","v1","","","","","","","","40,50,60,70,80","media/audio/stims/spherical_300cm_s20_c20_cd-full_matched_a60.wav","spherical","20","20","full","matched","60","60","1461"
"echo-presentation","32","322902","0.0-32.0","5fdea3ff9bf07d61c6087fdd","5fef55e628823a0076ec12ee","601f447d0cc54b494a60db00","Mozilla/5.0 (Windows NT 10.0; Win64; x64) AppleWebKit/537.36 (KHTML, like Gecko) Chrome/88.0.4324.150 Safari/537.36 Edg/88.0.705.63","v1","","","","","","","","40,50,60,70,80","media/audio/stims/spherical_300cm_s20_c20_cd-full_matched_a80.wav","spherical","20","20","full","matched","80","80","2078"
"echo-presentation","33","325822","0.0-33.0","5fdea3ff9bf07d61c6087fdd","5fef55e628823a0076ec12ee","601f447d0cc54b494a60db00","Mozilla/5.0 (Windows NT 10.0; Win64; x64) AppleWebKit/537.36 (KHTML, like Gecko) Chrome/88.0.4324.150 Safari/537.36 Edg/88.0.705.63","v1","","","","","","","","40,50,60,70,80","media/audio/stims/spherical_300cm_s20_c20_cd-full_matched_a60.wav","spherical","20","20","full","matched","60","70","1749"
"echo-presentation","34","328749","0.0-34.0","5fdea3ff9bf07d61c6087fdd","5fef55e628823a0076ec12ee","601f447d0cc54b494a60db00","Mozilla/5.0 (Windows NT 10.0; Win64; x64) AppleWebKit/537.36 (KHTML, like Gecko) Chrome/88.0.4324.150 Safari/537.36 Edg/88.0.705.63","v1","","","","","","","","40,50,60,70,80","media/audio/stims/spherical_300cm_s20_c20_cd-full_matched_a50.wav","spherical","20","20","full","matched","50","50","1716"
"echo-presentation","35","331406","0.0-35.0","5fdea3ff9bf07d61c6087fdd","5fef55e628823a0076ec12ee","601f447d0cc54b494a60db00","Mozilla/5.0 (Windows NT 10.0; Win64; x64) AppleWebKit/537.36 (KHTML, like Gecko) Chrome/88.0.4324.150 Safari/537.36 Edg/88.0.705.63","v1","","","","","","","","40,50,60,70,80","media/audio/stims/spherical_300cm_s20_c20_cd-full_matched_a70.wav","spherical","20","20","full","matched","70","70","1694"
"echo-presentation","36","334910","0.0-36.0","5fdea3ff9bf07d61c6087fdd","5fef55e628823a0076ec12ee","601f447d0cc54b494a60db00","Mozilla/5.0 (Windows NT 10.0; Win64; x64) AppleWebKit/537.36 (KHTML, like Gecko) Chrome/88.0.4324.150 Safari/537.36 Edg/88.0.705.63","v1","","","","","","","","40,50,60,70,80","media/audio/stims/spherical_300cm_s20_c20_cd-full_matched_a50.wav","spherical","20","20","full","matched","50","40","2318"
"echo-presentation","37","337246","0.0-37.0","5fdea3ff9bf07d61c6087fdd","5fef55e628823a0076ec12ee","601f447d0cc54b494a60db00","Mozilla/5.0 (Windows NT 10.0; Win64; x64) AppleWebKit/537.36 (KHTML, like Gecko) Chrome/88.0.4324.150 Safari/537.36 Edg/88.0.705.63","v1","","","","","","","","40,50,60,70,80","media/audio/stims/spherical_300cm_s20_c20_cd-full_matched_a50.wav","spherical","20","20","full","matched","50","50","1509"
"echo-presentation","38","341532","0.0-38.0","5fdea3ff9bf07d61c6087fdd","5fef55e628823a0076ec12ee","601f447d0cc54b494a60db00","Mozilla/5.0 (Windows NT 10.0; Win64; x64) AppleWebKit/537.36 (KHTML, like Gecko) Chrome/88.0.4324.150 Safari/537.36 Edg/88.0.705.63","v1","","","","","","","","40,50,60,70,80","media/audio/stims/spherical_300cm_s20_c20_cd-full_matched_a40.wav","spherical","20","20","full","matched","40","50","3212"
"echo-presentation","39","345798","0.0-39.0","5fdea3ff9bf07d61c6087fdd","5fef55e628823a0076ec12ee","601f447d0cc54b494a60db00","Mozilla/5.0 (Windows NT 10.0; Win64; x64) AppleWebKit/537.36 (KHTML, like Gecko) Chrome/88.0.4324.150 Safari/537.36 Edg/88.0.705.63","v1","","","","","","","","40,50,60,70,80","media/audio/stims/spherical_300cm_s20_c20_cd-full_matched_a60.wav","spherical","20","20","full","matched","60","60","3278"
"echo-presentation","40","349182","0.0-40.0","5fdea3ff9bf07d61c6087fdd","5fef55e628823a0076ec12ee","601f447d0cc54b494a60db00","Mozilla/5.0 (Windows NT 10.0; Win64; x64) AppleWebKit/537.36 (KHTML, like Gecko) Chrome/88.0.4324.150 Safari/537.36 Edg/88.0.705.63","v1","","","","","","","","40,50,60,70,80","media/audio/stims/spherical_300cm_s20_c20_cd-full_matched_a40.wav","spherical","20","20","full","matched","40","60","2350"
"echo-presentation","41","352009","0.0-41.0","5fdea3ff9bf07d61c6087fdd","5fef55e628823a0076ec12ee","601f447d0cc54b494a60db00","Mozilla/5.0 (Windows NT 10.0; Win64; x64) AppleWebKit/537.36 (KHTML, like Gecko) Chrome/88.0.4324.150 Safari/537.36 Edg/88.0.705.63","v1","","","","","","","","40,50,60,70,80","media/audio/stims/spherical_300cm_s20_c20_cd-full_matched_a80.wav","spherical","20","20","full","matched","80","80","1857"
"echo-presentation","42","354513","0.0-42.0","5fdea3ff9bf07d61c6087fdd","5fef55e628823a0076ec12ee","601f447d0cc54b494a60db00","Mozilla/5.0 (Windows NT 10.0; Win64; x64) AppleWebKit/537.36 (KHTML, like Gecko) Chrome/88.0.4324.150 Safari/537.36 Edg/88.0.705.63","v1","","","","","","","","40,50,60,70,80","media/audio/stims/spherical_300cm_s20_c20_cd-full_matched_a40.wav","spherical","20","20","full","matched","40","70","1405"
"echo-presentation","43","357414","0.0-43.0","5fdea3ff9bf07d61c6087fdd","5fef55e628823a0076ec12ee","601f447d0cc54b494a60db00","Mozilla/5.0 (Windows NT 10.0; Win64; x64) AppleWebKit/537.36 (KHTML, like Gecko) Chrome/88.0.4324.150 Safari/537.36 Edg/88.0.705.63","v1","","","","","","","","40,50,60,70,80","media/audio/stims/spherical_300cm_s20_c20_cd-full_matched_a70.wav","spherical","20","20","full","matched","70","70","2054"
"echo-presentation","44","359350","0.0-44.0","5fdea3ff9bf07d61c6087fdd","5fef55e628823a0076ec12ee","601f447d0cc54b494a60db00","Mozilla/5.0 (Windows NT 10.0; Win64; x64) AppleWebKit/537.36 (KHTML, like Gecko) Chrome/88.0.4324.150 Safari/537.36 Edg/88.0.705.63","v1","","","","","","","","40,50,60,70,80","media/audio/stims/spherical_300cm_s20_c20_cd-full_matched_a70.wav","spherical","20","20","full","matched","70","70","1390"
"echo-presentation","45","361925","0.0-45.0","5fdea3ff9bf07d61c6087fdd","5fef55e628823a0076ec12ee","601f447d0cc54b494a60db00","Mozilla/5.0 (Windows NT 10.0; Win64; x64) AppleWebKit/537.36 (KHTML, like Gecko) Chrome/88.0.4324.150 Safari/537.36 Edg/88.0.705.63","v1","","","","","","","","40,50,60,70,80","media/audio/stims/spherical_300cm_s20_c20_cd-full_matched_a50.wav","spherical","20","20","full","matched","50","60","1549"
"echo-presentation","46","364205","0.0-46.0","5fdea3ff9bf07d61c6087fdd","5fef55e628823a0076ec12ee","601f447d0cc54b494a60db00","Mozilla/5.0 (Windows NT 10.0; Win64; x64) AppleWebKit/537.36 (KHTML, like Gecko) Chrome/88.0.4324.150 Safari/537.36 Edg/88.0.705.63","v1","","","","","","","","40,50,60,70,80","media/audio/stims/spherical_300cm_s20_c20_cd-full_matched_a80.wav","spherical","20","20","full","matched","80","80","1305"
"echo-presentation","47","367472","0.0-47.0","5fdea3ff9bf07d61c6087fdd","5fef55e628823a0076ec12ee","601f447d0cc54b494a60db00","Mozilla/5.0 (Windows NT 10.0; Win64; x64) AppleWebKit/537.36 (KHTML, like Gecko) Chrome/88.0.4324.150 Safari/537.36 Edg/88.0.705.63","v1","","","","","","","","40,50,60,70,80","media/audio/stims/spherical_300cm_s20_c20_cd-full_matched_a70.wav","spherical","20","20","full","matched","70","80","2134"
"echo-presentation","48","369829","0.0-48.0","5fdea3ff9bf07d61c6087fdd","5fef55e628823a0076ec12ee","601f447d0cc54b494a60db00","Mozilla/5.0 (Windows NT 10.0; Win64; x64) AppleWebKit/537.36 (KHTML, like Gecko) Chrome/88.0.4324.150 Safari/537.36 Edg/88.0.705.63","v1","","","","","","","","40,50,60,70,80","media/audio/stims/spherical_300cm_s20_c20_cd-full_matched_a60.wav","spherical","20","20","full","matched","60","70","1373"
"echo-presentation","49","372790","0.0-49.0","5fdea3ff9bf07d61c6087fdd","5fef55e628823a0076ec12ee","601f447d0cc54b494a60db00","Mozilla/5.0 (Windows NT 10.0; Win64; x64) AppleWebKit/537.36 (KHTML, like Gecko) Chrome/88.0.4324.150 Safari/537.36 Edg/88.0.705.63","v1","","","","","","","","40,50,60,70,80","media/audio/stims/spherical_300cm_s20_c20_cd-full_matched_a40.wav","spherical","20","20","full","matched","40","70","1958"
"block-bookend","50","374692","0.0-50.0","5fdea3ff9bf07d61c6087fdd","5fef55e628823a0076ec12ee","601f447d0cc54b494a60db00","Mozilla/5.0 (Windows NT 10.0; Win64; x64) AppleWebKit/537.36 (KHTML, like Gecko) Chrome/88.0.4324.150 Safari/537.36 Edg/88.0.705.63","v1","","","","","","","","","","","","","","","","",""
"block-bookend","51","385543","0.0-51.0","5fdea3ff9bf07d61c6087fdd","5fef55e628823a0076ec12ee","601f447d0cc54b494a60db00","Mozilla/5.0 (Windows NT 10.0; Win64; x64) AppleWebKit/537.36 (KHTML, like Gecko) Chrome/88.0.4324.150 Safari/537.36 Edg/88.0.705.63","v1","","","","","","","","","","","","","","","","",""
"echo-presentation","52","391558","0.0-52.0","5fdea3ff9bf07d61c6087fdd","5fef55e628823a0076ec12ee","601f447d0cc54b494a60db00","Mozilla/5.0 (Windows NT 10.0; Win64; x64) AppleWebKit/537.36 (KHTML, like Gecko) Chrome/88.0.4324.150 Safari/537.36 Edg/88.0.705.63","v1","","","","","","","","-20,-10,0,10,20","media/audio/stims/spherical_300cm_s20_c20_cd-full_matched_a10.wav","spherical","20","20","full","matched","10","0","3421"
"echo-presentation","53","394526","0.0-53.0","5fdea3ff9bf07d61c6087fdd","5fef55e628823a0076ec12ee","601f447d0cc54b494a60db00","Mozilla/5.0 (Windows NT 10.0; Win64; x64) AppleWebKit/537.36 (KHTML, like Gecko) Chrome/88.0.4324.150 Safari/537.36 Edg/88.0.705.63","v1","","","","","","","","-20,-10,0,10,20","media/audio/stims/spherical_300cm_s20_c20_cd-full_matched_a0.wav","spherical","20","20","full","matched","0","10","1229"
"echo-presentation","54","397130","0.0-54.0","5fdea3ff9bf07d61c6087fdd","5fef55e628823a0076ec12ee","601f447d0cc54b494a60db00","Mozilla/5.0 (Windows NT 10.0; Win64; x64) AppleWebKit/537.36 (KHTML, like Gecko) Chrome/88.0.4324.150 Safari/537.36 Edg/88.0.705.63","v1","","","","","","","","-20,-10,0,10,20","media/audio/stims/spherical_300cm_s20_c20_cd-full_matched_a-10.wav","spherical","20","20","full","matched","-10","0","1433"
"echo-presentation","55","399142","0.0-55.0","5fdea3ff9bf07d61c6087fdd","5fef55e628823a0076ec12ee","601f447d0cc54b494a60db00","Mozilla/5.0 (Windows NT 10.0; Win64; x64) AppleWebKit/537.36 (KHTML, like Gecko) Chrome/88.0.4324.150 Safari/537.36 Edg/88.0.705.63","v1","","","","","","","","-20,-10,0,10,20","media/audio/stims/spherical_300cm_s20_c20_cd-full_matched_a0.wav","spherical","20","20","full","matched","0","0","1326"
"echo-presentation","56","400934","0.0-56.0","5fdea3ff9bf07d61c6087fdd","5fef55e628823a0076ec12ee","601f447d0cc54b494a60db00","Mozilla/5.0 (Windows NT 10.0; Win64; x64) AppleWebKit/537.36 (KHTML, like Gecko) Chrome/88.0.4324.150 Safari/537.36 Edg/88.0.705.63","v1","","","","","","","","-20,-10,0,10,20","media/audio/stims/spherical_300cm_s20_c20_cd-full_matched_a20.wav","spherical","20","20","full","matched","20","-10","1126"
"echo-presentation","57","403032","0.0-57.0","5fdea3ff9bf07d61c6087fdd","5fef55e628823a0076ec12ee","601f447d0cc54b494a60db00","Mozilla/5.0 (Windows NT 10.0; Win64; x64) AppleWebKit/537.36 (KHTML, like Gecko) Chrome/88.0.4324.150 Safari/537.36 Edg/88.0.705.63","v1","","","","","","","","-20,-10,0,10,20","media/audio/stims/spherical_300cm_s20_c20_cd-full_matched_a10.wav","spherical","20","20","full","matched","10","-10","1189"
"echo-presentation","58","405710","0.0-58.0","5fdea3ff9bf07d61c6087fdd","5fef55e628823a0076ec12ee","601f447d0cc54b494a60db00","Mozilla/5.0 (Windows NT 10.0; Win64; x64) AppleWebKit/537.36 (KHTML, like Gecko) Chrome/88.0.4324.150 Safari/537.36 Edg/88.0.705.63","v1","","","","","","","","-20,-10,0,10,20","media/audio/stims/spherical_300cm_s20_c20_cd-full_matched_a-10.wav","spherical","20","20","full","matched","-10","0","1854"
"echo-presentation","59","409053","0.0-59.0","5fdea3ff9bf07d61c6087fdd","5fef55e628823a0076ec12ee","601f447d0cc54b494a60db00","Mozilla/5.0 (Windows NT 10.0; Win64; x64) AppleWebKit/537.36 (KHTML, like Gecko) Chrome/88.0.4324.150 Safari/537.36 Edg/88.0.705.63","v1","","","","","","","","-20,-10,0,10,20","media/audio/stims/spherical_300cm_s20_c20_cd-full_matched_a-20.wav","spherical","20","20","full","matched","-20","0","2564"
"echo-presentation","60","413375","0.0-60.0","5fdea3ff9bf07d61c6087fdd","5fef55e628823a0076ec12ee","601f447d0cc54b494a60db00","Mozilla/5.0 (Windows NT 10.0; Win64; x64) AppleWebKit/537.36 (KHTML, like Gecko) Chrome/88.0.4324.150 Safari/537.36 Edg/88.0.705.63","v1","","","","","","","","-20,-10,0,10,20","media/audio/stims/spherical_300cm_s20_c20_cd-full_matched_a-10.wav","spherical","20","20","full","matched","-10","0","1388"
"echo-presentation","61","415613","0.0-61.0","5fdea3ff9bf07d61c6087fdd","5fef55e628823a0076ec12ee","601f447d0cc54b494a60db00","Mozilla/5.0 (Windows NT 10.0; Win64; x64) AppleWebKit/537.36 (KHTML, like Gecko) Chrome/88.0.4324.150 Safari/537.36 Edg/88.0.705.63","v1","","","","","","","","-20,-10,0,10,20","media/audio/stims/spherical_300cm_s20_c20_cd-full_matched_a-20.wav","spherical","20","20","full","matched","-20","-10","1389"
"echo-presentation","62","417912","0.0-62.0","5fdea3ff9bf07d61c6087fdd","5fef55e628823a0076ec12ee","601f447d0cc54b494a60db00","Mozilla/5.0 (Windows NT 10.0; Win64; x64) AppleWebKit/537.36 (KHTML, like Gecko) Chrome/88.0.4324.150 Safari/537.36 Edg/88.0.705.63","v1","","","","","","","","-20,-10,0,10,20","media/audio/stims/spherical_300cm_s20_c20_cd-full_matched_a0.wav","spherical","20","20","full","matched","0","-10","1262"
"echo-presentation","63","420435","0.0-63.0","5fdea3ff9bf07d61c6087fdd","5fef55e628823a0076ec12ee","601f447d0cc54b494a60db00","Mozilla/5.0 (Windows NT 10.0; Win64; x64) AppleWebKit/537.36 (KHTML, like Gecko) Chrome/88.0.4324.150 Safari/537.36 Edg/88.0.705.63","v1","","","","","","","","-20,-10,0,10,20","media/audio/stims/spherical_300cm_s20_c20_cd-full_matched_a-20.wav","spherical","20","20","full","matched","-20","0","1435"
"echo-presentation","64","422310","0.0-64.0","5fdea3ff9bf07d61c6087fdd","5fef55e628823a0076ec12ee","601f447d0cc54b494a60db00","Mozilla/5.0 (Windows NT 10.0; Win64; x64) AppleWebKit/537.36 (KHTML, like Gecko) Chrome/88.0.4324.150 Safari/537.36 Edg/88.0.705.63","v1","","","","","","","","-20,-10,0,10,20","media/audio/stims/spherical_300cm_s20_c20_cd-full_matched_a0.wav","spherical","20","20","full","matched","0","0","1029"
"echo-presentation","65","424061","0.0-65.0","5fdea3ff9bf07d61c6087fdd","5fef55e628823a0076ec12ee","601f447d0cc54b494a60db00","Mozilla/5.0 (Windows NT 10.0; Win64; x64) AppleWebKit/537.36 (KHTML, like Gecko) Chrome/88.0.4324.150 Safari/537.36 Edg/88.0.705.63","v1","","","","","","","","-20,-10,0,10,20","media/audio/stims/spherical_300cm_s20_c20_cd-full_matched_a20.wav","spherical","20","20","full","matched","20","0","1021"
"echo-presentation","66","426542","0.0-66.0","5fdea3ff9bf07d61c6087fdd","5fef55e628823a0076ec12ee","601f447d0cc54b494a60db00","Mozilla/5.0 (Windows NT 10.0; Win64; x64) AppleWebKit/537.36 (KHTML, like Gecko) Chrome/88.0.4324.150 Safari/537.36 Edg/88.0.705.63","v1","","","","","","","","-20,-10,0,10,20","media/audio/stims/spherical_300cm_s20_c20_cd-full_matched_a20.wav","spherical","20","20","full","matched","20","0","1645"
"echo-presentation","67","429271","0.0-67.0","5fdea3ff9bf07d61c6087fdd","5fef55e628823a0076ec12ee","601f447d0cc54b494a60db00","Mozilla/5.0 (Windows NT 10.0; Win64; x64) AppleWebKit/537.36 (KHTML, like Gecko) Chrome/88.0.4324.150 Safari/537.36 Edg/88.0.705.63","v1","","","","","","","","-20,-10,0,10,20","media/audio/stims/spherical_300cm_s20_c20_cd-full_matched_a-10.wav","spherical","20","20","full","matched","-10","10","1894"
"echo-presentation","68","431756","0.0-68.0","5fdea3ff9bf07d61c6087fdd","5fef55e628823a0076ec12ee","601f447d0cc54b494a60db00","Mozilla/5.0 (Windows NT 10.0; Win64; x64) AppleWebKit/537.36 (KHTML, like Gecko) Chrome/88.0.4324.150 Safari/537.36 Edg/88.0.705.63","v1","","","","","","","","-20,-10,0,10,20","media/audio/stims/spherical_300cm_s20_c20_cd-full_matched_a20.wav","spherical","20","20","full","matched","20","0","1885"
"echo-presentation","69","433525","0.0-69.0","5fdea3ff9bf07d61c6087fdd","5fef55e628823a0076ec12ee","601f447d0cc54b494a60db00","Mozilla/5.0 (Windows NT 10.0; Win64; x64) AppleWebKit/537.36 (KHTML, like Gecko) Chrome/88.0.4324.150 Safari/537.36 Edg/88.0.705.63","v1","","","","","","","","-20,-10,0,10,20","media/audio/stims/spherical_300cm_s20_c20_cd-full_matched_a-20.wav","spherical","20","20","full","matched","-20","0","1246"
"echo-presentation","70","437334","0.0-70.0","5fdea3ff9bf07d61c6087fdd","5fef55e628823a0076ec12ee","601f447d0cc54b494a60db00","Mozilla/5.0 (Windows NT 10.0; Win64; x64) AppleWebKit/537.36 (KHTML, like Gecko) Chrome/88.0.4324.150 Safari/537.36 Edg/88.0.705.63","v1","","","","","","","","-20,-10,0,10,20","media/audio/stims/spherical_300cm_s20_c20_cd-full_matched_a10.wav","spherical","20","20","full","matched","10","20","2117"
"echo-presentation","71","440342","0.0-71.0","5fdea3ff9bf07d61c6087fdd","5fef55e628823a0076ec12ee","601f447d0cc54b494a60db00","Mozilla/5.0 (Windows NT 10.0; Win64; x64) AppleWebKit/537.36 (KHTML, like Gecko) Chrome/88.0.4324.150 Safari/537.36 Edg/88.0.705.63","v1","","","","","","","","-20,-10,0,10,20","media/audio/stims/spherical_300cm_s20_c20_cd-full_matched_a10.wav","spherical","20","20","full","matched","10","10","1798"
"block-bookend","72","441783","0.0-72.0","5fdea3ff9bf07d61c6087fdd","5fef55e628823a0076ec12ee","601f447d0cc54b494a60db00","Mozilla/5.0 (Windows NT 10.0; Win64; x64) AppleWebKit/537.36 (KHTML, like Gecko) Chrome/88.0.4324.150 Safari/537.36 Edg/88.0.705.63","v1","","","","","","","","","","","","","","","","",""
"block-bookend","73","449129","0.0-73.0","5fdea3ff9bf07d61c6087fdd","5fef55e628823a0076ec12ee","601f447d0cc54b494a60db00","Mozilla/5.0 (Windows NT 10.0; Win64; x64) AppleWebKit/537.36 (KHTML, like Gecko) Chrome/88.0.4324.150 Safari/537.36 Edg/88.0.705.63","v1","","","","","","","","","","","","","","","","",""
"echo-presentation","74","453949","0.0-74.0","5fdea3ff9bf07d61c6087fdd","5fef55e628823a0076ec12ee","601f447d0cc54b494a60db00","Mozilla/5.0 (Windows NT 10.0; Win64; x64) AppleWebKit/537.36 (KHTML, like Gecko) Chrome/88.0.4324.150 Safari/537.36 Edg/88.0.705.63","v1","","","","","","","","-20,-10,0,10,20","media/audio/stims/spherical_300cm_s20_c20_cd-full_matched_a0.wav","spherical","20","20","full","matched","0","-10","3163"
"echo-presentation","75","458159","0.0-75.0","5fdea3ff9bf07d61c6087fdd","5fef55e628823a0076ec12ee","601f447d0cc54b494a60db00","Mozilla/5.0 (Windows NT 10.0; Win64; x64) AppleWebKit/537.36 (KHTML, like Gecko) Chrome/88.0.4324.150 Safari/537.36 Edg/88.0.705.63","v1","","","","","","","","-20,-10,0,10,20","media/audio/stims/spherical_300cm_s20_c20_cd-full_matched_a-20.wav","spherical","20","20","full","matched","-20","10","2429"
"echo-presentation","76","460494","0.0-76.0","5fdea3ff9bf07d61c6087fdd","5fef55e628823a0076ec12ee","601f447d0cc54b494a60db00","Mozilla/5.0 (Windows NT 10.0; Win64; x64) AppleWebKit/537.36 (KHTML, like Gecko) Chrome/88.0.4324.150 Safari/537.36 Edg/88.0.705.63","v1","","","","","","","","-20,-10,0,10,20","media/audio/stims/spherical_300cm_s20_c20_cd-full_matched_a0.wav","spherical","20","20","full","matched","0","0","1142"
"echo-presentation","77","462471","0.0-77.0","5fdea3ff9bf07d61c6087fdd","5fef55e628823a0076ec12ee","601f447d0cc54b494a60db00","Mozilla/5.0 (Windows NT 10.0; Win64; x64) AppleWebKit/537.36 (KHTML, like Gecko) Chrome/88.0.4324.150 Safari/537.36 Edg/88.0.705.63","v1","","","","","","","","-20,-10,0,10,20","media/audio/stims/spherical_300cm_s20_c20_cd-full_matched_a10.wav","spherical","20","20","full","matched","10","10","1126"
"echo-presentation","78","464493","0.0-78.0","5fdea3ff9bf07d61c6087fdd","5fef55e628823a0076ec12ee","601f447d0cc54b494a60db00","Mozilla/5.0 (Windows NT 10.0; Win64; x64) AppleWebKit/537.36 (KHTML, like Gecko) Chrome/88.0.4324.150 Safari/537.36 Edg/88.0.705.63","v1","","","","","","","","-20,-10,0,10,20","media/audio/stims/spherical_300cm_s20_c20_cd-full_matched_a-10.wav","spherical","20","20","full","matched","-10","10","1132"
"echo-presentation","79","466583","0.0-79.0","5fdea3ff9bf07d61c6087fdd","5fef55e628823a0076ec12ee","601f447d0cc54b494a60db00","Mozilla/5.0 (Windows NT 10.0; Win64; x64) AppleWebKit/537.36 (KHTML, like Gecko) Chrome/88.0.4324.150 Safari/537.36 Edg/88.0.705.63","v1","","","","","","","","-20,-10,0,10,20","media/audio/stims/spherical_300cm_s20_c20_cd-full_matched_a10.wav","spherical","20","20","full","matched","10","10","1245"
"echo-presentation","80","468758","0.0-80.0","5fdea3ff9bf07d61c6087fdd","5fef55e628823a0076ec12ee","601f447d0cc54b494a60db00","Mozilla/5.0 (Windows NT 10.0; Win64; x64) AppleWebKit/537.36 (KHTML, like Gecko) Chrome/88.0.4324.150 Safari/537.36 Edg/88.0.705.63","v1","","","","","","","","-20,-10,0,10,20","media/audio/stims/spherical_300cm_s20_c20_cd-full_matched_a-10.wav","spherical","20","20","full","matched","-10","0","1310"
"echo-presentation","81","470614","0.0-81.0","5fdea3ff9bf07d61c6087fdd","5fef55e628823a0076ec12ee","601f447d0cc54b494a60db00","Mozilla/5.0 (Windows NT 10.0; Win64; x64) AppleWebKit/537.36 (KHTML, like Gecko) Chrome/88.0.4324.150 Safari/537.36 Edg/88.0.705.63","v1","","","","","","","","-20,-10,0,10,20","media/audio/stims/spherical_300cm_s20_c20_cd-full_matched_a10.wav","spherical","20","20","full","matched","10","-10","1005"
"echo-presentation","82","472815","0.0-82.0","5fdea3ff9bf07d61c6087fdd","5fef55e628823a0076ec12ee","601f447d0cc54b494a60db00","Mozilla/5.0 (Windows NT 10.0; Win64; x64) AppleWebKit/537.36 (KHTML, like Gecko) Chrome/88.0.4324.150 Safari/537.36 Edg/88.0.705.63","v1","","","","","","","","-20,-10,0,10,20","media/audio/stims/spherical_300cm_s20_c20_cd-full_matched_a-20.wav","spherical","20","20","full","matched","-20","0","1126"
"echo-presentation","83","474373","0.0-83.0","5fdea3ff9bf07d61c6087fdd","5fef55e628823a0076ec12ee","601f447d0cc54b494a60db00","Mozilla/5.0 (Windows NT 10.0; Win64; x64) AppleWebKit/537.36 (KHTML, like Gecko) Chrome/88.0.4324.150 Safari/537.36 Edg/88.0.705.63","v1","","","","","","","","-20,-10,0,10,20","media/audio/stims/spherical_300cm_s20_c20_cd-full_matched_a0.wav","spherical","20","20","full","matched","0","-10","950"
"echo-presentation","84","476087","0.0-84.0","5fdea3ff9bf07d61c6087fdd","5fef55e628823a0076ec12ee","601f447d0cc54b494a60db00","Mozilla/5.0 (Windows NT 10.0; Win64; x64) AppleWebKit/537.36 (KHTML, like Gecko) Chrome/88.0.4324.150 Safari/537.36 Edg/88.0.705.63","v1","","","","","","","","-20,-10,0,10,20","media/audio/stims/spherical_300cm_s20_c20_cd-full_matched_a-20.wav","spherical","20","20","full","matched","-20","-10","985"
"echo-presentation","85","477613","0.0-85.0","5fdea3ff9bf07d61c6087fdd","5fef55e628823a0076ec12ee","601f447d0cc54b494a60db00","Mozilla/5.0 (Windows NT 10.0; Win64; x64) AppleWebKit/537.36 (KHTML, like Gecko) Chrome/88.0.4324.150 Safari/537.36 Edg/88.0.705.63","v1","","","","","","","","-20,-10,0,10,20","media/audio/stims/spherical_300cm_s20_c20_cd-full_matched_a-10.wav","spherical","20","20","full","matched","-10","0","982"
"echo-presentation","86","479431","0.0-86.0","5fdea3ff9bf07d61c6087fdd","5fef55e628823a0076ec12ee","601f447d0cc54b494a60db00","Mozilla/5.0 (Windows NT 10.0; Win64; x64) AppleWebKit/537.36 (KHTML, like Gecko) Chrome/88.0.4324.150 Safari/537.36 Edg/88.0.705.63","v1","","","","","","","","-20,-10,0,10,20","media/audio/stims/spherical_300cm_s20_c20_cd-full_matched_a10.wav","spherical","20","20","full","matched","10","0","1270"
"echo-presentation","87","482808","0.0-87.0","5fdea3ff9bf07d61c6087fdd","5fef55e628823a0076ec12ee","601f447d0cc54b494a60db00","Mozilla/5.0 (Windows NT 10.0; Win64; x64) AppleWebKit/537.36 (KHTML, like Gecko) Chrome/88.0.4324.150 Safari/537.36 Edg/88.0.705.63","v1","","","","","","","","-20,-10,0,10,20","media/audio/stims/spherical_300cm_s20_c20_cd-full_matched_a-20.wav","spherical","20","20","full","matched","-20","10","1902"
"echo-presentation","88","484941","0.0-88.0","5fdea3ff9bf07d61c6087fdd","5fef55e628823a0076ec12ee","601f447d0cc54b494a60db00","Mozilla/5.0 (Windows NT 10.0; Win64; x64) AppleWebKit/537.36 (KHTML, like Gecko) Chrome/88.0.4324.150 Safari/537.36 Edg/88.0.705.63","v1","","","","","","","","-20,-10,0,10,20","media/audio/stims/spherical_300cm_s20_c20_cd-full_matched_a-10.wav","spherical","20","20","full","matched","-10","10","1293"
"echo-presentation","89","487501","0.0-89.0","5fdea3ff9bf07d61c6087fdd","5fef55e628823a0076ec12ee","601f447d0cc54b494a60db00","Mozilla/5.0 (Windows NT 10.0; Win64; x64) AppleWebKit/537.36 (KHTML, like Gecko) Chrome/88.0.4324.150 Safari/537.36 Edg/88.0.705.63","v1","","","","","","","","-20,-10,0,10,20","media/audio/stims/spherical_300cm_s20_c20_cd-full_matched_a20.wav","spherical","20","20","full","matched","20","0","1270"
"echo-presentation","90","490350","0.0-90.0","5fdea3ff9bf07d61c6087fdd","5fef55e628823a0076ec12ee","601f447d0cc54b494a60db00","Mozilla/5.0 (Windows NT 10.0; Win64; x64) AppleWebKit/537.36 (KHTML, like Gecko) Chrome/88.0.4324.150 Safari/537.36 Edg/88.0.705.63","v1","","","","","","","","-20,-10,0,10,20","media/audio/stims/spherical_300cm_s20_c20_cd-full_matched_a0.wav","spherical","20","20","full","matched","0","10","1982"
"echo-presentation","91","492062","0.0-91.0","5fdea3ff9bf07d61c6087fdd","5fef55e628823a0076ec12ee","601f447d0cc54b494a60db00","Mozilla/5.0 (Windows NT 10.0; Win64; x64) AppleWebKit/537.36 (KHTML, like Gecko) Chrome/88.0.4324.150 Safari/537.36 Edg/88.0.705.63","v1","","","","","","","","-20,-10,0,10,20","media/audio/stims/spherical_300cm_s20_c20_cd-full_matched_a20.wav","spherical","20","20","full","matched","20","0","1111"
"echo-presentation","92","494357","0.0-92.0","5fdea3ff9bf07d61c6087fdd","5fef55e628823a0076ec12ee","601f447d0cc54b494a60db00","Mozilla/5.0 (Windows NT 10.0; Win64; x64) AppleWebKit/537.36 (KHTML, like Gecko) Chrome/88.0.4324.150 Safari/537.36 Edg/88.0.705.63","v1","","","","","","","","-20,-10,0,10,20","media/audio/stims/spherical_300cm_s20_c20_cd-full_matched_a20.wav","spherical","20","20","full","matched","20","0","1613"
"echo-presentation","93","496998","0.0-93.0","5fdea3ff9bf07d61c6087fdd","5fef55e628823a0076ec12ee","601f447d0cc54b494a60db00","Mozilla/5.0 (Windows NT 10.0; Win64; x64) AppleWebKit/537.36 (KHTML, like Gecko) Chrome/88.0.4324.150 Safari/537.36 Edg/88.0.705.63","v1","","","","","","","","-20,-10,0,10,20","media/audio/stims/spherical_300cm_s20_c20_cd-full_matched_a20.wav","spherical","20","20","full","matched","20","-10","1080"
"block-bookend","94","499033","0.0-94.0","5fdea3ff9bf07d61c6087fdd","5fef55e628823a0076ec12ee","601f447d0cc54b494a60db00","Mozilla/5.0 (Windows NT 10.0; Win64; x64) AppleWebKit/537.36 (KHTML, like Gecko) Chrome/88.0.4324.150 Safari/537.36 Edg/88.0.705.63","v1","","","","","","","","","","","","","","","","",""
"block-bookend","95","505615","0.0-95.0","5fdea3ff9bf07d61c6087fdd","5fef55e628823a0076ec12ee","601f447d0cc54b494a60db00","Mozilla/5.0 (Windows NT 10.0; Win64; x64) AppleWebKit/537.36 (KHTML, like Gecko) Chrome/88.0.4324.150 Safari/537.36 Edg/88.0.705.63","v1","","","","","","","","","","","","","","","","",""
"echo-presentation","96","513118","0.0-96.0","5fdea3ff9bf07d61c6087fdd","5fef55e628823a0076ec12ee","601f447d0cc54b494a60db00","Mozilla/5.0 (Windows NT 10.0; Win64; x64) AppleWebKit/537.36 (KHTML, like Gecko) Chrome/88.0.4324.150 Safari/537.36 Edg/88.0.705.63","v1","","","","","","","","-80,-70,-60,-50,-40","media/audio/stims/spherical_300cm_s20_c20_cd-full_matched_a-50.wav","spherical","20","20","full","matched","-50","-60","5901"
"echo-presentation","97","515982","0.0-97.0","5fdea3ff9bf07d61c6087fdd","5fef55e628823a0076ec12ee","601f447d0cc54b494a60db00","Mozilla/5.0 (Windows NT 10.0; Win64; x64) AppleWebKit/537.36 (KHTML, like Gecko) Chrome/88.0.4324.150 Safari/537.36 Edg/88.0.705.63","v1","","","","","","","","-80,-70,-60,-50,-40","media/audio/stims/spherical_300cm_s20_c20_cd-full_matched_a-60.wav","spherical","20","20","full","matched","-60","-70","1733"
"echo-presentation","98","518277","0.0-98.0","5fdea3ff9bf07d61c6087fdd","5fef55e628823a0076ec12ee","601f447d0cc54b494a60db00","Mozilla/5.0 (Windows NT 10.0; Win64; x64) AppleWebKit/537.36 (KHTML, like Gecko) Chrome/88.0.4324.150 Safari/537.36 Edg/88.0.705.63","v1","","","","","","","","-80,-70,-60,-50,-40","media/audio/stims/spherical_300cm_s20_c20_cd-full_matched_a-50.wav","spherical","20","20","full","matched","-50","-70","1262"
"echo-presentation","99","520453","0.0-99.0","5fdea3ff9bf07d61c6087fdd","5fef55e628823a0076ec12ee","601f447d0cc54b494a60db00","Mozilla/5.0 (Windows NT 10.0; Win64; x64) AppleWebKit/537.36 (KHTML, like Gecko) Chrome/88.0.4324.150 Safari/537.36 Edg/88.0.705.63","v1","","","","","","","","-80,-70,-60,-50,-40","media/audio/stims/spherical_300cm_s20_c20_cd-full_matched_a-60.wav","spherical","20","20","full","matched","-60","-70","1389"
"echo-presentation","100","525231","0.0-100.0","5fdea3ff9bf07d61c6087fdd","5fef55e628823a0076ec12ee","601f447d0cc54b494a60db00","Mozilla/5.0 (Windows NT 10.0; Win64; x64) AppleWebKit/537.36 (KHTML, like Gecko) Chrome/88.0.4324.150 Safari/537.36 Edg/88.0.705.63","v1","","","","","","","","-80,-70,-60,-50,-40","media/audio/stims/spherical_300cm_s20_c20_cd-full_matched_a-40.wav","spherical","20","20","full","matched","-40","-60","3989"
"echo-presentation","101","527835","0.0-101.0","5fdea3ff9bf07d61c6087fdd","5fef55e628823a0076ec12ee","601f447d0cc54b494a60db00","Mozilla/5.0 (Windows NT 10.0; Win64; x64) AppleWebKit/537.36 (KHTML, like Gecko) Chrome/88.0.4324.150 Safari/537.36 Edg/88.0.705.63","v1","","","","","","","","-80,-70,-60,-50,-40","media/audio/stims/spherical_300cm_s20_c20_cd-full_matched_a-80.wav","spherical","20","20","full","matched","-80","-70","1553"
"echo-presentation","102","530655","0.0-102.0","5fdea3ff9bf07d61c6087fdd","5fef55e628823a0076ec12ee","601f447d0cc54b494a60db00","Mozilla/5.0 (Windows NT 10.0; Win64; x64) AppleWebKit/537.36 (KHTML, like Gecko) Chrome/88.0.4324.150 Safari/537.36 Edg/88.0.705.63","v1","","","","","","","","-80,-70,-60,-50,-40","media/audio/stims/spherical_300cm_s20_c20_cd-full_matched_a-70.wav","spherical","20","20","full","matched","-70","-60","1997"
"echo-presentation","103","532998","0.0-103.0","5fdea3ff9bf07d61c6087fdd","5fef55e628823a0076ec12ee","601f447d0cc54b494a60db00","Mozilla/5.0 (Windows NT 10.0; Win64; x64) AppleWebKit/537.36 (KHTML, like Gecko) Chrome/88.0.4324.150 Safari/537.36 Edg/88.0.705.63","v1","","","","","","","","-80,-70,-60,-50,-40","media/audio/stims/spherical_300cm_s20_c20_cd-full_matched_a-50.wav","spherical","20","20","full","matched","-50","-60","1677"
"echo-presentation","104","535054","0.0-104.0","5fdea3ff9bf07d61c6087fdd","5fef55e628823a0076ec12ee","601f447d0cc54b494a60db00","Mozilla/5.0 (Windows NT 10.0; Win64; x64) AppleWebKit/537.36 (KHTML, like Gecko) Chrome/88.0.4324.150 Safari/537.36 Edg/88.0.705.63","v1","","","","","","","","-80,-70,-60,-50,-40","media/audio/stims/spherical_300cm_s20_c20_cd-full_matched_a-60.wav","spherical","20","20","full","matched","-60","-50","1253"
"echo-presentation","105","537061","0.0-105.0","5fdea3ff9bf07d61c6087fdd","5fef55e628823a0076ec12ee","601f447d0cc54b494a60db00","Mozilla/5.0 (Windows NT 10.0; Win64; x64) AppleWebKit/537.36 (KHTML, like Gecko) Chrome/88.0.4324.150 Safari/537.36 Edg/88.0.705.63","v1","","","","","","","","-80,-70,-60,-50,-40","media/audio/stims/spherical_300cm_s20_c20_cd-full_matched_a-50.wav","spherical","20","20","full","matched","-50","-60","1245"
"echo-presentation","106","540815","0.0-106.0","5fdea3ff9bf07d61c6087fdd","5fef55e628823a0076ec12ee","601f447d0cc54b494a60db00","Mozilla/5.0 (Windows NT 10.0; Win64; x64) AppleWebKit/537.36 (KHTML, like Gecko) Chrome/88.0.4324.150 Safari/537.36 Edg/88.0.705.63","v1","","","","","","","","-80,-70,-60,-50,-40","media/audio/stims/spherical_300cm_s20_c20_cd-full_matched_a-70.wav","spherical","20","20","full","matched","-70","-70","1721"
"echo-presentation","107","543454","0.0-107.0","5fdea3ff9bf07d61c6087fdd","5fef55e628823a0076ec12ee","601f447d0cc54b494a60db00","Mozilla/5.0 (Windows NT 10.0; Win64; x64) AppleWebKit/537.36 (KHTML, like Gecko) Chrome/88.0.4324.150 Safari/537.36 Edg/88.0.705.63","v1","","","","","","","","-80,-70,-60,-50,-40","media/audio/stims/spherical_300cm_s20_c20_cd-full_matched_a-70.wav","spherical","20","20","full","matched","-70","-70","1669"
"echo-presentation","108","545758","0.0-108.0","5fdea3ff9bf07d61c6087fdd","5fef55e628823a0076ec12ee","601f447d0cc54b494a60db00","Mozilla/5.0 (Windows NT 10.0; Win64; x64) AppleWebKit/537.36 (KHTML, like Gecko) Chrome/88.0.4324.150 Safari/537.36 Edg/88.0.705.63","v1","","","","","","","","-80,-70,-60,-50,-40","media/audio/stims/spherical_300cm_s20_c20_cd-full_matched_a-80.wav","spherical","20","20","full","matched","-80","-80","1205"
"echo-presentation","109","548846","0.0-109.0","5fdea3ff9bf07d61c6087fdd","5fef55e628823a0076ec12ee","601f447d0cc54b494a60db00","Mozilla/5.0 (Windows NT 10.0; Win64; x64) AppleWebKit/537.36 (KHTML, like Gecko) Chrome/88.0.4324.150 Safari/537.36 Edg/88.0.705.63","v1","","","","","","","","-80,-70,-60,-50,-40","media/audio/stims/spherical_300cm_s20_c20_cd-full_matched_a-40.wav","spherical","20","20","full","matched","-40","-50","1942"
"echo-presentation","110","551037","0.0-110.0","5fdea3ff9bf07d61c6087fdd","5fef55e628823a0076ec12ee","601f447d0cc54b494a60db00","Mozilla/5.0 (Windows NT 10.0; Win64; x64) AppleWebKit/537.36 (KHTML, like Gecko) Chrome/88.0.4324.150 Safari/537.36 Edg/88.0.705.63","v1","","","","","","","","-80,-70,-60,-50,-40","media/audio/stims/spherical_300cm_s20_c20_cd-full_matched_a-40.wav","spherical","20","20","full","matched","-40","-50","1424"
"echo-presentation","111","553077","0.0-111.0","5fdea3ff9bf07d61c6087fdd","5fef55e628823a0076ec12ee","601f447d0cc54b494a60db00","Mozilla/5.0 (Windows NT 10.0; Win64; x64) AppleWebKit/537.36 (KHTML, like Gecko) Chrome/88.0.4324.150 Safari/537.36 Edg/88.0.705.63","v1","","","","","","","","-80,-70,-60,-50,-40","media/audio/stims/spherical_300cm_s20_c20_cd-full_matched_a-60.wav","spherical","20","20","full","matched","-60","-60","1390"
"echo-presentation","112","554934","0.0-112.0","5fdea3ff9bf07d61c6087fdd","5fef55e628823a0076ec12ee","601f447d0cc54b494a60db00","Mozilla/5.0 (Windows NT 10.0; Win64; x64) AppleWebKit/537.36 (KHTML, like Gecko) Chrome/88.0.4324.150 Safari/537.36 Edg/88.0.705.63","v1","","","","","","","","-80,-70,-60,-50,-40","media/audio/stims/spherical_300cm_s20_c20_cd-full_matched_a-80.wav","spherical","20","20","full","matched","-80","-70","1310"
"echo-presentation","113","557550","0.0-113.0","5fdea3ff9bf07d61c6087fdd","5fef55e628823a0076ec12ee","601f447d0cc54b494a60db00","Mozilla/5.0 (Windows NT 10.0; Win64; x64) AppleWebKit/537.36 (KHTML, like Gecko) Chrome/88.0.4324.150 Safari/537.36 Edg/88.0.705.63","v1","","","","","","","","-80,-70,-60,-50,-40","media/audio/stims/spherical_300cm_s20_c20_cd-full_matched_a-80.wav","spherical","20","20","full","matched","-80","-70","1366"
"echo-presentation","114","560196","0.0-114.0","5fdea3ff9bf07d61c6087fdd","5fef55e628823a0076ec12ee","601f447d0cc54b494a60db00","Mozilla/5.0 (Windows NT 10.0; Win64; x64) AppleWebKit/537.36 (KHTML, like Gecko) Chrome/88.0.4324.150 Safari/537.36 Edg/88.0.705.63","v1","","","","","","","","-80,-70,-60,-50,-40","media/audio/stims/spherical_300cm_s20_c20_cd-full_matched_a-70.wav","spherical","20","20","full","matched","-70","-70","1772"
"echo-presentation","115","563317","0.0-115.0","5fdea3ff9bf07d61c6087fdd","5fef55e628823a0076ec12ee","601f447d0cc54b494a60db00","Mozilla/5.0 (Windows NT 10.0; Win64; x64) AppleWebKit/537.36 (KHTML, like Gecko) Chrome/88.0.4324.150 Safari/537.36 Edg/88.0.705.63","v1","","","","","","","","-80,-70,-60,-50,-40","media/audio/stims/spherical_300cm_s20_c20_cd-full_matched_a-40.wav","spherical","20","20","full","matched","-40","-50","1837"
"block-bookend","116","564409","0.0-116.0","5fdea3ff9bf07d61c6087fdd","5fef55e628823a0076ec12ee","601f447d0cc54b494a60db00","Mozilla/5.0 (Windows NT 10.0; Win64; x64) AppleWebKit/537.36 (KHTML, like Gecko) Chrome/88.0.4324.150 Safari/537.36 Edg/88.0.705.63","v1","","","","","","","","","","","","","","","","",""
"block-bookend","117","569064","0.0-117.0","5fdea3ff9bf07d61c6087fdd","5fef55e628823a0076ec12ee","601f447d0cc54b494a60db00","Mozilla/5.0 (Windows NT 10.0; Win64; x64) AppleWebKit/537.36 (KHTML, like Gecko) Chrome/88.0.4324.150 Safari/537.36 Edg/88.0.705.63","v1","","","","","","","","","","","","","","","","",""
"echo-presentation","118","577086","0.0-118.0","5fdea3ff9bf07d61c6087fdd","5fef55e628823a0076ec12ee","601f447d0cc54b494a60db00","Mozilla/5.0 (Windows NT 10.0; Win64; x64) AppleWebKit/537.36 (KHTML, like Gecko) Chrome/88.0.4324.150 Safari/537.36 Edg/88.0.705.63","v1","","","","","","","","-80,-70,-60,-50,-40","media/audio/stims/spherical_300cm_s20_c20_cd-full_matched_a-80.wav","spherical","20","20","full","matched","-80","-40","4673"
"echo-presentation","119","581277","0.0-119.0","5fdea3ff9bf07d61c6087fdd","5fef55e628823a0076ec12ee","601f447d0cc54b494a60db00","Mozilla/5.0 (Windows NT 10.0; Win64; x64) AppleWebKit/537.36 (KHTML, like Gecko) Chrome/88.0.4324.150 Safari/537.36 Edg/88.0.705.63","v1","","","","","","","","-80,-70,-60,-50,-40","media/audio/stims/spherical_300cm_s20_c20_cd-full_matched_a-80.wav","spherical","20","20","full","matched","-80","-60","2221"
"echo-presentation","120","583154","0.0-120.0","5fdea3ff9bf07d61c6087fdd","5fef55e628823a0076ec12ee","601f447d0cc54b494a60db00","Mozilla/5.0 (Windows NT 10.0; Win64; x64) AppleWebKit/537.36 (KHTML, like Gecko) Chrome/88.0.4324.150 Safari/537.36 Edg/88.0.705.63","v1","","","","","","","","-80,-70,-60,-50,-40","media/audio/stims/spherical_300cm_s20_c20_cd-full_matched_a-50.wav","spherical","20","20","full","matched","-50","-50","1355"
"echo-presentation","121","585397","0.0-121.0","5fdea3ff9bf07d61c6087fdd","5fef55e628823a0076ec12ee","601f447d0cc54b494a60db00","Mozilla/5.0 (Windows NT 10.0; Win64; x64) AppleWebKit/537.36 (KHTML, like Gecko) Chrome/88.0.4324.150 Safari/537.36 Edg/88.0.705.63","v1","","","","","","","","-80,-70,-60,-50,-40","media/audio/stims/spherical_300cm_s20_c20_cd-full_matched_a-80.wav","spherical","20","20","full","matched","-80","-70","1478"
"echo-presentation","122","587246","0.0-122.0","5fdea3ff9bf07d61c6087fdd","5fef55e628823a0076ec12ee","601f447d0cc54b494a60db00","Mozilla/5.0 (Windows NT 10.0; Win64; x64) AppleWebKit/537.36 (KHTML, like Gecko) Chrome/88.0.4324.150 Safari/537.36 Edg/88.0.705.63","v1","","","","","","","","-80,-70,-60,-50,-40","media/audio/stims/spherical_300cm_s20_c20_cd-full_matched_a-40.wav","spherical","20","20","full","matched","-40","-60","1302"
"echo-presentation","123","590270","0.0-123.0","5fdea3ff9bf07d61c6087fdd","5fef55e628823a0076ec12ee","601f447d0cc54b494a60db00","Mozilla/5.0 (Windows NT 10.0; Win64; x64) AppleWebKit/537.36 (KHTML, like Gecko) Chrome/88.0.4324.150 Safari/537.36 Edg/88.0.705.63","v1","","","","","","","","-80,-70,-60,-50,-40","media/audio/stims/spherical_300cm_s20_c20_cd-full_matched_a-70.wav","spherical","20","20","full","matched","-70","-60","1589"
"echo-presentation","124","592389","0.0-124.0","5fdea3ff9bf07d61c6087fdd","5fef55e628823a0076ec12ee","601f447d0cc54b494a60db00","Mozilla/5.0 (Windows NT 10.0; Win64; x64) AppleWebKit/537.36 (KHTML, like Gecko) Chrome/88.0.4324.150 Safari/537.36 Edg/88.0.705.63","v1","","","","","","","","-80,-70,-60,-50,-40","media/audio/stims/spherical_300cm_s20_c20_cd-full_matched_a-70.wav","spherical","20","20","full","matched","-70","-60","1293"
"echo-presentation","125","594422","0.0-125.0","5fdea3ff9bf07d61c6087fdd","5fef55e628823a0076ec12ee","601f447d0cc54b494a60db00","Mozilla/5.0 (Windows NT 10.0; Win64; x64) AppleWebKit/537.36 (KHTML, like Gecko) Chrome/88.0.4324.150 Safari/537.36 Edg/88.0.705.63","v1","","","","","","","","-80,-70,-60,-50,-40","media/audio/stims/spherical_300cm_s20_c20_cd-full_matched_a-40.wav","spherical","20","20","full","matched","-40","-50","1225"
"echo-presentation","126","596295","0.0-126.0","5fdea3ff9bf07d61c6087fdd","5fef55e628823a0076ec12ee","601f447d0cc54b494a60db00","Mozilla/5.0 (Windows NT 10.0; Win64; x64) AppleWebKit/537.36 (KHTML, like Gecko) Chrome/88.0.4324.150 Safari/537.36 Edg/88.0.705.63","v1","","","","","","","","-80,-70,-60,-50,-40","media/audio/stims/spherical_300cm_s20_c20_cd-full_matched_a-40.wav","spherical","20","20","full","matched","-40","-50","1142"
"echo-presentation","127","598838","0.0-127.0","5fdea3ff9bf07d61c6087fdd","5fef55e628823a0076ec12ee","601f447d0cc54b494a60db00","Mozilla/5.0 (Windows NT 10.0; Win64; x64) AppleWebKit/537.36 (KHTML, like Gecko) Chrome/88.0.4324.150 Safari/537.36 Edg/88.0.705.63","v1","","","","","","","","-80,-70,-60,-50,-40","media/audio/stims/spherical_300cm_s20_c20_cd-full_matched_a-50.wav","spherical","20","20","full","matched","-50","-50","1774"
"echo-presentation","128","601016","0.0-128.0","5fdea3ff9bf07d61c6087fdd","5fef55e628823a0076ec12ee","601f447d0cc54b494a60db00","Mozilla/5.0 (Windows NT 10.0; Win64; x64) AppleWebKit/537.36 (KHTML, like Gecko) Chrome/88.0.4324.150 Safari/537.36 Edg/88.0.705.63","v1","","","","","","","","-80,-70,-60,-50,-40","media/audio/stims/spherical_300cm_s20_c20_cd-full_matched_a-70.wav","spherical","20","20","full","matched","-70","-60","1269"
"echo-presentation","129","603450","0.0-129.0","5fdea3ff9bf07d61c6087fdd","5fef55e628823a0076ec12ee","601f447d0cc54b494a60db00","Mozilla/5.0 (Windows NT 10.0; Win64; x64) AppleWebKit/537.36 (KHTML, like Gecko) Chrome/88.0.4324.150 Safari/537.36 Edg/88.0.705.63","v1","","","","","","","","-80,-70,-60,-50,-40","media/audio/stims/spherical_300cm_s20_c20_cd-full_matched_a-60.wav","spherical","20","20","full","matched","-60","-60","1587"
"echo-presentation","130","605678","0.0-130.0","5fdea3ff9bf07d61c6087fdd","5fef55e628823a0076ec12ee","601f447d0cc54b494a60db00","Mozilla/5.0 (Windows NT 10.0; Win64; x64) AppleWebKit/537.36 (KHTML, like Gecko) Chrome/88.0.4324.150 Safari/537.36 Edg/88.0.705.63","v1","","","","","","","","-80,-70,-60,-50,-40","media/audio/stims/spherical_300cm_s20_c20_cd-full_matched_a-50.wav","spherical","20","20","full","matched","-50","-60","1381"
"echo-presentation","131","609134","0.0-131.0","5fdea3ff9bf07d61c6087fdd","5fef55e628823a0076ec12ee","601f447d0cc54b494a60db00","Mozilla/5.0 (Windows NT 10.0; Win64; x64) AppleWebKit/537.36 (KHTML, like Gecko) Chrome/88.0.4324.150 Safari/537.36 Edg/88.0.705.63","v1","","","","","","","","-80,-70,-60,-50,-40","media/audio/stims/spherical_300cm_s20_c20_cd-full_matched_a-60.wav","spherical","20","20","full","matched","-60","-50","2622"
"echo-presentation","132","611317","0.0-132.0","5fdea3ff9bf07d61c6087fdd","5fef55e628823a0076ec12ee","601f447d0cc54b494a60db00","Mozilla/5.0 (Windows NT 10.0; Win64; x64) AppleWebKit/537.36 (KHTML, like Gecko) Chrome/88.0.4324.150 Safari/537.36 Edg/88.0.705.63","v1","","","","","","","","-80,-70,-60,-50,-40","media/audio/stims/spherical_300cm_s20_c20_cd-full_matched_a-50.wav","spherical","20","20","full","matched","-50","-50","1389"
"echo-presentation","133","613558","0.0-133.0","5fdea3ff9bf07d61c6087fdd","5fef55e628823a0076ec12ee","601f447d0cc54b494a60db00","Mozilla/5.0 (Windows NT 10.0; Win64; x64) AppleWebKit/537.36 (KHTML, like Gecko) Chrome/88.0.4324.150 Safari/537.36 Edg/88.0.705.63","v1","","","","","","","","-80,-70,-60,-50,-40","media/audio/stims/spherical_300cm_s20_c20_cd-full_matched_a-70.wav","spherical","20","20","full","matched","-70","-60","1435"
"echo-presentation","134","615542","0.0-134.0","5fdea3ff9bf07d61c6087fdd","5fef55e628823a0076ec12ee","601f447d0cc54b494a60db00","Mozilla/5.0 (Windows NT 10.0; Win64; x64) AppleWebKit/537.36 (KHTML, like Gecko) Chrome/88.0.4324.150 Safari/537.36 Edg/88.0.705.63","v1","","","","","","","","-80,-70,-60,-50,-40","media/audio/stims/spherical_300cm_s20_c20_cd-full_matched_a-40.wav","spherical","20","20","full","matched","-40","-60","1103"
"echo-presentation","135","618167","0.0-135.0","5fdea3ff9bf07d61c6087fdd","5fef55e628823a0076ec12ee","601f447d0cc54b494a60db00","Mozilla/5.0 (Windows NT 10.0; Win64; x64) AppleWebKit/537.36 (KHTML, like Gecko) Chrome/88.0.4324.150 Safari/537.36 Edg/88.0.705.63","v1","","","","","","","","-80,-70,-60,-50,-40","media/audio/stims/spherical_300cm_s20_c20_cd-full_matched_a-60.wav","spherical","20","20","full","matched","-60","-60","1388"
"echo-presentation","136","622423","0.0-136.0","5fdea3ff9bf07d61c6087fdd","5fef55e628823a0076ec12ee","601f447d0cc54b494a60db00","Mozilla/5.0 (Windows NT 10.0; Win64; x64) AppleWebKit/537.36 (KHTML, like Gecko) Chrome/88.0.4324.150 Safari/537.36 Edg/88.0.705.63","v1","","","","","","","","-80,-70,-60,-50,-40","media/audio/stims/spherical_300cm_s20_c20_cd-full_matched_a-80.wav","spherical","20","20","full","matched","-80","-60","2335"
"echo-presentation","137","624787","0.0-137.0","5fdea3ff9bf07d61c6087fdd","5fef55e628823a0076ec12ee","601f447d0cc54b494a60db00","Mozilla/5.0 (Windows NT 10.0; Win64; x64) AppleWebKit/537.36 (KHTML, like Gecko) Chrome/88.0.4324.150 Safari/537.36 Edg/88.0.705.63","v1","","","","","","","","-80,-70,-60,-50,-40","media/audio/stims/spherical_300cm_s20_c20_cd-full_matched_a-60.wav","spherical","20","20","full","matched","-60","-70","1257"
"block-bookend","138","625809","0.0-138.0","5fdea3ff9bf07d61c6087fdd","5fef55e628823a0076ec12ee","601f447d0cc54b494a60db00","Mozilla/5.0 (Windows NT 10.0; Win64; x64) AppleWebKit/537.36 (KHTML, like Gecko) Chrome/88.0.4324.150 Safari/537.36 Edg/88.0.705.63","v1","","","","","","","","","","","","","","","","",""
