"trial_type","trial_index","time_elapsed","internal_node_id","prolificPid","studyId","sessionId","userAgent","version","rt","stimulus","key_press","chosenKeyset","failureCount","testIndex","globalVolume","choices","filename","modelName","slowdown","compensation","compensationDescriptor","receiverOrientationType","azimuth","responseAzimuth","responseDelay"
"pavlovia","0","2","0.0-0.0","5ee90152ce51c4136b6646cd","60201dea606b8d5e5aa9e528","60202260bbecc35e6d85a850","Mozilla/5.0 (Windows NT 10.0; Win64; x64) AppleWebKit/537.36 (KHTML, like Gecko) Chrome/88.0.4324.150 Safari/537.36","v1-up-stims","","","","","","","","","","","","","","","","",""
"html-keyboard-response","1","30064","0.0-1.0","5ee90152ce51c4136b6646cd","60201dea606b8d5e5aa9e528","60202260bbecc35e6d85a850","Mozilla/5.0 (Windows NT 10.0; Win64; x64) AppleWebKit/537.36 (KHTML, like Gecko) Chrome/88.0.4324.150 Safari/537.36","v1-up-stims","30060.984999872744","<div><h1>Welcome!</h1><p>Press any key to continue.</p></div>","32","","","","","","","","","","","","","",""
"consent-form","2","84650","0.0-2.0","5ee90152ce51c4136b6646cd","60201dea606b8d5e5aa9e528","60202260bbecc35e6d85a850","Mozilla/5.0 (Windows NT 10.0; Win64; x64) AppleWebKit/537.36 (KHTML, like Gecko) Chrome/88.0.4324.150 Safari/537.36","v1-up-stims","","","","","","","","","","","","","","","","",""
"keyset-select","3","145759","0.0-3.0","5ee90152ce51c4136b6646cd","60201dea606b8d5e5aa9e528","60202260bbecc35e6d85a850","Mozilla/5.0 (Windows NT 10.0; Win64; x64) AppleWebKit/537.36 (KHTML, like Gecko) Chrome/88.0.4324.150 Safari/537.36","v1-up-stims","","","","left-hand","","","","","","","","","","","","",""
"headphone-check","4","203282","0.0-4.0","5ee90152ce51c4136b6646cd","60201dea606b8d5e5aa9e528","60202260bbecc35e6d85a850","Mozilla/5.0 (Windows NT 10.0; Win64; x64) AppleWebKit/537.36 (KHTML, like Gecko) Chrome/88.0.4324.150 Safari/537.36","v1-up-stims","","","","","0","6","0.3","","","","","","","","","",""
"headphone-backwards-check","5","214392","0.0-5.0","5ee90152ce51c4136b6646cd","60201dea606b8d5e5aa9e528","60202260bbecc35e6d85a850","Mozilla/5.0 (Windows NT 10.0; Win64; x64) AppleWebKit/537.36 (KHTML, like Gecko) Chrome/88.0.4324.150 Safari/537.36","v1-up-stims","","","","","0","","","","","","","","","","","",""
"training","6","334905","0.0-6.0","5ee90152ce51c4136b6646cd","60201dea606b8d5e5aa9e528","60202260bbecc35e6d85a850","Mozilla/5.0 (Windows NT 10.0; Win64; x64) AppleWebKit/537.36 (KHTML, like Gecko) Chrome/88.0.4324.150 Safari/537.36","v1-up-stims","","","","","","","","","","","","","","","","",""
"block-bookend","7","349178","0.0-7.0","5ee90152ce51c4136b6646cd","60201dea606b8d5e5aa9e528","60202260bbecc35e6d85a850","Mozilla/5.0 (Windows NT 10.0; Win64; x64) AppleWebKit/537.36 (KHTML, like Gecko) Chrome/88.0.4324.150 Safari/537.36","v1-up-stims","","","","","","","","","","","","","","","","",""
"echo-presentation","8","355303","0.0-8.0","5ee90152ce51c4136b6646cd","60201dea606b8d5e5aa9e528","60202260bbecc35e6d85a850","Mozilla/5.0 (Windows NT 10.0; Win64; x64) AppleWebKit/537.36 (KHTML, like Gecko) Chrome/88.0.4324.150 Safari/537.36","v1-up-stims","","","","","","","","-80,-70,-60,-50,-40","media/audio/stims/spherical_300cm_s20_c1_cd-1_matched_a-80.wav","spherical","20","1","1","matched","-80","-70","3449"
"echo-presentation","9","359097","0.0-9.0","5ee90152ce51c4136b6646cd","60201dea606b8d5e5aa9e528","60202260bbecc35e6d85a850","Mozilla/5.0 (Windows NT 10.0; Win64; x64) AppleWebKit/537.36 (KHTML, like Gecko) Chrome/88.0.4324.150 Safari/537.36","v1-up-stims","","","","","","","","-80,-70,-60,-50,-40","media/audio/stims/spherical_300cm_s20_c1_cd-1_matched_a-70.wav","spherical","20","1","1","matched","-70","-80","2187"
"echo-presentation","10","364311","0.0-10.0","5ee90152ce51c4136b6646cd","60201dea606b8d5e5aa9e528","60202260bbecc35e6d85a850","Mozilla/5.0 (Windows NT 10.0; Win64; x64) AppleWebKit/537.36 (KHTML, like Gecko) Chrome/88.0.4324.150 Safari/537.36","v1-up-stims","","","","","","","","-80,-70,-60,-50,-40","media/audio/stims/spherical_300cm_s20_c1_cd-1_matched_a-60.wav","spherical","20","1","1","matched","-60","-60","3804"
"echo-presentation","11","367417","0.0-11.0","5ee90152ce51c4136b6646cd","60201dea606b8d5e5aa9e528","60202260bbecc35e6d85a850","Mozilla/5.0 (Windows NT 10.0; Win64; x64) AppleWebKit/537.36 (KHTML, like Gecko) Chrome/88.0.4324.150 Safari/537.36","v1-up-stims","","","","","","","","-80,-70,-60,-50,-40","media/audio/stims/spherical_300cm_s20_c1_cd-1_matched_a-80.wav","spherical","20","1","1","matched","-80","-70","1786"
"echo-presentation","12","377329","0.0-12.0","5ee90152ce51c4136b6646cd","60201dea606b8d5e5aa9e528","60202260bbecc35e6d85a850","Mozilla/5.0 (Windows NT 10.0; Win64; x64) AppleWebKit/537.36 (KHTML, like Gecko) Chrome/88.0.4324.150 Safari/537.36","v1-up-stims","","","","","","","","-80,-70,-60,-50,-40","media/audio/stims/spherical_300cm_s20_c1_cd-1_matched_a-60.wav","spherical","20","1","1","matched","-60","-70","8736"
"echo-presentation","13","386741","0.0-13.0","5ee90152ce51c4136b6646cd","60201dea606b8d5e5aa9e528","60202260bbecc35e6d85a850","Mozilla/5.0 (Windows NT 10.0; Win64; x64) AppleWebKit/537.36 (KHTML, like Gecko) Chrome/88.0.4324.150 Safari/537.36","v1-up-stims","","","","","","","","-80,-70,-60,-50,-40","media/audio/stims/spherical_300cm_s20_c1_cd-1_matched_a-80.wav","spherical","20","1","1","matched","-80","-60","2633"
"echo-presentation","14","390576","0.0-14.0","5ee90152ce51c4136b6646cd","60201dea606b8d5e5aa9e528","60202260bbecc35e6d85a850","Mozilla/5.0 (Windows NT 10.0; Win64; x64) AppleWebKit/537.36 (KHTML, like Gecko) Chrome/88.0.4324.150 Safari/537.36","v1-up-stims","","","","","","","","-80,-70,-60,-50,-40","media/audio/stims/spherical_300cm_s20_c1_cd-1_matched_a-50.wav","spherical","20","1","1","matched","-50","-70","2310"
"echo-presentation","15","393185","0.0-15.0","5ee90152ce51c4136b6646cd","60201dea606b8d5e5aa9e528","60202260bbecc35e6d85a850","Mozilla/5.0 (Windows NT 10.0; Win64; x64) AppleWebKit/537.36 (KHTML, like Gecko) Chrome/88.0.4324.150 Safari/537.36","v1-up-stims","","","","","","","","-80,-70,-60,-50,-40","media/audio/stims/spherical_300cm_s20_c1_cd-1_matched_a-40.wav","spherical","20","1","1","matched","-40","-80","1238"
"echo-presentation","16","396069","0.0-16.0","5ee90152ce51c4136b6646cd","60201dea606b8d5e5aa9e528","60202260bbecc35e6d85a850","Mozilla/5.0 (Windows NT 10.0; Win64; x64) AppleWebKit/537.36 (KHTML, like Gecko) Chrome/88.0.4324.150 Safari/537.36","v1-up-stims","","","","","","","","-80,-70,-60,-50,-40","media/audio/stims/spherical_300cm_s20_c1_cd-1_matched_a-70.wav","spherical","20","1","1","matched","-70","-80","1825"
"echo-presentation","17","399237","0.0-17.0","5ee90152ce51c4136b6646cd","60201dea606b8d5e5aa9e528","60202260bbecc35e6d85a850","Mozilla/5.0 (Windows NT 10.0; Win64; x64) AppleWebKit/537.36 (KHTML, like Gecko) Chrome/88.0.4324.150 Safari/537.36","v1-up-stims","","","","","","","","-80,-70,-60,-50,-40","media/audio/stims/spherical_300cm_s20_c1_cd-1_matched_a-70.wav","spherical","20","1","1","matched","-70","-80","2090"
"echo-presentation","18","401544","0.0-18.0","5ee90152ce51c4136b6646cd","60201dea606b8d5e5aa9e528","60202260bbecc35e6d85a850","Mozilla/5.0 (Windows NT 10.0; Win64; x64) AppleWebKit/537.36 (KHTML, like Gecko) Chrome/88.0.4324.150 Safari/537.36","v1-up-stims","","","","","","","","-80,-70,-60,-50,-40","media/audio/stims/spherical_300cm_s20_c1_cd-1_matched_a-70.wav","spherical","20","1","1","matched","-70","-70","1196"
"echo-presentation","19","404857","0.0-19.0","5ee90152ce51c4136b6646cd","60201dea606b8d5e5aa9e528","60202260bbecc35e6d85a850","Mozilla/5.0 (Windows NT 10.0; Win64; x64) AppleWebKit/537.36 (KHTML, like Gecko) Chrome/88.0.4324.150 Safari/537.36","v1-up-stims","","","","","","","","-80,-70,-60,-50,-40","media/audio/stims/spherical_300cm_s20_c1_cd-1_matched_a-50.wav","spherical","20","1","1","matched","-50","-70","2137"
"echo-presentation","20","408205","0.0-20.0","5ee90152ce51c4136b6646cd","60201dea606b8d5e5aa9e528","60202260bbecc35e6d85a850","Mozilla/5.0 (Windows NT 10.0; Win64; x64) AppleWebKit/537.36 (KHTML, like Gecko) Chrome/88.0.4324.150 Safari/537.36","v1-up-stims","","","","","","","","-80,-70,-60,-50,-40","media/audio/stims/spherical_300cm_s20_c1_cd-1_matched_a-50.wav","spherical","20","1","1","matched","-50","-60","2298"
"echo-presentation","21","410955","0.0-21.0","5ee90152ce51c4136b6646cd","60201dea606b8d5e5aa9e528","60202260bbecc35e6d85a850","Mozilla/5.0 (Windows NT 10.0; Win64; x64) AppleWebKit/537.36 (KHTML, like Gecko) Chrome/88.0.4324.150 Safari/537.36","v1-up-stims","","","","","","","","-80,-70,-60,-50,-40","media/audio/stims/spherical_300cm_s20_c1_cd-1_matched_a-40.wav","spherical","20","1","1","matched","-40","-70","1810"
"echo-presentation","22","413400","0.0-22.0","5ee90152ce51c4136b6646cd","60201dea606b8d5e5aa9e528","60202260bbecc35e6d85a850","Mozilla/5.0 (Windows NT 10.0; Win64; x64) AppleWebKit/537.36 (KHTML, like Gecko) Chrome/88.0.4324.150 Safari/537.36","v1-up-stims","","","","","","","","-80,-70,-60,-50,-40","media/audio/stims/spherical_300cm_s20_c1_cd-1_matched_a-60.wav","spherical","20","1","1","matched","-60","-70","1542"
"echo-presentation","23","416169","0.0-23.0","5ee90152ce51c4136b6646cd","60201dea606b8d5e5aa9e528","60202260bbecc35e6d85a850","Mozilla/5.0 (Windows NT 10.0; Win64; x64) AppleWebKit/537.36 (KHTML, like Gecko) Chrome/88.0.4324.150 Safari/537.36","v1-up-stims","","","","","","","","-80,-70,-60,-50,-40","media/audio/stims/spherical_300cm_s20_c1_cd-1_matched_a-40.wav","spherical","20","1","1","matched","-40","-80","1744"
"echo-presentation","24","418630","0.0-24.0","5ee90152ce51c4136b6646cd","60201dea606b8d5e5aa9e528","60202260bbecc35e6d85a850","Mozilla/5.0 (Windows NT 10.0; Win64; x64) AppleWebKit/537.36 (KHTML, like Gecko) Chrome/88.0.4324.150 Safari/537.36","v1-up-stims","","","","","","","","-80,-70,-60,-50,-40","media/audio/stims/spherical_300cm_s20_c1_cd-1_matched_a-60.wav","spherical","20","1","1","matched","-60","-70","1611"
"echo-presentation","25","421253","0.0-25.0","5ee90152ce51c4136b6646cd","60201dea606b8d5e5aa9e528","60202260bbecc35e6d85a850","Mozilla/5.0 (Windows NT 10.0; Win64; x64) AppleWebKit/537.36 (KHTML, like Gecko) Chrome/88.0.4324.150 Safari/537.36","v1-up-stims","","","","","","","","-80,-70,-60,-50,-40","media/audio/stims/spherical_300cm_s20_c1_cd-1_matched_a-50.wav","spherical","20","1","1","matched","-50","-80","1645"
"echo-presentation","26","423701","0.0-26.0","5ee90152ce51c4136b6646cd","60201dea606b8d5e5aa9e528","60202260bbecc35e6d85a850","Mozilla/5.0 (Windows NT 10.0; Win64; x64) AppleWebKit/537.36 (KHTML, like Gecko) Chrome/88.0.4324.150 Safari/537.36","v1-up-stims","","","","","","","","-80,-70,-60,-50,-40","media/audio/stims/spherical_300cm_s20_c1_cd-1_matched_a-40.wav","spherical","20","1","1","matched","-40","-80","1269"
"echo-presentation","27","425882","0.0-27.0","5ee90152ce51c4136b6646cd","60201dea606b8d5e5aa9e528","60202260bbecc35e6d85a850","Mozilla/5.0 (Windows NT 10.0; Win64; x64) AppleWebKit/537.36 (KHTML, like Gecko) Chrome/88.0.4324.150 Safari/537.36","v1-up-stims","","","","","","","","-80,-70,-60,-50,-40","media/audio/stims/spherical_300cm_s20_c1_cd-1_matched_a-80.wav","spherical","20","1","1","matched","-80","-80","1042"
"block-bookend","28","430054","0.0-28.0","5ee90152ce51c4136b6646cd","60201dea606b8d5e5aa9e528","60202260bbecc35e6d85a850","Mozilla/5.0 (Windows NT 10.0; Win64; x64) AppleWebKit/537.36 (KHTML, like Gecko) Chrome/88.0.4324.150 Safari/537.36","v1-up-stims","","","","","","","","","","","","","","","","",""
"block-bookend","29","447584","0.0-29.0","5ee90152ce51c4136b6646cd","60201dea606b8d5e5aa9e528","60202260bbecc35e6d85a850","Mozilla/5.0 (Windows NT 10.0; Win64; x64) AppleWebKit/537.36 (KHTML, like Gecko) Chrome/88.0.4324.150 Safari/537.36","v1-up-stims","","","","","","","","","","","","","","","","",""
"echo-presentation","30","453324","0.0-30.0","5ee90152ce51c4136b6646cd","60201dea606b8d5e5aa9e528","60202260bbecc35e6d85a850","Mozilla/5.0 (Windows NT 10.0; Win64; x64) AppleWebKit/537.36 (KHTML, like Gecko) Chrome/88.0.4324.150 Safari/537.36","v1-up-stims","","","","","","","","-80,-70,-60,-50,-40","media/audio/stims/spherical_300cm_s20_c1_cd-1_matched_a-70.wav","spherical","20","1","1","matched","-70","-60","3621"
"echo-presentation","31","456531","0.0-31.0","5ee90152ce51c4136b6646cd","60201dea606b8d5e5aa9e528","60202260bbecc35e6d85a850","Mozilla/5.0 (Windows NT 10.0; Win64; x64) AppleWebKit/537.36 (KHTML, like Gecko) Chrome/88.0.4324.150 Safari/537.36","v1-up-stims","","","","","","","","-80,-70,-60,-50,-40","media/audio/stims/spherical_300cm_s20_c1_cd-1_matched_a-40.wav","spherical","20","1","1","matched","-40","-60","1923"
"echo-presentation","32","458703","0.0-32.0","5ee90152ce51c4136b6646cd","60201dea606b8d5e5aa9e528","60202260bbecc35e6d85a850","Mozilla/5.0 (Windows NT 10.0; Win64; x64) AppleWebKit/537.36 (KHTML, like Gecko) Chrome/88.0.4324.150 Safari/537.36","v1-up-stims","","","","","","","","-80,-70,-60,-50,-40","media/audio/stims/spherical_300cm_s20_c1_cd-1_matched_a-70.wav","spherical","20","1","1","matched","-70","-50","1191"
"echo-presentation","33","460979","0.0-33.0","5ee90152ce51c4136b6646cd","60201dea606b8d5e5aa9e528","60202260bbecc35e6d85a850","Mozilla/5.0 (Windows NT 10.0; Win64; x64) AppleWebKit/537.36 (KHTML, like Gecko) Chrome/88.0.4324.150 Safari/537.36","v1-up-stims","","","","","","","","-80,-70,-60,-50,-40","media/audio/stims/spherical_300cm_s20_c1_cd-1_matched_a-80.wav","spherical","20","1","1","matched","-80","-70","1289"
"echo-presentation","34","463491","0.0-34.0","5ee90152ce51c4136b6646cd","60201dea606b8d5e5aa9e528","60202260bbecc35e6d85a850","Mozilla/5.0 (Windows NT 10.0; Win64; x64) AppleWebKit/537.36 (KHTML, like Gecko) Chrome/88.0.4324.150 Safari/537.36","v1-up-stims","","","","","","","","-80,-70,-60,-50,-40","media/audio/stims/spherical_300cm_s20_c1_cd-1_matched_a-60.wav","spherical","20","1","1","matched","-60","-70","1439"
"echo-presentation","35","467129","0.0-35.0","5ee90152ce51c4136b6646cd","60201dea606b8d5e5aa9e528","60202260bbecc35e6d85a850","Mozilla/5.0 (Windows NT 10.0; Win64; x64) AppleWebKit/537.36 (KHTML, like Gecko) Chrome/88.0.4324.150 Safari/537.36","v1-up-stims","","","","","","","","-80,-70,-60,-50,-40","media/audio/stims/spherical_300cm_s20_c1_cd-1_matched_a-40.wav","spherical","20","1","1","matched","-40","-70","2247"
"echo-presentation","36","472520","0.0-36.0","5ee90152ce51c4136b6646cd","60201dea606b8d5e5aa9e528","60202260bbecc35e6d85a850","Mozilla/5.0 (Windows NT 10.0; Win64; x64) AppleWebKit/537.36 (KHTML, like Gecko) Chrome/88.0.4324.150 Safari/537.36","v1-up-stims","","","","","","","","-80,-70,-60,-50,-40","media/audio/stims/spherical_300cm_s20_c1_cd-1_matched_a-50.wav","spherical","20","1","1","matched","-50","-70","2189"
"echo-presentation","37","474783","0.0-37.0","5ee90152ce51c4136b6646cd","60201dea606b8d5e5aa9e528","60202260bbecc35e6d85a850","Mozilla/5.0 (Windows NT 10.0; Win64; x64) AppleWebKit/537.36 (KHTML, like Gecko) Chrome/88.0.4324.150 Safari/537.36","v1-up-stims","","","","","","","","-80,-70,-60,-50,-40","media/audio/stims/spherical_300cm_s20_c1_cd-1_matched_a-70.wav","spherical","20","1","1","matched","-70","-60","1312"
"echo-presentation","38","478094","0.0-38.0","5ee90152ce51c4136b6646cd","60201dea606b8d5e5aa9e528","60202260bbecc35e6d85a850","Mozilla/5.0 (Windows NT 10.0; Win64; x64) AppleWebKit/537.36 (KHTML, like Gecko) Chrome/88.0.4324.150 Safari/537.36","v1-up-stims","","","","","","","","-80,-70,-60,-50,-40","media/audio/stims/spherical_300cm_s20_c1_cd-1_matched_a-60.wav","spherical","20","1","1","matched","-60","-40","2350"
"echo-presentation","39","480817","0.0-39.0","5ee90152ce51c4136b6646cd","60201dea606b8d5e5aa9e528","60202260bbecc35e6d85a850","Mozilla/5.0 (Windows NT 10.0; Win64; x64) AppleWebKit/537.36 (KHTML, like Gecko) Chrome/88.0.4324.150 Safari/537.36","v1-up-stims","","","","","","","","-80,-70,-60,-50,-40","media/audio/stims/spherical_300cm_s20_c1_cd-1_matched_a-50.wav","spherical","20","1","1","matched","-50","-80","1587"
"echo-presentation","40","483174","0.0-40.0","5ee90152ce51c4136b6646cd","60201dea606b8d5e5aa9e528","60202260bbecc35e6d85a850","Mozilla/5.0 (Windows NT 10.0; Win64; x64) AppleWebKit/537.36 (KHTML, like Gecko) Chrome/88.0.4324.150 Safari/537.36","v1-up-stims","","","","","","","","-80,-70,-60,-50,-40","media/audio/stims/spherical_300cm_s20_c1_cd-1_matched_a-60.wav","spherical","20","1","1","matched","-60","-80","1259"
"echo-presentation","41","485421","0.0-41.0","5ee90152ce51c4136b6646cd","60201dea606b8d5e5aa9e528","60202260bbecc35e6d85a850","Mozilla/5.0 (Windows NT 10.0; Win64; x64) AppleWebKit/537.36 (KHTML, like Gecko) Chrome/88.0.4324.150 Safari/537.36","v1-up-stims","","","","","","","","-80,-70,-60,-50,-40","media/audio/stims/spherical_300cm_s20_c1_cd-1_matched_a-70.wav","spherical","20","1","1","matched","-70","-70","1235"
"echo-presentation","42","487743","0.0-42.0","5ee90152ce51c4136b6646cd","60201dea606b8d5e5aa9e528","60202260bbecc35e6d85a850","Mozilla/5.0 (Windows NT 10.0; Win64; x64) AppleWebKit/537.36 (KHTML, like Gecko) Chrome/88.0.4324.150 Safari/537.36","v1-up-stims","","","","","","","","-80,-70,-60,-50,-40","media/audio/stims/spherical_300cm_s20_c1_cd-1_matched_a-60.wav","spherical","20","1","1","matched","-60","-80","1111"
"echo-presentation","43","490050","0.0-43.0","5ee90152ce51c4136b6646cd","60201dea606b8d5e5aa9e528","60202260bbecc35e6d85a850","Mozilla/5.0 (Windows NT 10.0; Win64; x64) AppleWebKit/537.36 (KHTML, like Gecko) Chrome/88.0.4324.150 Safari/537.36","v1-up-stims","","","","","","","","-80,-70,-60,-50,-40","media/audio/stims/spherical_300cm_s20_c1_cd-1_matched_a-40.wav","spherical","20","1","1","matched","-40","-80","1178"
"echo-presentation","44","492155","0.0-44.0","5ee90152ce51c4136b6646cd","60201dea606b8d5e5aa9e528","60202260bbecc35e6d85a850","Mozilla/5.0 (Windows NT 10.0; Win64; x64) AppleWebKit/537.36 (KHTML, like Gecko) Chrome/88.0.4324.150 Safari/537.36","v1-up-stims","","","","","","","","-80,-70,-60,-50,-40","media/audio/stims/spherical_300cm_s20_c1_cd-1_matched_a-50.wav","spherical","20","1","1","matched","-50","-80","1087"
"echo-presentation","45","494606","0.0-45.0","5ee90152ce51c4136b6646cd","60201dea606b8d5e5aa9e528","60202260bbecc35e6d85a850","Mozilla/5.0 (Windows NT 10.0; Win64; x64) AppleWebKit/537.36 (KHTML, like Gecko) Chrome/88.0.4324.150 Safari/537.36","v1-up-stims","","","","","","","","-80,-70,-60,-50,-40","media/audio/stims/spherical_300cm_s20_c1_cd-1_matched_a-50.wav","spherical","20","1","1","matched","-50","-60","1524"
"echo-presentation","46","497065","0.0-46.0","5ee90152ce51c4136b6646cd","60201dea606b8d5e5aa9e528","60202260bbecc35e6d85a850","Mozilla/5.0 (Windows NT 10.0; Win64; x64) AppleWebKit/537.36 (KHTML, like Gecko) Chrome/88.0.4324.150 Safari/537.36","v1-up-stims","","","","","","","","-80,-70,-60,-50,-40","media/audio/stims/spherical_300cm_s20_c1_cd-1_matched_a-40.wav","spherical","20","1","1","matched","-40","-60","1640"
"echo-presentation","47","498765","0.0-47.0","5ee90152ce51c4136b6646cd","60201dea606b8d5e5aa9e528","60202260bbecc35e6d85a850","Mozilla/5.0 (Windows NT 10.0; Win64; x64) AppleWebKit/537.36 (KHTML, like Gecko) Chrome/88.0.4324.150 Safari/537.36","v1-up-stims","","","","","","","","-80,-70,-60,-50,-40","media/audio/stims/spherical_300cm_s20_c1_cd-1_matched_a-80.wav","spherical","20","1","1","matched","-80","-60","953"
"echo-presentation","48","501392","0.0-48.0","5ee90152ce51c4136b6646cd","60201dea606b8d5e5aa9e528","60202260bbecc35e6d85a850","Mozilla/5.0 (Windows NT 10.0; Win64; x64) AppleWebKit/537.36 (KHTML, like Gecko) Chrome/88.0.4324.150 Safari/537.36","v1-up-stims","","","","","","","","-80,-70,-60,-50,-40","media/audio/stims/spherical_300cm_s20_c1_cd-1_matched_a-80.wav","spherical","20","1","1","matched","-80","-70","1553"
"echo-presentation","49","503467","0.0-49.0","5ee90152ce51c4136b6646cd","60201dea606b8d5e5aa9e528","60202260bbecc35e6d85a850","Mozilla/5.0 (Windows NT 10.0; Win64; x64) AppleWebKit/537.36 (KHTML, like Gecko) Chrome/88.0.4324.150 Safari/537.36","v1-up-stims","","","","","","","","-80,-70,-60,-50,-40","media/audio/stims/spherical_300cm_s20_c1_cd-1_matched_a-80.wav","spherical","20","1","1","matched","-80","-70","1282"
"block-bookend","50","505415","0.0-50.0","5ee90152ce51c4136b6646cd","60201dea606b8d5e5aa9e528","60202260bbecc35e6d85a850","Mozilla/5.0 (Windows NT 10.0; Win64; x64) AppleWebKit/537.36 (KHTML, like Gecko) Chrome/88.0.4324.150 Safari/537.36","v1-up-stims","","","","","","","","","","","","","","","","",""
"block-bookend","51","518132","0.0-51.0","5ee90152ce51c4136b6646cd","60201dea606b8d5e5aa9e528","60202260bbecc35e6d85a850","Mozilla/5.0 (Windows NT 10.0; Win64; x64) AppleWebKit/537.36 (KHTML, like Gecko) Chrome/88.0.4324.150 Safari/537.36","v1-up-stims","","","","","","","","","","","","","","","","",""
"echo-presentation","52","523399","0.0-52.0","5ee90152ce51c4136b6646cd","60201dea606b8d5e5aa9e528","60202260bbecc35e6d85a850","Mozilla/5.0 (Windows NT 10.0; Win64; x64) AppleWebKit/537.36 (KHTML, like Gecko) Chrome/88.0.4324.150 Safari/537.36","v1-up-stims","","","","","","","","-20,-10,0,10,20","media/audio/stims/spherical_300cm_s20_c1_cd-1_matched_a0.wav","spherical","20","1","1","matched","0","-10","2713"
"echo-presentation","53","527291","0.0-53.0","5ee90152ce51c4136b6646cd","60201dea606b8d5e5aa9e528","60202260bbecc35e6d85a850","Mozilla/5.0 (Windows NT 10.0; Win64; x64) AppleWebKit/537.36 (KHTML, like Gecko) Chrome/88.0.4324.150 Safari/537.36","v1-up-stims","","","","","","","","-20,-10,0,10,20","media/audio/stims/spherical_300cm_s20_c1_cd-1_matched_a-20.wav","spherical","20","1","1","matched","-20","-10","2584"
"echo-presentation","54","530317","0.0-54.0","5ee90152ce51c4136b6646cd","60201dea606b8d5e5aa9e528","60202260bbecc35e6d85a850","Mozilla/5.0 (Windows NT 10.0; Win64; x64) AppleWebKit/537.36 (KHTML, like Gecko) Chrome/88.0.4324.150 Safari/537.36","v1-up-stims","","","","","","","","-20,-10,0,10,20","media/audio/stims/spherical_300cm_s20_c1_cd-1_matched_a-20.wav","spherical","20","1","1","matched","-20","10","1830"
"echo-presentation","55","533539","0.0-55.0","5ee90152ce51c4136b6646cd","60201dea606b8d5e5aa9e528","60202260bbecc35e6d85a850","Mozilla/5.0 (Windows NT 10.0; Win64; x64) AppleWebKit/537.36 (KHTML, like Gecko) Chrome/88.0.4324.150 Safari/537.36","v1-up-stims","","","","","","","","-20,-10,0,10,20","media/audio/stims/spherical_300cm_s20_c1_cd-1_matched_a-10.wav","spherical","20","1","1","matched","-10","-20","2102"
"echo-presentation","56","537038","0.0-56.0","5ee90152ce51c4136b6646cd","60201dea606b8d5e5aa9e528","60202260bbecc35e6d85a850","Mozilla/5.0 (Windows NT 10.0; Win64; x64) AppleWebKit/537.36 (KHTML, like Gecko) Chrome/88.0.4324.150 Safari/537.36","v1-up-stims","","","","","","","","-20,-10,0,10,20","media/audio/stims/spherical_300cm_s20_c1_cd-1_matched_a10.wav","spherical","20","1","1","matched","10","20","2218"
"echo-presentation","57","541096","0.0-57.0","5ee90152ce51c4136b6646cd","60201dea606b8d5e5aa9e528","60202260bbecc35e6d85a850","Mozilla/5.0 (Windows NT 10.0; Win64; x64) AppleWebKit/537.36 (KHTML, like Gecko) Chrome/88.0.4324.150 Safari/537.36","v1-up-stims","","","","","","","","-20,-10,0,10,20","media/audio/stims/spherical_300cm_s20_c1_cd-1_matched_a20.wav","spherical","20","1","1","matched","20","10","1720"
"echo-presentation","58","546385","0.0-58.0","5ee90152ce51c4136b6646cd","60201dea606b8d5e5aa9e528","60202260bbecc35e6d85a850","Mozilla/5.0 (Windows NT 10.0; Win64; x64) AppleWebKit/537.36 (KHTML, like Gecko) Chrome/88.0.4324.150 Safari/537.36","v1-up-stims","","","","","","","","-20,-10,0,10,20","media/audio/stims/spherical_300cm_s20_c1_cd-1_matched_a0.wav","spherical","20","1","1","matched","0","-10","1370"
"echo-presentation","59","549442","0.0-59.0","5ee90152ce51c4136b6646cd","60201dea606b8d5e5aa9e528","60202260bbecc35e6d85a850","Mozilla/5.0 (Windows NT 10.0; Win64; x64) AppleWebKit/537.36 (KHTML, like Gecko) Chrome/88.0.4324.150 Safari/537.36","v1-up-stims","","","","","","","","-20,-10,0,10,20","media/audio/stims/spherical_300cm_s20_c1_cd-1_matched_a-20.wav","spherical","20","1","1","matched","-20","0","1821"
"echo-presentation","60","551508","0.0-60.0","5ee90152ce51c4136b6646cd","60201dea606b8d5e5aa9e528","60202260bbecc35e6d85a850","Mozilla/5.0 (Windows NT 10.0; Win64; x64) AppleWebKit/537.36 (KHTML, like Gecko) Chrome/88.0.4324.150 Safari/537.36","v1-up-stims","","","","","","","","-20,-10,0,10,20","media/audio/stims/spherical_300cm_s20_c1_cd-1_matched_a-10.wav","spherical","20","1","1","matched","-10","-20","1246"
"echo-presentation","61","553869","0.0-61.0","5ee90152ce51c4136b6646cd","60201dea606b8d5e5aa9e528","60202260bbecc35e6d85a850","Mozilla/5.0 (Windows NT 10.0; Win64; x64) AppleWebKit/537.36 (KHTML, like Gecko) Chrome/88.0.4324.150 Safari/537.36","v1-up-stims","","","","","","","","-20,-10,0,10,20","media/audio/stims/spherical_300cm_s20_c1_cd-1_matched_a10.wav","spherical","20","1","1","matched","10","10","1496"
"echo-presentation","62","555939","0.0-62.0","5ee90152ce51c4136b6646cd","60201dea606b8d5e5aa9e528","60202260bbecc35e6d85a850","Mozilla/5.0 (Windows NT 10.0; Win64; x64) AppleWebKit/537.36 (KHTML, like Gecko) Chrome/88.0.4324.150 Safari/537.36","v1-up-stims","","","","","","","","-20,-10,0,10,20","media/audio/stims/spherical_300cm_s20_c1_cd-1_matched_a20.wav","spherical","20","1","1","matched","20","20","1254"
"echo-presentation","63","557809","0.0-63.0","5ee90152ce51c4136b6646cd","60201dea606b8d5e5aa9e528","60202260bbecc35e6d85a850","Mozilla/5.0 (Windows NT 10.0; Win64; x64) AppleWebKit/537.36 (KHTML, like Gecko) Chrome/88.0.4324.150 Safari/537.36","v1-up-stims","","","","","","","","-20,-10,0,10,20","media/audio/stims/spherical_300cm_s20_c1_cd-1_matched_a10.wav","spherical","20","1","1","matched","10","20","1130"
"echo-presentation","64","559866","0.0-64.0","5ee90152ce51c4136b6646cd","60201dea606b8d5e5aa9e528","60202260bbecc35e6d85a850","Mozilla/5.0 (Windows NT 10.0; Win64; x64) AppleWebKit/537.36 (KHTML, like Gecko) Chrome/88.0.4324.150 Safari/537.36","v1-up-stims","","","","","","","","-20,-10,0,10,20","media/audio/stims/spherical_300cm_s20_c1_cd-1_matched_a0.wav","spherical","20","1","1","matched","0","20","1377"
"echo-presentation","65","562329","0.0-65.0","5ee90152ce51c4136b6646cd","60201dea606b8d5e5aa9e528","60202260bbecc35e6d85a850","Mozilla/5.0 (Windows NT 10.0; Win64; x64) AppleWebKit/537.36 (KHTML, like Gecko) Chrome/88.0.4324.150 Safari/537.36","v1-up-stims","","","","","","","","-20,-10,0,10,20","media/audio/stims/spherical_300cm_s20_c1_cd-1_matched_a-10.wav","spherical","20","1","1","matched","-10","-10","1856"
"echo-presentation","66","564995","0.0-66.0","5ee90152ce51c4136b6646cd","60201dea606b8d5e5aa9e528","60202260bbecc35e6d85a850","Mozilla/5.0 (Windows NT 10.0; Win64; x64) AppleWebKit/537.36 (KHTML, like Gecko) Chrome/88.0.4324.150 Safari/537.36","v1-up-stims","","","","","","","","-20,-10,0,10,20","media/audio/stims/spherical_300cm_s20_c1_cd-1_matched_a-20.wav","spherical","20","1","1","matched","-20","-10","1191"
"echo-presentation","67","567326","0.0-67.0","5ee90152ce51c4136b6646cd","60201dea606b8d5e5aa9e528","60202260bbecc35e6d85a850","Mozilla/5.0 (Windows NT 10.0; Win64; x64) AppleWebKit/537.36 (KHTML, like Gecko) Chrome/88.0.4324.150 Safari/537.36","v1-up-stims","","","","","","","","-20,-10,0,10,20","media/audio/stims/spherical_300cm_s20_c1_cd-1_matched_a20.wav","spherical","20","1","1","matched","20","20","1289"
"echo-presentation","68","569324","0.0-68.0","5ee90152ce51c4136b6646cd","60201dea606b8d5e5aa9e528","60202260bbecc35e6d85a850","Mozilla/5.0 (Windows NT 10.0; Win64; x64) AppleWebKit/537.36 (KHTML, like Gecko) Chrome/88.0.4324.150 Safari/537.36","v1-up-stims","","","","","","","","-20,-10,0,10,20","media/audio/stims/spherical_300cm_s20_c1_cd-1_matched_a0.wav","spherical","20","1","1","matched","0","20","1429"
"echo-presentation","69","571510","0.0-69.0","5ee90152ce51c4136b6646cd","60201dea606b8d5e5aa9e528","60202260bbecc35e6d85a850","Mozilla/5.0 (Windows NT 10.0; Win64; x64) AppleWebKit/537.36 (KHTML, like Gecko) Chrome/88.0.4324.150 Safari/537.36","v1-up-stims","","","","","","","","-20,-10,0,10,20","media/audio/stims/spherical_300cm_s20_c1_cd-1_matched_a20.wav","spherical","20","1","1","matched","20","20","1616"
"echo-presentation","70","573348","0.0-70.0","5ee90152ce51c4136b6646cd","60201dea606b8d5e5aa9e528","60202260bbecc35e6d85a850","Mozilla/5.0 (Windows NT 10.0; Win64; x64) AppleWebKit/537.36 (KHTML, like Gecko) Chrome/88.0.4324.150 Safari/537.36","v1-up-stims","","","","","","","","-20,-10,0,10,20","media/audio/stims/spherical_300cm_s20_c1_cd-1_matched_a-10.wav","spherical","20","1","1","matched","-10","-20","1317"
"echo-presentation","71","575406","0.0-71.0","5ee90152ce51c4136b6646cd","60201dea606b8d5e5aa9e528","60202260bbecc35e6d85a850","Mozilla/5.0 (Windows NT 10.0; Win64; x64) AppleWebKit/537.36 (KHTML, like Gecko) Chrome/88.0.4324.150 Safari/537.36","v1-up-stims","","","","","","","","-20,-10,0,10,20","media/audio/stims/spherical_300cm_s20_c1_cd-1_matched_a10.wav","spherical","20","1","1","matched","10","0","1287"
"block-bookend","72","578266","0.0-72.0","5ee90152ce51c4136b6646cd","60201dea606b8d5e5aa9e528","60202260bbecc35e6d85a850","Mozilla/5.0 (Windows NT 10.0; Win64; x64) AppleWebKit/537.36 (KHTML, like Gecko) Chrome/88.0.4324.150 Safari/537.36","v1-up-stims","","","","","","","","","","","","","","","","",""
"block-bookend","73","599720","0.0-73.0","5ee90152ce51c4136b6646cd","60201dea606b8d5e5aa9e528","60202260bbecc35e6d85a850","Mozilla/5.0 (Windows NT 10.0; Win64; x64) AppleWebKit/537.36 (KHTML, like Gecko) Chrome/88.0.4324.150 Safari/537.36","v1-up-stims","","","","","","","","","","","","","","","","",""
"echo-presentation","74","603084","0.0-74.0","5ee90152ce51c4136b6646cd","60201dea606b8d5e5aa9e528","60202260bbecc35e6d85a850","Mozilla/5.0 (Windows NT 10.0; Win64; x64) AppleWebKit/537.36 (KHTML, like Gecko) Chrome/88.0.4324.150 Safari/537.36","v1-up-stims","","","","","","","","-20,-10,0,10,20","media/audio/stims/spherical_300cm_s20_c1_cd-1_matched_a10.wav","spherical","20","1","1","matched","10","10","1636"
"echo-presentation","75","605220","0.0-75.0","5ee90152ce51c4136b6646cd","60201dea606b8d5e5aa9e528","60202260bbecc35e6d85a850","Mozilla/5.0 (Windows NT 10.0; Win64; x64) AppleWebKit/537.36 (KHTML, like Gecko) Chrome/88.0.4324.150 Safari/537.36","v1-up-stims","","","","","","","","-20,-10,0,10,20","media/audio/stims/spherical_300cm_s20_c1_cd-1_matched_a10.wav","spherical","20","1","1","matched","10","20","1183"
"echo-presentation","76","607027","0.0-76.0","5ee90152ce51c4136b6646cd","60201dea606b8d5e5aa9e528","60202260bbecc35e6d85a850","Mozilla/5.0 (Windows NT 10.0; Win64; x64) AppleWebKit/537.36 (KHTML, like Gecko) Chrome/88.0.4324.150 Safari/537.36","v1-up-stims","","","","","","","","-20,-10,0,10,20","media/audio/stims/spherical_300cm_s20_c1_cd-1_matched_a-20.wav","spherical","20","1","1","matched","-20","-20","992"
"echo-presentation","77","609117","0.0-77.0","5ee90152ce51c4136b6646cd","60201dea606b8d5e5aa9e528","60202260bbecc35e6d85a850","Mozilla/5.0 (Windows NT 10.0; Win64; x64) AppleWebKit/537.36 (KHTML, like Gecko) Chrome/88.0.4324.150 Safari/537.36","v1-up-stims","","","","","","","","-20,-10,0,10,20","media/audio/stims/spherical_300cm_s20_c1_cd-1_matched_a-10.wav","spherical","20","1","1","matched","-10","-10","1421"
"echo-presentation","78","612733","0.0-78.0","5ee90152ce51c4136b6646cd","60201dea606b8d5e5aa9e528","60202260bbecc35e6d85a850","Mozilla/5.0 (Windows NT 10.0; Win64; x64) AppleWebKit/537.36 (KHTML, like Gecko) Chrome/88.0.4324.150 Safari/537.36","v1-up-stims","","","","","","","","-20,-10,0,10,20","media/audio/stims/spherical_300cm_s20_c1_cd-1_matched_a20.wav","spherical","20","1","1","matched","20","20","1443"
"echo-presentation","79","614889","0.0-79.0","5ee90152ce51c4136b6646cd","60201dea606b8d5e5aa9e528","60202260bbecc35e6d85a850","Mozilla/5.0 (Windows NT 10.0; Win64; x64) AppleWebKit/537.36 (KHTML, like Gecko) Chrome/88.0.4324.150 Safari/537.36","v1-up-stims","","","","","","","","-20,-10,0,10,20","media/audio/stims/spherical_300cm_s20_c1_cd-1_matched_a-10.wav","spherical","20","1","1","matched","-10","-20","1231"
"echo-presentation","80","616769","0.0-80.0","5ee90152ce51c4136b6646cd","60201dea606b8d5e5aa9e528","60202260bbecc35e6d85a850","Mozilla/5.0 (Windows NT 10.0; Win64; x64) AppleWebKit/537.36 (KHTML, like Gecko) Chrome/88.0.4324.150 Safari/537.36","v1-up-stims","","","","","","","","-20,-10,0,10,20","media/audio/stims/spherical_300cm_s20_c1_cd-1_matched_a20.wav","spherical","20","1","1","matched","20","10","1315"
"echo-presentation","81","619324","0.0-81.0","5ee90152ce51c4136b6646cd","60201dea606b8d5e5aa9e528","60202260bbecc35e6d85a850","Mozilla/5.0 (Windows NT 10.0; Win64; x64) AppleWebKit/537.36 (KHTML, like Gecko) Chrome/88.0.4324.150 Safari/537.36","v1-up-stims","","","","","","","","-20,-10,0,10,20","media/audio/stims/spherical_300cm_s20_c1_cd-1_matched_a10.wav","spherical","20","1","1","matched","10","20","1533"
"echo-presentation","82","621928","0.0-82.0","5ee90152ce51c4136b6646cd","60201dea606b8d5e5aa9e528","60202260bbecc35e6d85a850","Mozilla/5.0 (Windows NT 10.0; Win64; x64) AppleWebKit/537.36 (KHTML, like Gecko) Chrome/88.0.4324.150 Safari/537.36","v1-up-stims","","","","","","","","-20,-10,0,10,20","media/audio/stims/spherical_300cm_s20_c1_cd-1_matched_a0.wav","spherical","20","1","1","matched","0","-10","1330"
"echo-presentation","83","624247","0.0-83.0","5ee90152ce51c4136b6646cd","60201dea606b8d5e5aa9e528","60202260bbecc35e6d85a850","Mozilla/5.0 (Windows NT 10.0; Win64; x64) AppleWebKit/537.36 (KHTML, like Gecko) Chrome/88.0.4324.150 Safari/537.36","v1-up-stims","","","","","","","","-20,-10,0,10,20","media/audio/stims/spherical_300cm_s20_c1_cd-1_matched_a-20.wav","spherical","20","1","1","matched","-20","-20","1132"
"echo-presentation","84","626276","0.0-84.0","5ee90152ce51c4136b6646cd","60201dea606b8d5e5aa9e528","60202260bbecc35e6d85a850","Mozilla/5.0 (Windows NT 10.0; Win64; x64) AppleWebKit/537.36 (KHTML, like Gecko) Chrome/88.0.4324.150 Safari/537.36","v1-up-stims","","","","","","","","-20,-10,0,10,20","media/audio/stims/spherical_300cm_s20_c1_cd-1_matched_a20.wav","spherical","20","1","1","matched","20","20","1311"
"echo-presentation","85","628007","0.0-85.0","5ee90152ce51c4136b6646cd","60201dea606b8d5e5aa9e528","60202260bbecc35e6d85a850","Mozilla/5.0 (Windows NT 10.0; Win64; x64) AppleWebKit/537.36 (KHTML, like Gecko) Chrome/88.0.4324.150 Safari/537.36","v1-up-stims","","","","","","","","-20,-10,0,10,20","media/audio/stims/spherical_300cm_s20_c1_cd-1_matched_a0.wav","spherical","20","1","1","matched","0","0","1201"
"echo-presentation","86","630967","0.0-86.0","5ee90152ce51c4136b6646cd","60201dea606b8d5e5aa9e528","60202260bbecc35e6d85a850","Mozilla/5.0 (Windows NT 10.0; Win64; x64) AppleWebKit/537.36 (KHTML, like Gecko) Chrome/88.0.4324.150 Safari/537.36","v1-up-stims","","","","","","","","-20,-10,0,10,20","media/audio/stims/spherical_300cm_s20_c1_cd-1_matched_a0.wav","spherical","20","1","1","matched","0","20","1264"
"echo-presentation","87","632603","0.0-87.0","5ee90152ce51c4136b6646cd","60201dea606b8d5e5aa9e528","60202260bbecc35e6d85a850","Mozilla/5.0 (Windows NT 10.0; Win64; x64) AppleWebKit/537.36 (KHTML, like Gecko) Chrome/88.0.4324.150 Safari/537.36","v1-up-stims","","","","","","","","-20,-10,0,10,20","media/audio/stims/spherical_300cm_s20_c1_cd-1_matched_a-10.wav","spherical","20","1","1","matched","-10","-20","1013"
"echo-presentation","88","634364","0.0-88.0","5ee90152ce51c4136b6646cd","60201dea606b8d5e5aa9e528","60202260bbecc35e6d85a850","Mozilla/5.0 (Windows NT 10.0; Win64; x64) AppleWebKit/537.36 (KHTML, like Gecko) Chrome/88.0.4324.150 Safari/537.36","v1-up-stims","","","","","","","","-20,-10,0,10,20","media/audio/stims/spherical_300cm_s20_c1_cd-1_matched_a10.wav","spherical","20","1","1","matched","10","20","1110"
"echo-presentation","89","636254","0.0-89.0","5ee90152ce51c4136b6646cd","60201dea606b8d5e5aa9e528","60202260bbecc35e6d85a850","Mozilla/5.0 (Windows NT 10.0; Win64; x64) AppleWebKit/537.36 (KHTML, like Gecko) Chrome/88.0.4324.150 Safari/537.36","v1-up-stims","","","","","","","","-20,-10,0,10,20","media/audio/stims/spherical_300cm_s20_c1_cd-1_matched_a20.wav","spherical","20","1","1","matched","20","20","1373"
"echo-presentation","90","639467","0.0-90.0","5ee90152ce51c4136b6646cd","60201dea606b8d5e5aa9e528","60202260bbecc35e6d85a850","Mozilla/5.0 (Windows NT 10.0; Win64; x64) AppleWebKit/537.36 (KHTML, like Gecko) Chrome/88.0.4324.150 Safari/537.36","v1-up-stims","","","","","","","","-20,-10,0,10,20","media/audio/stims/spherical_300cm_s20_c1_cd-1_matched_a-20.wav","spherical","20","1","1","matched","-20","-10","1362"
"echo-presentation","91","641532","0.0-91.0","5ee90152ce51c4136b6646cd","60201dea606b8d5e5aa9e528","60202260bbecc35e6d85a850","Mozilla/5.0 (Windows NT 10.0; Win64; x64) AppleWebKit/537.36 (KHTML, like Gecko) Chrome/88.0.4324.150 Safari/537.36","v1-up-stims","","","","","","","","-20,-10,0,10,20","media/audio/stims/spherical_300cm_s20_c1_cd-1_matched_a-20.wav","spherical","20","1","1","matched","-20","0","1281"
"echo-presentation","92","643931","0.0-92.0","5ee90152ce51c4136b6646cd","60201dea606b8d5e5aa9e528","60202260bbecc35e6d85a850","Mozilla/5.0 (Windows NT 10.0; Win64; x64) AppleWebKit/537.36 (KHTML, like Gecko) Chrome/88.0.4324.150 Safari/537.36","v1-up-stims","","","","","","","","-20,-10,0,10,20","media/audio/stims/spherical_300cm_s20_c1_cd-1_matched_a0.wav","spherical","20","1","1","matched","0","10","1293"
"echo-presentation","93","646274","0.0-93.0","5ee90152ce51c4136b6646cd","60201dea606b8d5e5aa9e528","60202260bbecc35e6d85a850","Mozilla/5.0 (Windows NT 10.0; Win64; x64) AppleWebKit/537.36 (KHTML, like Gecko) Chrome/88.0.4324.150 Safari/537.36","v1-up-stims","","","","","","","","-20,-10,0,10,20","media/audio/stims/spherical_300cm_s20_c1_cd-1_matched_a-10.wav","spherical","20","1","1","matched","-10","-20","979"
"block-bookend","94","647437","0.0-94.0","5ee90152ce51c4136b6646cd","60201dea606b8d5e5aa9e528","60202260bbecc35e6d85a850","Mozilla/5.0 (Windows NT 10.0; Win64; x64) AppleWebKit/537.36 (KHTML, like Gecko) Chrome/88.0.4324.150 Safari/537.36","v1-up-stims","","","","","","","","","","","","","","","","",""
"block-bookend","95","655468","0.0-95.0","5ee90152ce51c4136b6646cd","60201dea606b8d5e5aa9e528","60202260bbecc35e6d85a850","Mozilla/5.0 (Windows NT 10.0; Win64; x64) AppleWebKit/537.36 (KHTML, like Gecko) Chrome/88.0.4324.150 Safari/537.36","v1-up-stims","","","","","","","","","","","","","","","","",""
"echo-presentation","96","659268","0.0-96.0","5ee90152ce51c4136b6646cd","60201dea606b8d5e5aa9e528","60202260bbecc35e6d85a850","Mozilla/5.0 (Windows NT 10.0; Win64; x64) AppleWebKit/537.36 (KHTML, like Gecko) Chrome/88.0.4324.150 Safari/537.36","v1-up-stims","","","","","","","","40,50,60,70,80","media/audio/stims/spherical_300cm_s20_c1_cd-1_matched_a70.wav","spherical","20","1","1","matched","70","80","1630"
"echo-presentation","97","661423","0.0-97.0","5ee90152ce51c4136b6646cd","60201dea606b8d5e5aa9e528","60202260bbecc35e6d85a850","Mozilla/5.0 (Windows NT 10.0; Win64; x64) AppleWebKit/537.36 (KHTML, like Gecko) Chrome/88.0.4324.150 Safari/537.36","v1-up-stims","","","","","","","","40,50,60,70,80","media/audio/stims/spherical_300cm_s20_c1_cd-1_matched_a60.wav","spherical","20","1","1","matched","60","80","1345"
"echo-presentation","98","663848","0.0-98.0","5ee90152ce51c4136b6646cd","60201dea606b8d5e5aa9e528","60202260bbecc35e6d85a850","Mozilla/5.0 (Windows NT 10.0; Win64; x64) AppleWebKit/537.36 (KHTML, like Gecko) Chrome/88.0.4324.150 Safari/537.36","v1-up-stims","","","","","","","","40,50,60,70,80","media/audio/stims/spherical_300cm_s20_c1_cd-1_matched_a80.wav","spherical","20","1","1","matched","80","70","1444"
"echo-presentation","99","666801","0.0-99.0","5ee90152ce51c4136b6646cd","60201dea606b8d5e5aa9e528","60202260bbecc35e6d85a850","Mozilla/5.0 (Windows NT 10.0; Win64; x64) AppleWebKit/537.36 (KHTML, like Gecko) Chrome/88.0.4324.150 Safari/537.36","v1-up-stims","","","","","","","","40,50,60,70,80","media/audio/stims/spherical_300cm_s20_c1_cd-1_matched_a40.wav","spherical","20","1","1","matched","40","80","1778"
"echo-presentation","100","669185","0.0-100.0","5ee90152ce51c4136b6646cd","60201dea606b8d5e5aa9e528","60202260bbecc35e6d85a850","Mozilla/5.0 (Windows NT 10.0; Win64; x64) AppleWebKit/537.36 (KHTML, like Gecko) Chrome/88.0.4324.150 Safari/537.36","v1-up-stims","","","","","","","","40,50,60,70,80","media/audio/stims/spherical_300cm_s20_c1_cd-1_matched_a40.wav","spherical","20","1","1","matched","40","60","1818"
"echo-presentation","101","672476","0.0-101.0","5ee90152ce51c4136b6646cd","60201dea606b8d5e5aa9e528","60202260bbecc35e6d85a850","Mozilla/5.0 (Windows NT 10.0; Win64; x64) AppleWebKit/537.36 (KHTML, like Gecko) Chrome/88.0.4324.150 Safari/537.36","v1-up-stims","","","","","","","","40,50,60,70,80","media/audio/stims/spherical_300cm_s20_c1_cd-1_matched_a80.wav","spherical","20","1","1","matched","80","40","2404"
"echo-presentation","102","674826","0.0-102.0","5ee90152ce51c4136b6646cd","60201dea606b8d5e5aa9e528","60202260bbecc35e6d85a850","Mozilla/5.0 (Windows NT 10.0; Win64; x64) AppleWebKit/537.36 (KHTML, like Gecko) Chrome/88.0.4324.150 Safari/537.36","v1-up-stims","","","","","","","","40,50,60,70,80","media/audio/stims/spherical_300cm_s20_c1_cd-1_matched_a60.wav","spherical","20","1","1","matched","60","40","1449"
"echo-presentation","103","676729","0.0-103.0","5ee90152ce51c4136b6646cd","60201dea606b8d5e5aa9e528","60202260bbecc35e6d85a850","Mozilla/5.0 (Windows NT 10.0; Win64; x64) AppleWebKit/537.36 (KHTML, like Gecko) Chrome/88.0.4324.150 Safari/537.36","v1-up-stims","","","","","","","","40,50,60,70,80","media/audio/stims/spherical_300cm_s20_c1_cd-1_matched_a50.wav","spherical","20","1","1","matched","50","60","1005"
"echo-presentation","104","678980","0.0-104.0","5ee90152ce51c4136b6646cd","60201dea606b8d5e5aa9e528","60202260bbecc35e6d85a850","Mozilla/5.0 (Windows NT 10.0; Win64; x64) AppleWebKit/537.36 (KHTML, like Gecko) Chrome/88.0.4324.150 Safari/537.36","v1-up-stims","","","","","","","","40,50,60,70,80","media/audio/stims/spherical_300cm_s20_c1_cd-1_matched_a70.wav","spherical","20","1","1","matched","70","70","1176"
"echo-presentation","105","680771","0.0-105.0","5ee90152ce51c4136b6646cd","60201dea606b8d5e5aa9e528","60202260bbecc35e6d85a850","Mozilla/5.0 (Windows NT 10.0; Win64; x64) AppleWebKit/537.36 (KHTML, like Gecko) Chrome/88.0.4324.150 Safari/537.36","v1-up-stims","","","","","","","","40,50,60,70,80","media/audio/stims/spherical_300cm_s20_c1_cd-1_matched_a40.wav","spherical","20","1","1","matched","40","80","889"
"echo-presentation","106","682909","0.0-106.0","5ee90152ce51c4136b6646cd","60201dea606b8d5e5aa9e528","60202260bbecc35e6d85a850","Mozilla/5.0 (Windows NT 10.0; Win64; x64) AppleWebKit/537.36 (KHTML, like Gecko) Chrome/88.0.4324.150 Safari/537.36","v1-up-stims","","","","","","","","40,50,60,70,80","media/audio/stims/spherical_300cm_s20_c1_cd-1_matched_a40.wav","spherical","20","1","1","matched","40","80","986"
"echo-presentation","107","685595","0.0-107.0","5ee90152ce51c4136b6646cd","60201dea606b8d5e5aa9e528","60202260bbecc35e6d85a850","Mozilla/5.0 (Windows NT 10.0; Win64; x64) AppleWebKit/537.36 (KHTML, like Gecko) Chrome/88.0.4324.150 Safari/537.36","v1-up-stims","","","","","","","","40,50,60,70,80","media/audio/stims/spherical_300cm_s20_c1_cd-1_matched_a60.wav","spherical","20","1","1","matched","60","50","1677"
"echo-presentation","108","688209","0.0-108.0","5ee90152ce51c4136b6646cd","60201dea606b8d5e5aa9e528","60202260bbecc35e6d85a850","Mozilla/5.0 (Windows NT 10.0; Win64; x64) AppleWebKit/537.36 (KHTML, like Gecko) Chrome/88.0.4324.150 Safari/537.36","v1-up-stims","","","","","","","","40,50,60,70,80","media/audio/stims/spherical_300cm_s20_c1_cd-1_matched_a80.wav","spherical","20","1","1","matched","80","60","1781"
"echo-presentation","109","690429","0.0-109.0","5ee90152ce51c4136b6646cd","60201dea606b8d5e5aa9e528","60202260bbecc35e6d85a850","Mozilla/5.0 (Windows NT 10.0; Win64; x64) AppleWebKit/537.36 (KHTML, like Gecko) Chrome/88.0.4324.150 Safari/537.36","v1-up-stims","","","","","","","","40,50,60,70,80","media/audio/stims/spherical_300cm_s20_c1_cd-1_matched_a60.wav","spherical","20","1","1","matched","60","70","1392"
"echo-presentation","110","692509","0.0-110.0","5ee90152ce51c4136b6646cd","60201dea606b8d5e5aa9e528","60202260bbecc35e6d85a850","Mozilla/5.0 (Windows NT 10.0; Win64; x64) AppleWebKit/537.36 (KHTML, like Gecko) Chrome/88.0.4324.150 Safari/537.36","v1-up-stims","","","","","","","","40,50,60,70,80","media/audio/stims/spherical_300cm_s20_c1_cd-1_matched_a80.wav","spherical","20","1","1","matched","80","70","1281"
"echo-presentation","111","694672","0.0-111.0","5ee90152ce51c4136b6646cd","60201dea606b8d5e5aa9e528","60202260bbecc35e6d85a850","Mozilla/5.0 (Windows NT 10.0; Win64; x64) AppleWebKit/537.36 (KHTML, like Gecko) Chrome/88.0.4324.150 Safari/537.36","v1-up-stims","","","","","","","","40,50,60,70,80","media/audio/stims/spherical_300cm_s20_c1_cd-1_matched_a70.wav","spherical","20","1","1","matched","70","80","1065"
"echo-presentation","112","696692","0.0-112.0","5ee90152ce51c4136b6646cd","60201dea606b8d5e5aa9e528","60202260bbecc35e6d85a850","Mozilla/5.0 (Windows NT 10.0; Win64; x64) AppleWebKit/537.36 (KHTML, like Gecko) Chrome/88.0.4324.150 Safari/537.36","v1-up-stims","","","","","","","","40,50,60,70,80","media/audio/stims/spherical_300cm_s20_c1_cd-1_matched_a70.wav","spherical","20","1","1","matched","70","60","885"
"echo-presentation","113","698924","0.0-113.0","5ee90152ce51c4136b6646cd","60201dea606b8d5e5aa9e528","60202260bbecc35e6d85a850","Mozilla/5.0 (Windows NT 10.0; Win64; x64) AppleWebKit/537.36 (KHTML, like Gecko) Chrome/88.0.4324.150 Safari/537.36","v1-up-stims","","","","","","","","40,50,60,70,80","media/audio/stims/spherical_300cm_s20_c1_cd-1_matched_a50.wav","spherical","20","1","1","matched","50","70","1070"
"echo-presentation","114","700737","0.0-114.0","5ee90152ce51c4136b6646cd","60201dea606b8d5e5aa9e528","60202260bbecc35e6d85a850","Mozilla/5.0 (Windows NT 10.0; Win64; x64) AppleWebKit/537.36 (KHTML, like Gecko) Chrome/88.0.4324.150 Safari/537.36","v1-up-stims","","","","","","","","40,50,60,70,80","media/audio/stims/spherical_300cm_s20_c1_cd-1_matched_a50.wav","spherical","20","1","1","matched","50","70","936"
"echo-presentation","115","702765","0.0-115.0","5ee90152ce51c4136b6646cd","60201dea606b8d5e5aa9e528","60202260bbecc35e6d85a850","Mozilla/5.0 (Windows NT 10.0; Win64; x64) AppleWebKit/537.36 (KHTML, like Gecko) Chrome/88.0.4324.150 Safari/537.36","v1-up-stims","","","","","","","","40,50,60,70,80","media/audio/stims/spherical_300cm_s20_c1_cd-1_matched_a50.wav","spherical","20","1","1","matched","50","80","957"
"block-bookend","116","703835","0.0-116.0","5ee90152ce51c4136b6646cd","60201dea606b8d5e5aa9e528","60202260bbecc35e6d85a850","Mozilla/5.0 (Windows NT 10.0; Win64; x64) AppleWebKit/537.36 (KHTML, like Gecko) Chrome/88.0.4324.150 Safari/537.36","v1-up-stims","","","","","","","","","","","","","","","","",""
"block-bookend","117","710651","0.0-117.0","5ee90152ce51c4136b6646cd","60201dea606b8d5e5aa9e528","60202260bbecc35e6d85a850","Mozilla/5.0 (Windows NT 10.0; Win64; x64) AppleWebKit/537.36 (KHTML, like Gecko) Chrome/88.0.4324.150 Safari/537.36","v1-up-stims","","","","","","","","","","","","","","","","",""
"echo-presentation","118","713764","0.0-118.0","5ee90152ce51c4136b6646cd","60201dea606b8d5e5aa9e528","60202260bbecc35e6d85a850","Mozilla/5.0 (Windows NT 10.0; Win64; x64) AppleWebKit/537.36 (KHTML, like Gecko) Chrome/88.0.4324.150 Safari/537.36","v1-up-stims","","","","","","","","40,50,60,70,80","media/audio/stims/spherical_300cm_s20_c1_cd-1_matched_a60.wav","spherical","20","1","1","matched","60","80","1383"
"echo-presentation","119","715728","0.0-119.0","5ee90152ce51c4136b6646cd","60201dea606b8d5e5aa9e528","60202260bbecc35e6d85a850","Mozilla/5.0 (Windows NT 10.0; Win64; x64) AppleWebKit/537.36 (KHTML, like Gecko) Chrome/88.0.4324.150 Safari/537.36","v1-up-stims","","","","","","","","40,50,60,70,80","media/audio/stims/spherical_300cm_s20_c1_cd-1_matched_a40.wav","spherical","20","1","1","matched","40","60","1098"
"echo-presentation","120","718277","0.0-120.0","5ee90152ce51c4136b6646cd","60201dea606b8d5e5aa9e528","60202260bbecc35e6d85a850","Mozilla/5.0 (Windows NT 10.0; Win64; x64) AppleWebKit/537.36 (KHTML, like Gecko) Chrome/88.0.4324.150 Safari/537.36","v1-up-stims","","","","","","","","40,50,60,70,80","media/audio/stims/spherical_300cm_s20_c1_cd-1_matched_a70.wav","spherical","20","1","1","matched","70","60","1427"
"echo-presentation","121","720576","0.0-121.0","5ee90152ce51c4136b6646cd","60201dea606b8d5e5aa9e528","60202260bbecc35e6d85a850","Mozilla/5.0 (Windows NT 10.0; Win64; x64) AppleWebKit/537.36 (KHTML, like Gecko) Chrome/88.0.4324.150 Safari/537.36","v1-up-stims","","","","","","","","40,50,60,70,80","media/audio/stims/spherical_300cm_s20_c1_cd-1_matched_a80.wav","spherical","20","1","1","matched","80","70","1286"
"echo-presentation","122","722757","0.0-122.0","5ee90152ce51c4136b6646cd","60201dea606b8d5e5aa9e528","60202260bbecc35e6d85a850","Mozilla/5.0 (Windows NT 10.0; Win64; x64) AppleWebKit/537.36 (KHTML, like Gecko) Chrome/88.0.4324.150 Safari/537.36","v1-up-stims","","","","","","","","40,50,60,70,80","media/audio/stims/spherical_300cm_s20_c1_cd-1_matched_a60.wav","spherical","20","1","1","matched","60","70","1266"
"echo-presentation","123","725251","0.0-123.0","5ee90152ce51c4136b6646cd","60201dea606b8d5e5aa9e528","60202260bbecc35e6d85a850","Mozilla/5.0 (Windows NT 10.0; Win64; x64) AppleWebKit/537.36 (KHTML, like Gecko) Chrome/88.0.4324.150 Safari/537.36","v1-up-stims","","","","","","","","40,50,60,70,80","media/audio/stims/spherical_300cm_s20_c1_cd-1_matched_a50.wav","spherical","20","1","1","matched","50","80","1585"
"echo-presentation","124","727427","0.0-124.0","5ee90152ce51c4136b6646cd","60201dea606b8d5e5aa9e528","60202260bbecc35e6d85a850","Mozilla/5.0 (Windows NT 10.0; Win64; x64) AppleWebKit/537.36 (KHTML, like Gecko) Chrome/88.0.4324.150 Safari/537.36","v1-up-stims","","","","","","","","40,50,60,70,80","media/audio/stims/spherical_300cm_s20_c1_cd-1_matched_a80.wav","spherical","20","1","1","matched","80","80","1379"
"echo-presentation","125","729679","0.0-125.0","5ee90152ce51c4136b6646cd","60201dea606b8d5e5aa9e528","60202260bbecc35e6d85a850","Mozilla/5.0 (Windows NT 10.0; Win64; x64) AppleWebKit/537.36 (KHTML, like Gecko) Chrome/88.0.4324.150 Safari/537.36","v1-up-stims","","","","","","","","40,50,60,70,80","media/audio/stims/spherical_300cm_s20_c1_cd-1_matched_a70.wav","spherical","20","1","1","matched","70","80","1346"
"echo-presentation","126","731481","0.0-126.0","5ee90152ce51c4136b6646cd","60201dea606b8d5e5aa9e528","60202260bbecc35e6d85a850","Mozilla/5.0 (Windows NT 10.0; Win64; x64) AppleWebKit/537.36 (KHTML, like Gecko) Chrome/88.0.4324.150 Safari/537.36","v1-up-stims","","","","","","","","40,50,60,70,80","media/audio/stims/spherical_300cm_s20_c1_cd-1_matched_a80.wav","spherical","20","1","1","matched","80","50","982"
"echo-presentation","127","733435","0.0-127.0","5ee90152ce51c4136b6646cd","60201dea606b8d5e5aa9e528","60202260bbecc35e6d85a850","Mozilla/5.0 (Windows NT 10.0; Win64; x64) AppleWebKit/537.36 (KHTML, like Gecko) Chrome/88.0.4324.150 Safari/537.36","v1-up-stims","","","","","","","","40,50,60,70,80","media/audio/stims/spherical_300cm_s20_c1_cd-1_matched_a40.wav","spherical","20","1","1","matched","40","70","961"
"echo-presentation","128","735645","0.0-128.0","5ee90152ce51c4136b6646cd","60201dea606b8d5e5aa9e528","60202260bbecc35e6d85a850","Mozilla/5.0 (Windows NT 10.0; Win64; x64) AppleWebKit/537.36 (KHTML, like Gecko) Chrome/88.0.4324.150 Safari/537.36","v1-up-stims","","","","","","","","40,50,60,70,80","media/audio/stims/spherical_300cm_s20_c1_cd-1_matched_a60.wav","spherical","20","1","1","matched","60","70","1182"
"echo-presentation","129","737822","0.0-129.0","5ee90152ce51c4136b6646cd","60201dea606b8d5e5aa9e528","60202260bbecc35e6d85a850","Mozilla/5.0 (Windows NT 10.0; Win64; x64) AppleWebKit/537.36 (KHTML, like Gecko) Chrome/88.0.4324.150 Safari/537.36","v1-up-stims","","","","","","","","40,50,60,70,80","media/audio/stims/spherical_300cm_s20_c1_cd-1_matched_a70.wav","spherical","20","1","1","matched","70","80","1038"
"echo-presentation","130","739818","0.0-130.0","5ee90152ce51c4136b6646cd","60201dea606b8d5e5aa9e528","60202260bbecc35e6d85a850","Mozilla/5.0 (Windows NT 10.0; Win64; x64) AppleWebKit/537.36 (KHTML, like Gecko) Chrome/88.0.4324.150 Safari/537.36","v1-up-stims","","","","","","","","40,50,60,70,80","media/audio/stims/spherical_300cm_s20_c1_cd-1_matched_a70.wav","spherical","20","1","1","matched","70","70","1010"
"echo-presentation","131","741869","0.0-131.0","5ee90152ce51c4136b6646cd","60201dea606b8d5e5aa9e528","60202260bbecc35e6d85a850","Mozilla/5.0 (Windows NT 10.0; Win64; x64) AppleWebKit/537.36 (KHTML, like Gecko) Chrome/88.0.4324.150 Safari/537.36","v1-up-stims","","","","","","","","40,50,60,70,80","media/audio/stims/spherical_300cm_s20_c1_cd-1_matched_a40.wav","spherical","20","1","1","matched","40","40","876"
"echo-presentation","132","743902","0.0-132.0","5ee90152ce51c4136b6646cd","60201dea606b8d5e5aa9e528","60202260bbecc35e6d85a850","Mozilla/5.0 (Windows NT 10.0; Win64; x64) AppleWebKit/537.36 (KHTML, like Gecko) Chrome/88.0.4324.150 Safari/537.36","v1-up-stims","","","","","","","","40,50,60,70,80","media/audio/stims/spherical_300cm_s20_c1_cd-1_matched_a60.wav","spherical","20","1","1","matched","60","60","940"
"echo-presentation","133","745706","0.0-133.0","5ee90152ce51c4136b6646cd","60201dea606b8d5e5aa9e528","60202260bbecc35e6d85a850","Mozilla/5.0 (Windows NT 10.0; Win64; x64) AppleWebKit/537.36 (KHTML, like Gecko) Chrome/88.0.4324.150 Safari/537.36","v1-up-stims","","","","","","","","40,50,60,70,80","media/audio/stims/spherical_300cm_s20_c1_cd-1_matched_a40.wav","spherical","20","1","1","matched","40","70","885"
"echo-presentation","134","747384","0.0-134.0","5ee90152ce51c4136b6646cd","60201dea606b8d5e5aa9e528","60202260bbecc35e6d85a850","Mozilla/5.0 (Windows NT 10.0; Win64; x64) AppleWebKit/537.36 (KHTML, like Gecko) Chrome/88.0.4324.150 Safari/537.36","v1-up-stims","","","","","","","","40,50,60,70,80","media/audio/stims/spherical_300cm_s20_c1_cd-1_matched_a50.wav","spherical","20","1","1","matched","50","70","864"
"echo-presentation","135","749338","0.0-135.0","5ee90152ce51c4136b6646cd","60201dea606b8d5e5aa9e528","60202260bbecc35e6d85a850","Mozilla/5.0 (Windows NT 10.0; Win64; x64) AppleWebKit/537.36 (KHTML, like Gecko) Chrome/88.0.4324.150 Safari/537.36","v1-up-stims","","","","","","","","40,50,60,70,80","media/audio/stims/spherical_300cm_s20_c1_cd-1_matched_a50.wav","spherical","20","1","1","matched","50","80","913"
"echo-presentation","136","751779","0.0-136.0","5ee90152ce51c4136b6646cd","60201dea606b8d5e5aa9e528","60202260bbecc35e6d85a850","Mozilla/5.0 (Windows NT 10.0; Win64; x64) AppleWebKit/537.36 (KHTML, like Gecko) Chrome/88.0.4324.150 Safari/537.36","v1-up-stims","","","","","","","","40,50,60,70,80","media/audio/stims/spherical_300cm_s20_c1_cd-1_matched_a50.wav","spherical","20","1","1","matched","50","80","1478"
"echo-presentation","137","753850","0.0-137.0","5ee90152ce51c4136b6646cd","60201dea606b8d5e5aa9e528","60202260bbecc35e6d85a850","Mozilla/5.0 (Windows NT 10.0; Win64; x64) AppleWebKit/537.36 (KHTML, like Gecko) Chrome/88.0.4324.150 Safari/537.36","v1-up-stims","","","","","","","","40,50,60,70,80","media/audio/stims/spherical_300cm_s20_c1_cd-1_matched_a80.wav","spherical","20","1","1","matched","80","80","963"
"block-bookend","138","754959","0.0-138.0","5ee90152ce51c4136b6646cd","60201dea606b8d5e5aa9e528","60202260bbecc35e6d85a850","Mozilla/5.0 (Windows NT 10.0; Win64; x64) AppleWebKit/537.36 (KHTML, like Gecko) Chrome/88.0.4324.150 Safari/537.36","v1-up-stims","","","","","","","","","","","","","","","","",""
