"trial_type","trial_index","time_elapsed","internal_node_id","prolificPid","studyId","sessionId","userAgent","version","rt","stimulus","key_press","chosenKeyset","failureCount","testIndex","globalVolume","choices","filename","modelName","slowdown","compensation","compensationDescriptor","receiverOrientationType","azimuth","responseAzimuth","responseDelay"
"pavlovia","0","3","0.0-0.0","5f994d63dab1e6030839f627","5fef55e628823a0076ec12ee","602014e6caa62b5bee8a2316","Mozilla/5.0 (Windows NT 10.0; Win64; x64) AppleWebKit/537.36 (KHTML, like Gecko) Chrome/88.0.4324.146 Safari/537.36","v1-up-stims","","","","","","","","","","","","","","","","",""
"html-keyboard-response","1","2566","0.0-1.0","5f994d63dab1e6030839f627","5fef55e628823a0076ec12ee","602014e6caa62b5bee8a2316","Mozilla/5.0 (Windows NT 10.0; Win64; x64) AppleWebKit/537.36 (KHTML, like Gecko) Chrome/88.0.4324.146 Safari/537.36","v1-up-stims","2562.659999995958","<div><h1>Welcome!</h1><p>Press any key to continue.</p></div>","13","","","","","","","","","","","","","",""
"consent-form","2","11981","0.0-2.0","5f994d63dab1e6030839f627","5fef55e628823a0076ec12ee","602014e6caa62b5bee8a2316","Mozilla/5.0 (Windows NT 10.0; Win64; x64) AppleWebKit/537.36 (KHTML, like Gecko) Chrome/88.0.4324.146 Safari/537.36","v1-up-stims","","","","","","","","","","","","","","","","",""
"keyset-select","3","25015","0.0-3.0","5f994d63dab1e6030839f627","5fef55e628823a0076ec12ee","602014e6caa62b5bee8a2316","Mozilla/5.0 (Windows NT 10.0; Win64; x64) AppleWebKit/537.36 (KHTML, like Gecko) Chrome/88.0.4324.146 Safari/537.36","v1-up-stims","","","","right-hand","","","","","","","","","","","","",""
"headphone-check","4","69375","0.0-4.0","5f994d63dab1e6030839f627","5fef55e628823a0076ec12ee","602014e6caa62b5bee8a2316","Mozilla/5.0 (Windows NT 10.0; Win64; x64) AppleWebKit/537.36 (KHTML, like Gecko) Chrome/88.0.4324.146 Safari/537.36","v1-up-stims","","","","","1","6","0.3","","","","","","","","","",""
"headphone-backwards-check","5","73879","0.0-5.0","5f994d63dab1e6030839f627","5fef55e628823a0076ec12ee","602014e6caa62b5bee8a2316","Mozilla/5.0 (Windows NT 10.0; Win64; x64) AppleWebKit/537.36 (KHTML, like Gecko) Chrome/88.0.4324.146 Safari/537.36","v1-up-stims","","","","","0","","","","","","","","","","","",""
"training","6","141309","0.0-6.0","5f994d63dab1e6030839f627","5fef55e628823a0076ec12ee","602014e6caa62b5bee8a2316","Mozilla/5.0 (Windows NT 10.0; Win64; x64) AppleWebKit/537.36 (KHTML, like Gecko) Chrome/88.0.4324.146 Safari/537.36","v1-up-stims","","","","","","","","","","","","","","","","",""
"block-bookend","7","156701","0.0-7.0","5f994d63dab1e6030839f627","5fef55e628823a0076ec12ee","602014e6caa62b5bee8a2316","Mozilla/5.0 (Windows NT 10.0; Win64; x64) AppleWebKit/537.36 (KHTML, like Gecko) Chrome/88.0.4324.146 Safari/537.36","v1-up-stims","","","","","","","","","","","","","","","","",""
"echo-presentation","8","161517","0.0-8.0","5f994d63dab1e6030839f627","5fef55e628823a0076ec12ee","602014e6caa62b5bee8a2316","Mozilla/5.0 (Windows NT 10.0; Win64; x64) AppleWebKit/537.36 (KHTML, like Gecko) Chrome/88.0.4324.146 Safari/537.36","v1-up-stims","","","","","","","","-20,-10,0,10,20","media/audio/stims/spherical_300cm_s20_c20_cd-full_matched_a-20.wav","spherical","20","20","full","matched","-20","-10","2398"
"echo-presentation","9","165345","0.0-9.0","5f994d63dab1e6030839f627","5fef55e628823a0076ec12ee","602014e6caa62b5bee8a2316","Mozilla/5.0 (Windows NT 10.0; Win64; x64) AppleWebKit/537.36 (KHTML, like Gecko) Chrome/88.0.4324.146 Safari/537.36","v1-up-stims","","","","","","","","-20,-10,0,10,20","media/audio/stims/spherical_300cm_s20_c20_cd-full_matched_a0.wav","spherical","20","20","full","matched","0","0","2414"
"echo-presentation","10","169252","0.0-10.0","5f994d63dab1e6030839f627","5fef55e628823a0076ec12ee","602014e6caa62b5bee8a2316","Mozilla/5.0 (Windows NT 10.0; Win64; x64) AppleWebKit/537.36 (KHTML, like Gecko) Chrome/88.0.4324.146 Safari/537.36","v1-up-stims","","","","","","","","-20,-10,0,10,20","media/audio/stims/spherical_300cm_s20_c20_cd-full_matched_a0.wav","spherical","20","20","full","matched","0","0","2398"
"echo-presentation","11","172507","0.0-11.0","5f994d63dab1e6030839f627","5fef55e628823a0076ec12ee","602014e6caa62b5bee8a2316","Mozilla/5.0 (Windows NT 10.0; Win64; x64) AppleWebKit/537.36 (KHTML, like Gecko) Chrome/88.0.4324.146 Safari/537.36","v1-up-stims","","","","","","","","-20,-10,0,10,20","media/audio/stims/spherical_300cm_s20_c20_cd-full_matched_a-20.wav","spherical","20","20","full","matched","-20","-20","2078"
"echo-presentation","12","175531","0.0-12.0","5f994d63dab1e6030839f627","5fef55e628823a0076ec12ee","602014e6caa62b5bee8a2316","Mozilla/5.0 (Windows NT 10.0; Win64; x64) AppleWebKit/537.36 (KHTML, like Gecko) Chrome/88.0.4324.146 Safari/537.36","v1-up-stims","","","","","","","","-20,-10,0,10,20","media/audio/stims/spherical_300cm_s20_c20_cd-full_matched_a20.wav","spherical","20","20","full","matched","20","10","1838"
"echo-presentation","13","178689","0.0-13.0","5f994d63dab1e6030839f627","5fef55e628823a0076ec12ee","602014e6caa62b5bee8a2316","Mozilla/5.0 (Windows NT 10.0; Win64; x64) AppleWebKit/537.36 (KHTML, like Gecko) Chrome/88.0.4324.146 Safari/537.36","v1-up-stims","","","","","","","","-20,-10,0,10,20","media/audio/stims/spherical_300cm_s20_c20_cd-full_matched_a10.wav","spherical","20","20","full","matched","10","10","1461"
"echo-presentation","14","181277","0.0-14.0","5f994d63dab1e6030839f627","5fef55e628823a0076ec12ee","602014e6caa62b5bee8a2316","Mozilla/5.0 (Windows NT 10.0; Win64; x64) AppleWebKit/537.36 (KHTML, like Gecko) Chrome/88.0.4324.146 Safari/537.36","v1-up-stims","","","","","","","","-20,-10,0,10,20","media/audio/stims/spherical_300cm_s20_c20_cd-full_matched_a10.wav","spherical","20","20","full","matched","10","10","1454"
"echo-presentation","15","183841","0.0-15.0","5f994d63dab1e6030839f627","5fef55e628823a0076ec12ee","602014e6caa62b5bee8a2316","Mozilla/5.0 (Windows NT 10.0; Win64; x64) AppleWebKit/537.36 (KHTML, like Gecko) Chrome/88.0.4324.146 Safari/537.36","v1-up-stims","","","","","","","","-20,-10,0,10,20","media/audio/stims/spherical_300cm_s20_c20_cd-full_matched_a-20.wav","spherical","20","20","full","matched","-20","-10","1374"
"echo-presentation","16","186665","0.0-16.0","5f994d63dab1e6030839f627","5fef55e628823a0076ec12ee","602014e6caa62b5bee8a2316","Mozilla/5.0 (Windows NT 10.0; Win64; x64) AppleWebKit/537.36 (KHTML, like Gecko) Chrome/88.0.4324.146 Safari/537.36","v1-up-stims","","","","","","","","-20,-10,0,10,20","media/audio/stims/spherical_300cm_s20_c20_cd-full_matched_a-10.wav","spherical","20","20","full","matched","-10","-20","1742"
"echo-presentation","17","189050","0.0-17.0","5f994d63dab1e6030839f627","5fef55e628823a0076ec12ee","602014e6caa62b5bee8a2316","Mozilla/5.0 (Windows NT 10.0; Win64; x64) AppleWebKit/537.36 (KHTML, like Gecko) Chrome/88.0.4324.146 Safari/537.36","v1-up-stims","","","","","","","","-20,-10,0,10,20","media/audio/stims/spherical_300cm_s20_c20_cd-full_matched_a10.wav","spherical","20","20","full","matched","10","10","1398"
"echo-presentation","18","191461","0.0-18.0","5f994d63dab1e6030839f627","5fef55e628823a0076ec12ee","602014e6caa62b5bee8a2316","Mozilla/5.0 (Windows NT 10.0; Win64; x64) AppleWebKit/537.36 (KHTML, like Gecko) Chrome/88.0.4324.146 Safari/537.36","v1-up-stims","","","","","","","","-20,-10,0,10,20","media/audio/stims/spherical_300cm_s20_c20_cd-full_matched_a-10.wav","spherical","20","20","full","matched","-10","-10","1286"
"echo-presentation","19","193634","0.0-19.0","5f994d63dab1e6030839f627","5fef55e628823a0076ec12ee","602014e6caa62b5bee8a2316","Mozilla/5.0 (Windows NT 10.0; Win64; x64) AppleWebKit/537.36 (KHTML, like Gecko) Chrome/88.0.4324.146 Safari/537.36","v1-up-stims","","","","","","","","-20,-10,0,10,20","media/audio/stims/spherical_300cm_s20_c20_cd-full_matched_a-10.wav","spherical","20","20","full","matched","-10","-20","1198"
"echo-presentation","20","197466","0.0-20.0","5f994d63dab1e6030839f627","5fef55e628823a0076ec12ee","602014e6caa62b5bee8a2316","Mozilla/5.0 (Windows NT 10.0; Win64; x64) AppleWebKit/537.36 (KHTML, like Gecko) Chrome/88.0.4324.146 Safari/537.36","v1-up-stims","","","","","","","","-20,-10,0,10,20","media/audio/stims/spherical_300cm_s20_c20_cd-full_matched_a20.wav","spherical","20","20","full","matched","20","0","2742"
"echo-presentation","21","199609","0.0-21.0","5f994d63dab1e6030839f627","5fef55e628823a0076ec12ee","602014e6caa62b5bee8a2316","Mozilla/5.0 (Windows NT 10.0; Win64; x64) AppleWebKit/537.36 (KHTML, like Gecko) Chrome/88.0.4324.146 Safari/537.36","v1-up-stims","","","","","","","","-20,-10,0,10,20","media/audio/stims/spherical_300cm_s20_c20_cd-full_matched_a20.wav","spherical","20","20","full","matched","20","10","1150"
"echo-presentation","22","202009","0.0-22.0","5f994d63dab1e6030839f627","5fef55e628823a0076ec12ee","602014e6caa62b5bee8a2316","Mozilla/5.0 (Windows NT 10.0; Win64; x64) AppleWebKit/537.36 (KHTML, like Gecko) Chrome/88.0.4324.146 Safari/537.36","v1-up-stims","","","","","","","","-20,-10,0,10,20","media/audio/stims/spherical_300cm_s20_c20_cd-full_matched_a20.wav","spherical","20","20","full","matched","20","20","1486"
"echo-presentation","23","204507","0.0-23.0","5f994d63dab1e6030839f627","5fef55e628823a0076ec12ee","602014e6caa62b5bee8a2316","Mozilla/5.0 (Windows NT 10.0; Win64; x64) AppleWebKit/537.36 (KHTML, like Gecko) Chrome/88.0.4324.146 Safari/537.36","v1-up-stims","","","","","","","","-20,-10,0,10,20","media/audio/stims/spherical_300cm_s20_c20_cd-full_matched_a10.wav","spherical","20","20","full","matched","10","10","1390"
"echo-presentation","24","206890","0.0-24.0","5f994d63dab1e6030839f627","5fef55e628823a0076ec12ee","602014e6caa62b5bee8a2316","Mozilla/5.0 (Windows NT 10.0; Win64; x64) AppleWebKit/537.36 (KHTML, like Gecko) Chrome/88.0.4324.146 Safari/537.36","v1-up-stims","","","","","","","","-20,-10,0,10,20","media/audio/stims/spherical_300cm_s20_c20_cd-full_matched_a0.wav","spherical","20","20","full","matched","0","0","1502"
"echo-presentation","25","209786","0.0-25.0","5f994d63dab1e6030839f627","5fef55e628823a0076ec12ee","602014e6caa62b5bee8a2316","Mozilla/5.0 (Windows NT 10.0; Win64; x64) AppleWebKit/537.36 (KHTML, like Gecko) Chrome/88.0.4324.146 Safari/537.36","v1-up-stims","","","","","","","","-20,-10,0,10,20","media/audio/stims/spherical_300cm_s20_c20_cd-full_matched_a0.wav","spherical","20","20","full","matched","0","0","1726"
"echo-presentation","26","212532","0.0-26.0","5f994d63dab1e6030839f627","5fef55e628823a0076ec12ee","602014e6caa62b5bee8a2316","Mozilla/5.0 (Windows NT 10.0; Win64; x64) AppleWebKit/537.36 (KHTML, like Gecko) Chrome/88.0.4324.146 Safari/537.36","v1-up-stims","","","","","","","","-20,-10,0,10,20","media/audio/stims/spherical_300cm_s20_c20_cd-full_matched_a-20.wav","spherical","20","20","full","matched","-20","-20","1543"
"echo-presentation","27","215307","0.0-27.0","5f994d63dab1e6030839f627","5fef55e628823a0076ec12ee","602014e6caa62b5bee8a2316","Mozilla/5.0 (Windows NT 10.0; Win64; x64) AppleWebKit/537.36 (KHTML, like Gecko) Chrome/88.0.4324.146 Safari/537.36","v1-up-stims","","","","","","","","-20,-10,0,10,20","media/audio/stims/spherical_300cm_s20_c20_cd-full_matched_a-10.wav","spherical","20","20","full","matched","-10","-20","1590"
"block-bookend","28","218349","0.0-28.0","5f994d63dab1e6030839f627","5fef55e628823a0076ec12ee","602014e6caa62b5bee8a2316","Mozilla/5.0 (Windows NT 10.0; Win64; x64) AppleWebKit/537.36 (KHTML, like Gecko) Chrome/88.0.4324.146 Safari/537.36","v1-up-stims","","","","","","","","","","","","","","","","",""
"block-bookend","29","223973","0.0-29.0","5f994d63dab1e6030839f627","5fef55e628823a0076ec12ee","602014e6caa62b5bee8a2316","Mozilla/5.0 (Windows NT 10.0; Win64; x64) AppleWebKit/537.36 (KHTML, like Gecko) Chrome/88.0.4324.146 Safari/537.36","v1-up-stims","","","","","","","","","","","","","","","","",""
"echo-presentation","30","226458","0.0-30.0","5f994d63dab1e6030839f627","5fef55e628823a0076ec12ee","602014e6caa62b5bee8a2316","Mozilla/5.0 (Windows NT 10.0; Win64; x64) AppleWebKit/537.36 (KHTML, like Gecko) Chrome/88.0.4324.146 Safari/537.36","v1-up-stims","","","","","","","","-20,-10,0,10,20","media/audio/stims/spherical_300cm_s20_c20_cd-full_matched_a0.wav","spherical","20","20","full","matched","0","0","1278"
"echo-presentation","31","229026","0.0-31.0","5f994d63dab1e6030839f627","5fef55e628823a0076ec12ee","602014e6caa62b5bee8a2316","Mozilla/5.0 (Windows NT 10.0; Win64; x64) AppleWebKit/537.36 (KHTML, like Gecko) Chrome/88.0.4324.146 Safari/537.36","v1-up-stims","","","","","","","","-20,-10,0,10,20","media/audio/stims/spherical_300cm_s20_c20_cd-full_matched_a0.wav","spherical","20","20","full","matched","0","-10","1214"
"echo-presentation","32","232570","0.0-32.0","5f994d63dab1e6030839f627","5fef55e628823a0076ec12ee","602014e6caa62b5bee8a2316","Mozilla/5.0 (Windows NT 10.0; Win64; x64) AppleWebKit/537.36 (KHTML, like Gecko) Chrome/88.0.4324.146 Safari/537.36","v1-up-stims","","","","","","","","-20,-10,0,10,20","media/audio/stims/spherical_300cm_s20_c20_cd-full_matched_a20.wav","spherical","20","20","full","matched","20","10","1877"
"echo-presentation","33","234545","0.0-33.0","5f994d63dab1e6030839f627","5fef55e628823a0076ec12ee","602014e6caa62b5bee8a2316","Mozilla/5.0 (Windows NT 10.0; Win64; x64) AppleWebKit/537.36 (KHTML, like Gecko) Chrome/88.0.4324.146 Safari/537.36","v1-up-stims","","","","","","","","-20,-10,0,10,20","media/audio/stims/spherical_300cm_s20_c20_cd-full_matched_a0.wav","spherical","20","20","full","matched","0","0","1149"
"echo-presentation","34","236585","0.0-34.0","5f994d63dab1e6030839f627","5fef55e628823a0076ec12ee","602014e6caa62b5bee8a2316","Mozilla/5.0 (Windows NT 10.0; Win64; x64) AppleWebKit/537.36 (KHTML, like Gecko) Chrome/88.0.4324.146 Safari/537.36","v1-up-stims","","","","","","","","-20,-10,0,10,20","media/audio/stims/spherical_300cm_s20_c20_cd-full_matched_a-10.wav","spherical","20","20","full","matched","-10","-10","1118"
"echo-presentation","35","238937","0.0-35.0","5f994d63dab1e6030839f627","5fef55e628823a0076ec12ee","602014e6caa62b5bee8a2316","Mozilla/5.0 (Windows NT 10.0; Win64; x64) AppleWebKit/537.36 (KHTML, like Gecko) Chrome/88.0.4324.146 Safari/537.36","v1-up-stims","","","","","","","","-20,-10,0,10,20","media/audio/stims/spherical_300cm_s20_c20_cd-full_matched_a-10.wav","spherical","20","20","full","matched","-10","-20","1358"
"echo-presentation","36","240866","0.0-36.0","5f994d63dab1e6030839f627","5fef55e628823a0076ec12ee","602014e6caa62b5bee8a2316","Mozilla/5.0 (Windows NT 10.0; Win64; x64) AppleWebKit/537.36 (KHTML, like Gecko) Chrome/88.0.4324.146 Safari/537.36","v1-up-stims","","","","","","","","-20,-10,0,10,20","media/audio/stims/spherical_300cm_s20_c20_cd-full_matched_a0.wav","spherical","20","20","full","matched","0","0","1166"
"echo-presentation","37","242761","0.0-37.0","5f994d63dab1e6030839f627","5fef55e628823a0076ec12ee","602014e6caa62b5bee8a2316","Mozilla/5.0 (Windows NT 10.0; Win64; x64) AppleWebKit/537.36 (KHTML, like Gecko) Chrome/88.0.4324.146 Safari/537.36","v1-up-stims","","","","","","","","-20,-10,0,10,20","media/audio/stims/spherical_300cm_s20_c20_cd-full_matched_a-10.wav","spherical","20","20","full","matched","-10","-10","1006"
"echo-presentation","38","244938","0.0-38.0","5f994d63dab1e6030839f627","5fef55e628823a0076ec12ee","602014e6caa62b5bee8a2316","Mozilla/5.0 (Windows NT 10.0; Win64; x64) AppleWebKit/537.36 (KHTML, like Gecko) Chrome/88.0.4324.146 Safari/537.36","v1-up-stims","","","","","","","","-20,-10,0,10,20","media/audio/stims/spherical_300cm_s20_c20_cd-full_matched_a20.wav","spherical","20","20","full","matched","20","10","1246"
"echo-presentation","39","247393","0.0-39.0","5f994d63dab1e6030839f627","5fef55e628823a0076ec12ee","602014e6caa62b5bee8a2316","Mozilla/5.0 (Windows NT 10.0; Win64; x64) AppleWebKit/537.36 (KHTML, like Gecko) Chrome/88.0.4324.146 Safari/537.36","v1-up-stims","","","","","","","","-20,-10,0,10,20","media/audio/stims/spherical_300cm_s20_c20_cd-full_matched_a10.wav","spherical","20","20","full","matched","10","20","1590"
"echo-presentation","40","249682","0.0-40.0","5f994d63dab1e6030839f627","5fef55e628823a0076ec12ee","602014e6caa62b5bee8a2316","Mozilla/5.0 (Windows NT 10.0; Win64; x64) AppleWebKit/537.36 (KHTML, like Gecko) Chrome/88.0.4324.146 Safari/537.36","v1-up-stims","","","","","","","","-20,-10,0,10,20","media/audio/stims/spherical_300cm_s20_c20_cd-full_matched_a20.wav","spherical","20","20","full","matched","20","10","1302"
"echo-presentation","41","252027","0.0-41.0","5f994d63dab1e6030839f627","5fef55e628823a0076ec12ee","602014e6caa62b5bee8a2316","Mozilla/5.0 (Windows NT 10.0; Win64; x64) AppleWebKit/537.36 (KHTML, like Gecko) Chrome/88.0.4324.146 Safari/537.36","v1-up-stims","","","","","","","","-20,-10,0,10,20","media/audio/stims/spherical_300cm_s20_c20_cd-full_matched_a20.wav","spherical","20","20","full","matched","20","20","1358"
"echo-presentation","42","254322","0.0-42.0","5f994d63dab1e6030839f627","5fef55e628823a0076ec12ee","602014e6caa62b5bee8a2316","Mozilla/5.0 (Windows NT 10.0; Win64; x64) AppleWebKit/537.36 (KHTML, like Gecko) Chrome/88.0.4324.146 Safari/537.36","v1-up-stims","","","","","","","","-20,-10,0,10,20","media/audio/stims/spherical_300cm_s20_c20_cd-full_matched_a10.wav","spherical","20","20","full","matched","10","20","1446"
"echo-presentation","43","256554","0.0-43.0","5f994d63dab1e6030839f627","5fef55e628823a0076ec12ee","602014e6caa62b5bee8a2316","Mozilla/5.0 (Windows NT 10.0; Win64; x64) AppleWebKit/537.36 (KHTML, like Gecko) Chrome/88.0.4324.146 Safari/537.36","v1-up-stims","","","","","","","","-20,-10,0,10,20","media/audio/stims/spherical_300cm_s20_c20_cd-full_matched_a-20.wav","spherical","20","20","full","matched","-20","-20","1478"
"echo-presentation","44","259017","0.0-44.0","5f994d63dab1e6030839f627","5fef55e628823a0076ec12ee","602014e6caa62b5bee8a2316","Mozilla/5.0 (Windows NT 10.0; Win64; x64) AppleWebKit/537.36 (KHTML, like Gecko) Chrome/88.0.4324.146 Safari/537.36","v1-up-stims","","","","","","","","-20,-10,0,10,20","media/audio/stims/spherical_300cm_s20_c20_cd-full_matched_a-10.wav","spherical","20","20","full","matched","-10","-10","1870"
"echo-presentation","45","261299","0.0-45.0","5f994d63dab1e6030839f627","5fef55e628823a0076ec12ee","602014e6caa62b5bee8a2316","Mozilla/5.0 (Windows NT 10.0; Win64; x64) AppleWebKit/537.36 (KHTML, like Gecko) Chrome/88.0.4324.146 Safari/537.36","v1-up-stims","","","","","","","","-20,-10,0,10,20","media/audio/stims/spherical_300cm_s20_c20_cd-full_matched_a10.wav","spherical","20","20","full","matched","10","10","1463"
"echo-presentation","46","263147","0.0-46.0","5f994d63dab1e6030839f627","5fef55e628823a0076ec12ee","602014e6caa62b5bee8a2316","Mozilla/5.0 (Windows NT 10.0; Win64; x64) AppleWebKit/537.36 (KHTML, like Gecko) Chrome/88.0.4324.146 Safari/537.36","v1-up-stims","","","","","","","","-20,-10,0,10,20","media/audio/stims/spherical_300cm_s20_c20_cd-full_matched_a-20.wav","spherical","20","20","full","matched","-20","-20","1110"
"echo-presentation","47","266051","0.0-47.0","5f994d63dab1e6030839f627","5fef55e628823a0076ec12ee","602014e6caa62b5bee8a2316","Mozilla/5.0 (Windows NT 10.0; Win64; x64) AppleWebKit/537.36 (KHTML, like Gecko) Chrome/88.0.4324.146 Safari/537.36","v1-up-stims","","","","","","","","-20,-10,0,10,20","media/audio/stims/spherical_300cm_s20_c20_cd-full_matched_a10.wav","spherical","20","20","full","matched","10","0","1958"
"echo-presentation","48","268561","0.0-48.0","5f994d63dab1e6030839f627","5fef55e628823a0076ec12ee","602014e6caa62b5bee8a2316","Mozilla/5.0 (Windows NT 10.0; Win64; x64) AppleWebKit/537.36 (KHTML, like Gecko) Chrome/88.0.4324.146 Safari/537.36","v1-up-stims","","","","","","","","-20,-10,0,10,20","media/audio/stims/spherical_300cm_s20_c20_cd-full_matched_a-20.wav","spherical","20","20","full","matched","-20","-10","1302"
"echo-presentation","49","270865","0.0-49.0","5f994d63dab1e6030839f627","5fef55e628823a0076ec12ee","602014e6caa62b5bee8a2316","Mozilla/5.0 (Windows NT 10.0; Win64; x64) AppleWebKit/537.36 (KHTML, like Gecko) Chrome/88.0.4324.146 Safari/537.36","v1-up-stims","","","","","","","","-20,-10,0,10,20","media/audio/stims/spherical_300cm_s20_c20_cd-full_matched_a-20.wav","spherical","20","20","full","matched","-20","-20","1070"
"block-bookend","50","272725","0.0-50.0","5f994d63dab1e6030839f627","5fef55e628823a0076ec12ee","602014e6caa62b5bee8a2316","Mozilla/5.0 (Windows NT 10.0; Win64; x64) AppleWebKit/537.36 (KHTML, like Gecko) Chrome/88.0.4324.146 Safari/537.36","v1-up-stims","","","","","","","","","","","","","","","","",""
"block-bookend","51","282692","0.0-51.0","5f994d63dab1e6030839f627","5fef55e628823a0076ec12ee","602014e6caa62b5bee8a2316","Mozilla/5.0 (Windows NT 10.0; Win64; x64) AppleWebKit/537.36 (KHTML, like Gecko) Chrome/88.0.4324.146 Safari/537.36","v1-up-stims","","","","","","","","","","","","","","","","",""
"echo-presentation","52","287010","0.0-52.0","5f994d63dab1e6030839f627","5fef55e628823a0076ec12ee","602014e6caa62b5bee8a2316","Mozilla/5.0 (Windows NT 10.0; Win64; x64) AppleWebKit/537.36 (KHTML, like Gecko) Chrome/88.0.4324.146 Safari/537.36","v1-up-stims","","","","","","","","40,50,60,70,80","media/audio/stims/spherical_300cm_s20_c20_cd-full_matched_a50.wav","spherical","20","20","full","matched","50","80","2214"
"echo-presentation","53","289937","0.0-53.0","5f994d63dab1e6030839f627","5fef55e628823a0076ec12ee","602014e6caa62b5bee8a2316","Mozilla/5.0 (Windows NT 10.0; Win64; x64) AppleWebKit/537.36 (KHTML, like Gecko) Chrome/88.0.4324.146 Safari/537.36","v1-up-stims","","","","","","","","40,50,60,70,80","media/audio/stims/spherical_300cm_s20_c20_cd-full_matched_a70.wav","spherical","20","20","full","matched","70","80","1319"
"echo-presentation","54","291721","0.0-54.0","5f994d63dab1e6030839f627","5fef55e628823a0076ec12ee","602014e6caa62b5bee8a2316","Mozilla/5.0 (Windows NT 10.0; Win64; x64) AppleWebKit/537.36 (KHTML, like Gecko) Chrome/88.0.4324.146 Safari/537.36","v1-up-stims","","","","","","","","40,50,60,70,80","media/audio/stims/spherical_300cm_s20_c20_cd-full_matched_a50.wav","spherical","20","20","full","matched","50","70","1030"
"echo-presentation","55","294345","0.0-55.0","5f994d63dab1e6030839f627","5fef55e628823a0076ec12ee","602014e6caa62b5bee8a2316","Mozilla/5.0 (Windows NT 10.0; Win64; x64) AppleWebKit/537.36 (KHTML, like Gecko) Chrome/88.0.4324.146 Safari/537.36","v1-up-stims","","","","","","","","40,50,60,70,80","media/audio/stims/spherical_300cm_s20_c20_cd-full_matched_a80.wav","spherical","20","20","full","matched","80","50","1766"
"echo-presentation","56","296674","0.0-56.0","5f994d63dab1e6030839f627","5fef55e628823a0076ec12ee","602014e6caa62b5bee8a2316","Mozilla/5.0 (Windows NT 10.0; Win64; x64) AppleWebKit/537.36 (KHTML, like Gecko) Chrome/88.0.4324.146 Safari/537.36","v1-up-stims","","","","","","","","40,50,60,70,80","media/audio/stims/spherical_300cm_s20_c20_cd-full_matched_a50.wav","spherical","20","20","full","matched","50","70","1518"
"echo-presentation","57","298513","0.0-57.0","5f994d63dab1e6030839f627","5fef55e628823a0076ec12ee","602014e6caa62b5bee8a2316","Mozilla/5.0 (Windows NT 10.0; Win64; x64) AppleWebKit/537.36 (KHTML, like Gecko) Chrome/88.0.4324.146 Safari/537.36","v1-up-stims","","","","","","","","40,50,60,70,80","media/audio/stims/spherical_300cm_s20_c20_cd-full_matched_a60.wav","spherical","20","20","full","matched","60","70","1109"
"echo-presentation","58","300889","0.0-58.0","5f994d63dab1e6030839f627","5fef55e628823a0076ec12ee","602014e6caa62b5bee8a2316","Mozilla/5.0 (Windows NT 10.0; Win64; x64) AppleWebKit/537.36 (KHTML, like Gecko) Chrome/88.0.4324.146 Safari/537.36","v1-up-stims","","","","","","","","40,50,60,70,80","media/audio/stims/spherical_300cm_s20_c20_cd-full_matched_a70.wav","spherical","20","20","full","matched","70","50","1614"
"echo-presentation","59","303113","0.0-59.0","5f994d63dab1e6030839f627","5fef55e628823a0076ec12ee","602014e6caa62b5bee8a2316","Mozilla/5.0 (Windows NT 10.0; Win64; x64) AppleWebKit/537.36 (KHTML, like Gecko) Chrome/88.0.4324.146 Safari/537.36","v1-up-stims","","","","","","","","40,50,60,70,80","media/audio/stims/spherical_300cm_s20_c20_cd-full_matched_a40.wav","spherical","20","20","full","matched","40","50","1174"
"echo-presentation","60","305194","0.0-60.0","5f994d63dab1e6030839f627","5fef55e628823a0076ec12ee","602014e6caa62b5bee8a2316","Mozilla/5.0 (Windows NT 10.0; Win64; x64) AppleWebKit/537.36 (KHTML, like Gecko) Chrome/88.0.4324.146 Safari/537.36","v1-up-stims","","","","","","","","40,50,60,70,80","media/audio/stims/spherical_300cm_s20_c20_cd-full_matched_a40.wav","spherical","20","20","full","matched","40","70","1287"
"echo-presentation","61","307105","0.0-61.0","5f994d63dab1e6030839f627","5fef55e628823a0076ec12ee","602014e6caa62b5bee8a2316","Mozilla/5.0 (Windows NT 10.0; Win64; x64) AppleWebKit/537.36 (KHTML, like Gecko) Chrome/88.0.4324.146 Safari/537.36","v1-up-stims","","","","","","","","40,50,60,70,80","media/audio/stims/spherical_300cm_s20_c20_cd-full_matched_a40.wav","spherical","20","20","full","matched","40","70","1101"
"echo-presentation","62","308929","0.0-62.0","5f994d63dab1e6030839f627","5fef55e628823a0076ec12ee","602014e6caa62b5bee8a2316","Mozilla/5.0 (Windows NT 10.0; Win64; x64) AppleWebKit/537.36 (KHTML, like Gecko) Chrome/88.0.4324.146 Safari/537.36","v1-up-stims","","","","","","","","40,50,60,70,80","media/audio/stims/spherical_300cm_s20_c20_cd-full_matched_a80.wav","spherical","20","20","full","matched","80","70","1030"
"echo-presentation","63","311370","0.0-63.0","5f994d63dab1e6030839f627","5fef55e628823a0076ec12ee","602014e6caa62b5bee8a2316","Mozilla/5.0 (Windows NT 10.0; Win64; x64) AppleWebKit/537.36 (KHTML, like Gecko) Chrome/88.0.4324.146 Safari/537.36","v1-up-stims","","","","","","","","40,50,60,70,80","media/audio/stims/spherical_300cm_s20_c20_cd-full_matched_a40.wav","spherical","20","20","full","matched","40","80","1303"
"echo-presentation","64","313113","0.0-64.0","5f994d63dab1e6030839f627","5fef55e628823a0076ec12ee","602014e6caa62b5bee8a2316","Mozilla/5.0 (Windows NT 10.0; Win64; x64) AppleWebKit/537.36 (KHTML, like Gecko) Chrome/88.0.4324.146 Safari/537.36","v1-up-stims","","","","","","","","40,50,60,70,80","media/audio/stims/spherical_300cm_s20_c20_cd-full_matched_a60.wav","spherical","20","20","full","matched","60","80","974"
"echo-presentation","65","315793","0.0-65.0","5f994d63dab1e6030839f627","5fef55e628823a0076ec12ee","602014e6caa62b5bee8a2316","Mozilla/5.0 (Windows NT 10.0; Win64; x64) AppleWebKit/537.36 (KHTML, like Gecko) Chrome/88.0.4324.146 Safari/537.36","v1-up-stims","","","","","","","","40,50,60,70,80","media/audio/stims/spherical_300cm_s20_c20_cd-full_matched_a60.wav","spherical","20","20","full","matched","60","50","1878"
"echo-presentation","66","317706","0.0-66.0","5f994d63dab1e6030839f627","5fef55e628823a0076ec12ee","602014e6caa62b5bee8a2316","Mozilla/5.0 (Windows NT 10.0; Win64; x64) AppleWebKit/537.36 (KHTML, like Gecko) Chrome/88.0.4324.146 Safari/537.36","v1-up-stims","","","","","","","","40,50,60,70,80","media/audio/stims/spherical_300cm_s20_c20_cd-full_matched_a80.wav","spherical","20","20","full","matched","80","50","1318"
"echo-presentation","67","320106","0.0-67.0","5f994d63dab1e6030839f627","5fef55e628823a0076ec12ee","602014e6caa62b5bee8a2316","Mozilla/5.0 (Windows NT 10.0; Win64; x64) AppleWebKit/537.36 (KHTML, like Gecko) Chrome/88.0.4324.146 Safari/537.36","v1-up-stims","","","","","","","","40,50,60,70,80","media/audio/stims/spherical_300cm_s20_c20_cd-full_matched_a80.wav","spherical","20","20","full","matched","80","50","1590"
"echo-presentation","68","322521","0.0-68.0","5f994d63dab1e6030839f627","5fef55e628823a0076ec12ee","602014e6caa62b5bee8a2316","Mozilla/5.0 (Windows NT 10.0; Win64; x64) AppleWebKit/537.36 (KHTML, like Gecko) Chrome/88.0.4324.146 Safari/537.36","v1-up-stims","","","","","","","","40,50,60,70,80","media/audio/stims/spherical_300cm_s20_c20_cd-full_matched_a50.wav","spherical","20","20","full","matched","50","70","1638"
"echo-presentation","69","324603","0.0-69.0","5f994d63dab1e6030839f627","5fef55e628823a0076ec12ee","602014e6caa62b5bee8a2316","Mozilla/5.0 (Windows NT 10.0; Win64; x64) AppleWebKit/537.36 (KHTML, like Gecko) Chrome/88.0.4324.146 Safari/537.36","v1-up-stims","","","","","","","","40,50,60,70,80","media/audio/stims/spherical_300cm_s20_c20_cd-full_matched_a70.wav","spherical","20","20","full","matched","70","50","1334"
"echo-presentation","70","326386","0.0-70.0","5f994d63dab1e6030839f627","5fef55e628823a0076ec12ee","602014e6caa62b5bee8a2316","Mozilla/5.0 (Windows NT 10.0; Win64; x64) AppleWebKit/537.36 (KHTML, like Gecko) Chrome/88.0.4324.146 Safari/537.36","v1-up-stims","","","","","","","","40,50,60,70,80","media/audio/stims/spherical_300cm_s20_c20_cd-full_matched_a70.wav","spherical","20","20","full","matched","70","70","1022"
"echo-presentation","71","328673","0.0-71.0","5f994d63dab1e6030839f627","5fef55e628823a0076ec12ee","602014e6caa62b5bee8a2316","Mozilla/5.0 (Windows NT 10.0; Win64; x64) AppleWebKit/537.36 (KHTML, like Gecko) Chrome/88.0.4324.146 Safari/537.36","v1-up-stims","","","","","","","","40,50,60,70,80","media/audio/stims/spherical_300cm_s20_c20_cd-full_matched_a60.wav","spherical","20","20","full","matched","60","70","1502"
"block-bookend","72","330100","0.0-72.0","5f994d63dab1e6030839f627","5fef55e628823a0076ec12ee","602014e6caa62b5bee8a2316","Mozilla/5.0 (Windows NT 10.0; Win64; x64) AppleWebKit/537.36 (KHTML, like Gecko) Chrome/88.0.4324.146 Safari/537.36","v1-up-stims","","","","","","","","","","","","","","","","",""
"block-bookend","73","337412","0.0-73.0","5f994d63dab1e6030839f627","5fef55e628823a0076ec12ee","602014e6caa62b5bee8a2316","Mozilla/5.0 (Windows NT 10.0; Win64; x64) AppleWebKit/537.36 (KHTML, like Gecko) Chrome/88.0.4324.146 Safari/537.36","v1-up-stims","","","","","","","","","","","","","","","","",""
"echo-presentation","74","339608","0.0-74.0","5f994d63dab1e6030839f627","5fef55e628823a0076ec12ee","602014e6caa62b5bee8a2316","Mozilla/5.0 (Windows NT 10.0; Win64; x64) AppleWebKit/537.36 (KHTML, like Gecko) Chrome/88.0.4324.146 Safari/537.36","v1-up-stims","","","","","","","","40,50,60,70,80","media/audio/stims/spherical_300cm_s20_c20_cd-full_matched_a70.wav","spherical","20","20","full","matched","70","70","870"
"echo-presentation","75","341674","0.0-75.0","5f994d63dab1e6030839f627","5fef55e628823a0076ec12ee","602014e6caa62b5bee8a2316","Mozilla/5.0 (Windows NT 10.0; Win64; x64) AppleWebKit/537.36 (KHTML, like Gecko) Chrome/88.0.4324.146 Safari/537.36","v1-up-stims","","","","","","","","40,50,60,70,80","media/audio/stims/spherical_300cm_s20_c20_cd-full_matched_a60.wav","spherical","20","20","full","matched","60","70","1046"
"echo-presentation","76","343561","0.0-76.0","5f994d63dab1e6030839f627","5fef55e628823a0076ec12ee","602014e6caa62b5bee8a2316","Mozilla/5.0 (Windows NT 10.0; Win64; x64) AppleWebKit/537.36 (KHTML, like Gecko) Chrome/88.0.4324.146 Safari/537.36","v1-up-stims","","","","","","","","40,50,60,70,80","media/audio/stims/spherical_300cm_s20_c20_cd-full_matched_a70.wav","spherical","20","20","full","matched","70","50","1302"
"echo-presentation","77","345129","0.0-77.0","5f994d63dab1e6030839f627","5fef55e628823a0076ec12ee","602014e6caa62b5bee8a2316","Mozilla/5.0 (Windows NT 10.0; Win64; x64) AppleWebKit/537.36 (KHTML, like Gecko) Chrome/88.0.4324.146 Safari/537.36","v1-up-stims","","","","","","","","40,50,60,70,80","media/audio/stims/spherical_300cm_s20_c20_cd-full_matched_a80.wav","spherical","20","20","full","matched","80","50","806"
"echo-presentation","78","346857","0.0-78.0","5f994d63dab1e6030839f627","5fef55e628823a0076ec12ee","602014e6caa62b5bee8a2316","Mozilla/5.0 (Windows NT 10.0; Win64; x64) AppleWebKit/537.36 (KHTML, like Gecko) Chrome/88.0.4324.146 Safari/537.36","v1-up-stims","","","","","","","","40,50,60,70,80","media/audio/stims/spherical_300cm_s20_c20_cd-full_matched_a80.wav","spherical","20","20","full","matched","80","70","870"
"echo-presentation","79","348716","0.0-79.0","5f994d63dab1e6030839f627","5fef55e628823a0076ec12ee","602014e6caa62b5bee8a2316","Mozilla/5.0 (Windows NT 10.0; Win64; x64) AppleWebKit/537.36 (KHTML, like Gecko) Chrome/88.0.4324.146 Safari/537.36","v1-up-stims","","","","","","","","40,50,60,70,80","media/audio/stims/spherical_300cm_s20_c20_cd-full_matched_a50.wav","spherical","20","20","full","matched","50","70","1022"
"echo-presentation","80","350451","0.0-80.0","5f994d63dab1e6030839f627","5fef55e628823a0076ec12ee","602014e6caa62b5bee8a2316","Mozilla/5.0 (Windows NT 10.0; Win64; x64) AppleWebKit/537.36 (KHTML, like Gecko) Chrome/88.0.4324.146 Safari/537.36","v1-up-stims","","","","","","","","40,50,60,70,80","media/audio/stims/spherical_300cm_s20_c20_cd-full_matched_a80.wav","spherical","20","20","full","matched","80","70","942"
"echo-presentation","81","352331","0.0-81.0","5f994d63dab1e6030839f627","5fef55e628823a0076ec12ee","602014e6caa62b5bee8a2316","Mozilla/5.0 (Windows NT 10.0; Win64; x64) AppleWebKit/537.36 (KHTML, like Gecko) Chrome/88.0.4324.146 Safari/537.36","v1-up-stims","","","","","","","","40,50,60,70,80","media/audio/stims/spherical_300cm_s20_c20_cd-full_matched_a50.wav","spherical","20","20","full","matched","50","50","1158"
"echo-presentation","82","354961","0.0-82.0","5f994d63dab1e6030839f627","5fef55e628823a0076ec12ee","602014e6caa62b5bee8a2316","Mozilla/5.0 (Windows NT 10.0; Win64; x64) AppleWebKit/537.36 (KHTML, like Gecko) Chrome/88.0.4324.146 Safari/537.36","v1-up-stims","","","","","","","","40,50,60,70,80","media/audio/stims/spherical_300cm_s20_c20_cd-full_matched_a60.wav","spherical","20","20","full","matched","60","70","2047"
"echo-presentation","83","357001","0.0-83.0","5f994d63dab1e6030839f627","5fef55e628823a0076ec12ee","602014e6caa62b5bee8a2316","Mozilla/5.0 (Windows NT 10.0; Win64; x64) AppleWebKit/537.36 (KHTML, like Gecko) Chrome/88.0.4324.146 Safari/537.36","v1-up-stims","","","","","","","","40,50,60,70,80","media/audio/stims/spherical_300cm_s20_c20_cd-full_matched_a70.wav","spherical","20","20","full","matched","70","50","1255"
"echo-presentation","84","358706","0.0-84.0","5f994d63dab1e6030839f627","5fef55e628823a0076ec12ee","602014e6caa62b5bee8a2316","Mozilla/5.0 (Windows NT 10.0; Win64; x64) AppleWebKit/537.36 (KHTML, like Gecko) Chrome/88.0.4324.146 Safari/537.36","v1-up-stims","","","","","","","","40,50,60,70,80","media/audio/stims/spherical_300cm_s20_c20_cd-full_matched_a40.wav","spherical","20","20","full","matched","40","70","1143"
"echo-presentation","85","360786","0.0-85.0","5f994d63dab1e6030839f627","5fef55e628823a0076ec12ee","602014e6caa62b5bee8a2316","Mozilla/5.0 (Windows NT 10.0; Win64; x64) AppleWebKit/537.36 (KHTML, like Gecko) Chrome/88.0.4324.146 Safari/537.36","v1-up-stims","","","","","","","","40,50,60,70,80","media/audio/stims/spherical_300cm_s20_c20_cd-full_matched_a50.wav","spherical","20","20","full","matched","50","70","1334"
"echo-presentation","86","363474","0.0-86.0","5f994d63dab1e6030839f627","5fef55e628823a0076ec12ee","602014e6caa62b5bee8a2316","Mozilla/5.0 (Windows NT 10.0; Win64; x64) AppleWebKit/537.36 (KHTML, like Gecko) Chrome/88.0.4324.146 Safari/537.36","v1-up-stims","","","","","","","","40,50,60,70,80","media/audio/stims/spherical_300cm_s20_c20_cd-full_matched_a60.wav","spherical","20","20","full","matched","60","70","1959"
"echo-presentation","87","365586","0.0-87.0","5f994d63dab1e6030839f627","5fef55e628823a0076ec12ee","602014e6caa62b5bee8a2316","Mozilla/5.0 (Windows NT 10.0; Win64; x64) AppleWebKit/537.36 (KHTML, like Gecko) Chrome/88.0.4324.146 Safari/537.36","v1-up-stims","","","","","","","","40,50,60,70,80","media/audio/stims/spherical_300cm_s20_c20_cd-full_matched_a70.wav","spherical","20","20","full","matched","70","50","1079"
"echo-presentation","88","367723","0.0-88.0","5f994d63dab1e6030839f627","5fef55e628823a0076ec12ee","602014e6caa62b5bee8a2316","Mozilla/5.0 (Windows NT 10.0; Win64; x64) AppleWebKit/537.36 (KHTML, like Gecko) Chrome/88.0.4324.146 Safari/537.36","v1-up-stims","","","","","","","","40,50,60,70,80","media/audio/stims/spherical_300cm_s20_c20_cd-full_matched_a40.wav","spherical","20","20","full","matched","40","50","1383"
"echo-presentation","89","369650","0.0-89.0","5f994d63dab1e6030839f627","5fef55e628823a0076ec12ee","602014e6caa62b5bee8a2316","Mozilla/5.0 (Windows NT 10.0; Win64; x64) AppleWebKit/537.36 (KHTML, like Gecko) Chrome/88.0.4324.146 Safari/537.36","v1-up-stims","","","","","","","","40,50,60,70,80","media/audio/stims/spherical_300cm_s20_c20_cd-full_matched_a80.wav","spherical","20","20","full","matched","80","50","1191"
"echo-presentation","90","371290","0.0-90.0","5f994d63dab1e6030839f627","5fef55e628823a0076ec12ee","602014e6caa62b5bee8a2316","Mozilla/5.0 (Windows NT 10.0; Win64; x64) AppleWebKit/537.36 (KHTML, like Gecko) Chrome/88.0.4324.146 Safari/537.36","v1-up-stims","","","","","","","","40,50,60,70,80","media/audio/stims/spherical_300cm_s20_c20_cd-full_matched_a50.wav","spherical","20","20","full","matched","50","50","846"
"echo-presentation","91","373241","0.0-91.0","5f994d63dab1e6030839f627","5fef55e628823a0076ec12ee","602014e6caa62b5bee8a2316","Mozilla/5.0 (Windows NT 10.0; Win64; x64) AppleWebKit/537.36 (KHTML, like Gecko) Chrome/88.0.4324.146 Safari/537.36","v1-up-stims","","","","","","","","40,50,60,70,80","media/audio/stims/spherical_300cm_s20_c20_cd-full_matched_a40.wav","spherical","20","20","full","matched","40","50","1110"
"echo-presentation","92","375306","0.0-92.0","5f994d63dab1e6030839f627","5fef55e628823a0076ec12ee","602014e6caa62b5bee8a2316","Mozilla/5.0 (Windows NT 10.0; Win64; x64) AppleWebKit/537.36 (KHTML, like Gecko) Chrome/88.0.4324.146 Safari/537.36","v1-up-stims","","","","","","","","40,50,60,70,80","media/audio/stims/spherical_300cm_s20_c20_cd-full_matched_a60.wav","spherical","20","20","full","matched","60","50","1078"
"echo-presentation","93","377450","0.0-93.0","5f994d63dab1e6030839f627","5fef55e628823a0076ec12ee","602014e6caa62b5bee8a2316","Mozilla/5.0 (Windows NT 10.0; Win64; x64) AppleWebKit/537.36 (KHTML, like Gecko) Chrome/88.0.4324.146 Safari/537.36","v1-up-stims","","","","","","","","40,50,60,70,80","media/audio/stims/spherical_300cm_s20_c20_cd-full_matched_a40.wav","spherical","20","20","full","matched","40","70","1054"
"block-bookend","94","378421","0.0-94.0","5f994d63dab1e6030839f627","5fef55e628823a0076ec12ee","602014e6caa62b5bee8a2316","Mozilla/5.0 (Windows NT 10.0; Win64; x64) AppleWebKit/537.36 (KHTML, like Gecko) Chrome/88.0.4324.146 Safari/537.36","v1-up-stims","","","","","","","","","","","","","","","","",""
"block-bookend","95","384925","0.0-95.0","5f994d63dab1e6030839f627","5fef55e628823a0076ec12ee","602014e6caa62b5bee8a2316","Mozilla/5.0 (Windows NT 10.0; Win64; x64) AppleWebKit/537.36 (KHTML, like Gecko) Chrome/88.0.4324.146 Safari/537.36","v1-up-stims","","","","","","","","","","","","","","","","",""
"echo-presentation","96","389298","0.0-96.0","5f994d63dab1e6030839f627","5fef55e628823a0076ec12ee","602014e6caa62b5bee8a2316","Mozilla/5.0 (Windows NT 10.0; Win64; x64) AppleWebKit/537.36 (KHTML, like Gecko) Chrome/88.0.4324.146 Safari/537.36","v1-up-stims","","","","","","","","-80,-70,-60,-50,-40","media/audio/stims/spherical_300cm_s20_c20_cd-full_matched_a-80.wav","spherical","20","20","full","matched","-80","-70","1847"
"echo-presentation","97","391404","0.0-97.0","5f994d63dab1e6030839f627","5fef55e628823a0076ec12ee","602014e6caa62b5bee8a2316","Mozilla/5.0 (Windows NT 10.0; Win64; x64) AppleWebKit/537.36 (KHTML, like Gecko) Chrome/88.0.4324.146 Safari/537.36","v1-up-stims","","","","","","","","-80,-70,-60,-50,-40","media/audio/stims/spherical_300cm_s20_c20_cd-full_matched_a-70.wav","spherical","20","20","full","matched","-70","-70","1183"
"echo-presentation","98","393289","0.0-98.0","5f994d63dab1e6030839f627","5fef55e628823a0076ec12ee","602014e6caa62b5bee8a2316","Mozilla/5.0 (Windows NT 10.0; Win64; x64) AppleWebKit/537.36 (KHTML, like Gecko) Chrome/88.0.4324.146 Safari/537.36","v1-up-stims","","","","","","","","-80,-70,-60,-50,-40","media/audio/stims/spherical_300cm_s20_c20_cd-full_matched_a-50.wav","spherical","20","20","full","matched","-50","-50","1190"
"echo-presentation","99","394841","0.0-99.0","5f994d63dab1e6030839f627","5fef55e628823a0076ec12ee","602014e6caa62b5bee8a2316","Mozilla/5.0 (Windows NT 10.0; Win64; x64) AppleWebKit/537.36 (KHTML, like Gecko) Chrome/88.0.4324.146 Safari/537.36","v1-up-stims","","","","","","","","-80,-70,-60,-50,-40","media/audio/stims/spherical_300cm_s20_c20_cd-full_matched_a-40.wav","spherical","20","20","full","matched","-40","-50","934"
"echo-presentation","100","396913","0.0-100.0","5f994d63dab1e6030839f627","5fef55e628823a0076ec12ee","602014e6caa62b5bee8a2316","Mozilla/5.0 (Windows NT 10.0; Win64; x64) AppleWebKit/537.36 (KHTML, like Gecko) Chrome/88.0.4324.146 Safari/537.36","v1-up-stims","","","","","","","","-80,-70,-60,-50,-40","media/audio/stims/spherical_300cm_s20_c20_cd-full_matched_a-80.wav","spherical","20","20","full","matched","-80","-70","1294"
"echo-presentation","101","400265","0.0-101.0","5f994d63dab1e6030839f627","5fef55e628823a0076ec12ee","602014e6caa62b5bee8a2316","Mozilla/5.0 (Windows NT 10.0; Win64; x64) AppleWebKit/537.36 (KHTML, like Gecko) Chrome/88.0.4324.146 Safari/537.36","v1-up-stims","","","","","","","","-80,-70,-60,-50,-40","media/audio/stims/spherical_300cm_s20_c20_cd-full_matched_a-70.wav","spherical","20","20","full","matched","-70","-50","2679"
"echo-presentation","102","403226","0.0-102.0","5f994d63dab1e6030839f627","5fef55e628823a0076ec12ee","602014e6caa62b5bee8a2316","Mozilla/5.0 (Windows NT 10.0; Win64; x64) AppleWebKit/537.36 (KHTML, like Gecko) Chrome/88.0.4324.146 Safari/537.36","v1-up-stims","","","","","","","","-80,-70,-60,-50,-40","media/audio/stims/spherical_300cm_s20_c20_cd-full_matched_a-70.wav","spherical","20","20","full","matched","-70","-60","1501"
"echo-presentation","103","407172","0.0-103.0","5f994d63dab1e6030839f627","5fef55e628823a0076ec12ee","602014e6caa62b5bee8a2316","Mozilla/5.0 (Windows NT 10.0; Win64; x64) AppleWebKit/537.36 (KHTML, like Gecko) Chrome/88.0.4324.146 Safari/537.36","v1-up-stims","","","","","","","","-80,-70,-60,-50,-40","media/audio/stims/spherical_300cm_s20_c20_cd-full_matched_a-80.wav","spherical","20","20","full","matched","-80","-70","3352"
"echo-presentation","104","408882","0.0-104.0","5f994d63dab1e6030839f627","5fef55e628823a0076ec12ee","602014e6caa62b5bee8a2316","Mozilla/5.0 (Windows NT 10.0; Win64; x64) AppleWebKit/537.36 (KHTML, like Gecko) Chrome/88.0.4324.146 Safari/537.36","v1-up-stims","","","","","","","","-80,-70,-60,-50,-40","media/audio/stims/spherical_300cm_s20_c20_cd-full_matched_a-60.wav","spherical","20","20","full","matched","-60","-50","1159"
"echo-presentation","105","410538","0.0-105.0","5f994d63dab1e6030839f627","5fef55e628823a0076ec12ee","602014e6caa62b5bee8a2316","Mozilla/5.0 (Windows NT 10.0; Win64; x64) AppleWebKit/537.36 (KHTML, like Gecko) Chrome/88.0.4324.146 Safari/537.36","v1-up-stims","","","","","","","","-80,-70,-60,-50,-40","media/audio/stims/spherical_300cm_s20_c20_cd-full_matched_a-80.wav","spherical","20","20","full","matched","-80","-50","1023"
"echo-presentation","106","412314","0.0-106.0","5f994d63dab1e6030839f627","5fef55e628823a0076ec12ee","602014e6caa62b5bee8a2316","Mozilla/5.0 (Windows NT 10.0; Win64; x64) AppleWebKit/537.36 (KHTML, like Gecko) Chrome/88.0.4324.146 Safari/537.36","v1-up-stims","","","","","","","","-80,-70,-60,-50,-40","media/audio/stims/spherical_300cm_s20_c20_cd-full_matched_a-50.wav","spherical","20","20","full","matched","-50","-50","991"
"echo-presentation","107","414145","0.0-107.0","5f994d63dab1e6030839f627","5fef55e628823a0076ec12ee","602014e6caa62b5bee8a2316","Mozilla/5.0 (Windows NT 10.0; Win64; x64) AppleWebKit/537.36 (KHTML, like Gecko) Chrome/88.0.4324.146 Safari/537.36","v1-up-stims","","","","","","","","-80,-70,-60,-50,-40","media/audio/stims/spherical_300cm_s20_c20_cd-full_matched_a-60.wav","spherical","20","20","full","matched","-60","-50","958"
"echo-presentation","108","416018","0.0-108.0","5f994d63dab1e6030839f627","5fef55e628823a0076ec12ee","602014e6caa62b5bee8a2316","Mozilla/5.0 (Windows NT 10.0; Win64; x64) AppleWebKit/537.36 (KHTML, like Gecko) Chrome/88.0.4324.146 Safari/537.36","v1-up-stims","","","","","","","","-80,-70,-60,-50,-40","media/audio/stims/spherical_300cm_s20_c20_cd-full_matched_a-40.wav","spherical","20","20","full","matched","-40","-70","1158"
"echo-presentation","109","417545","0.0-109.0","5f994d63dab1e6030839f627","5fef55e628823a0076ec12ee","602014e6caa62b5bee8a2316","Mozilla/5.0 (Windows NT 10.0; Win64; x64) AppleWebKit/537.36 (KHTML, like Gecko) Chrome/88.0.4324.146 Safari/537.36","v1-up-stims","","","","","","","","-80,-70,-60,-50,-40","media/audio/stims/spherical_300cm_s20_c20_cd-full_matched_a-60.wav","spherical","20","20","full","matched","-60","-70","951"
"echo-presentation","110","419313","0.0-110.0","5f994d63dab1e6030839f627","5fef55e628823a0076ec12ee","602014e6caa62b5bee8a2316","Mozilla/5.0 (Windows NT 10.0; Win64; x64) AppleWebKit/537.36 (KHTML, like Gecko) Chrome/88.0.4324.146 Safari/537.36","v1-up-stims","","","","","","","","-80,-70,-60,-50,-40","media/audio/stims/spherical_300cm_s20_c20_cd-full_matched_a-70.wav","spherical","20","20","full","matched","-70","-70","854"
"echo-presentation","111","422698","0.0-111.0","5f994d63dab1e6030839f627","5fef55e628823a0076ec12ee","602014e6caa62b5bee8a2316","Mozilla/5.0 (Windows NT 10.0; Win64; x64) AppleWebKit/537.36 (KHTML, like Gecko) Chrome/88.0.4324.146 Safari/537.36","v1-up-stims","","","","","","","","-80,-70,-60,-50,-40","media/audio/stims/spherical_300cm_s20_c20_cd-full_matched_a-40.wav","spherical","20","20","full","matched","-40","-70","1598"
"echo-presentation","112","424721","0.0-112.0","5f994d63dab1e6030839f627","5fef55e628823a0076ec12ee","602014e6caa62b5bee8a2316","Mozilla/5.0 (Windows NT 10.0; Win64; x64) AppleWebKit/537.36 (KHTML, like Gecko) Chrome/88.0.4324.146 Safari/537.36","v1-up-stims","","","","","","","","-80,-70,-60,-50,-40","media/audio/stims/spherical_300cm_s20_c20_cd-full_matched_a-40.wav","spherical","20","20","full","matched","-40","-70","1294"
"echo-presentation","113","426776","0.0-113.0","5f994d63dab1e6030839f627","5fef55e628823a0076ec12ee","602014e6caa62b5bee8a2316","Mozilla/5.0 (Windows NT 10.0; Win64; x64) AppleWebKit/537.36 (KHTML, like Gecko) Chrome/88.0.4324.146 Safari/537.36","v1-up-stims","","","","","","","","-80,-70,-60,-50,-40","media/audio/stims/spherical_300cm_s20_c20_cd-full_matched_a-50.wav","spherical","20","20","full","matched","-50","-60","1214"
"echo-presentation","114","429226","0.0-114.0","5f994d63dab1e6030839f627","5fef55e628823a0076ec12ee","602014e6caa62b5bee8a2316","Mozilla/5.0 (Windows NT 10.0; Win64; x64) AppleWebKit/537.36 (KHTML, like Gecko) Chrome/88.0.4324.146 Safari/537.36","v1-up-stims","","","","","","","","-80,-70,-60,-50,-40","media/audio/stims/spherical_300cm_s20_c20_cd-full_matched_a-50.wav","spherical","20","20","full","matched","-50","-60","1398"
"echo-presentation","115","432345","0.0-115.0","5f994d63dab1e6030839f627","5fef55e628823a0076ec12ee","602014e6caa62b5bee8a2316","Mozilla/5.0 (Windows NT 10.0; Win64; x64) AppleWebKit/537.36 (KHTML, like Gecko) Chrome/88.0.4324.146 Safari/537.36","v1-up-stims","","","","","","","","-80,-70,-60,-50,-40","media/audio/stims/spherical_300cm_s20_c20_cd-full_matched_a-60.wav","spherical","20","20","full","matched","-60","-80","2238"
"block-bookend","116","433268","0.0-116.0","5f994d63dab1e6030839f627","5fef55e628823a0076ec12ee","602014e6caa62b5bee8a2316","Mozilla/5.0 (Windows NT 10.0; Win64; x64) AppleWebKit/537.36 (KHTML, like Gecko) Chrome/88.0.4324.146 Safari/537.36","v1-up-stims","","","","","","","","","","","","","","","","",""
"block-bookend","117","438940","0.0-117.0","5f994d63dab1e6030839f627","5fef55e628823a0076ec12ee","602014e6caa62b5bee8a2316","Mozilla/5.0 (Windows NT 10.0; Win64; x64) AppleWebKit/537.36 (KHTML, like Gecko) Chrome/88.0.4324.146 Safari/537.36","v1-up-stims","","","","","","","","","","","","","","","","",""
"echo-presentation","118","441522","0.0-118.0","5f994d63dab1e6030839f627","5fef55e628823a0076ec12ee","602014e6caa62b5bee8a2316","Mozilla/5.0 (Windows NT 10.0; Win64; x64) AppleWebKit/537.36 (KHTML, like Gecko) Chrome/88.0.4324.146 Safari/537.36","v1-up-stims","","","","","","","","-80,-70,-60,-50,-40","media/audio/stims/spherical_300cm_s20_c20_cd-full_matched_a-60.wav","spherical","20","20","full","matched","-60","-70","1166"
"echo-presentation","119","443875","0.0-119.0","5f994d63dab1e6030839f627","5fef55e628823a0076ec12ee","602014e6caa62b5bee8a2316","Mozilla/5.0 (Windows NT 10.0; Win64; x64) AppleWebKit/537.36 (KHTML, like Gecko) Chrome/88.0.4324.146 Safari/537.36","v1-up-stims","","","","","","","","-80,-70,-60,-50,-40","media/audio/stims/spherical_300cm_s20_c20_cd-full_matched_a-60.wav","spherical","20","20","full","matched","-60","-50","998"
"echo-presentation","120","445401","0.0-120.0","5f994d63dab1e6030839f627","5fef55e628823a0076ec12ee","602014e6caa62b5bee8a2316","Mozilla/5.0 (Windows NT 10.0; Win64; x64) AppleWebKit/537.36 (KHTML, like Gecko) Chrome/88.0.4324.146 Safari/537.36","v1-up-stims","","","","","","","","-80,-70,-60,-50,-40","media/audio/stims/spherical_300cm_s20_c20_cd-full_matched_a-40.wav","spherical","20","20","full","matched","-40","-50","886"
"echo-presentation","121","447481","0.0-121.0","5f994d63dab1e6030839f627","5fef55e628823a0076ec12ee","602014e6caa62b5bee8a2316","Mozilla/5.0 (Windows NT 10.0; Win64; x64) AppleWebKit/537.36 (KHTML, like Gecko) Chrome/88.0.4324.146 Safari/537.36","v1-up-stims","","","","","","","","-80,-70,-60,-50,-40","media/audio/stims/spherical_300cm_s20_c20_cd-full_matched_a-80.wav","spherical","20","20","full","matched","-80","-80","1358"
"echo-presentation","122","449729","0.0-122.0","5f994d63dab1e6030839f627","5fef55e628823a0076ec12ee","602014e6caa62b5bee8a2316","Mozilla/5.0 (Windows NT 10.0; Win64; x64) AppleWebKit/537.36 (KHTML, like Gecko) Chrome/88.0.4324.146 Safari/537.36","v1-up-stims","","","","","","","","-80,-70,-60,-50,-40","media/audio/stims/spherical_300cm_s20_c20_cd-full_matched_a-50.wav","spherical","20","20","full","matched","-50","-70","1358"
"echo-presentation","123","452594","0.0-123.0","5f994d63dab1e6030839f627","5fef55e628823a0076ec12ee","602014e6caa62b5bee8a2316","Mozilla/5.0 (Windows NT 10.0; Win64; x64) AppleWebKit/537.36 (KHTML, like Gecko) Chrome/88.0.4324.146 Safari/537.36","v1-up-stims","","","","","","","","-80,-70,-60,-50,-40","media/audio/stims/spherical_300cm_s20_c20_cd-full_matched_a-50.wav","spherical","20","20","full","matched","-50","-50","1806"
"echo-presentation","124","456049","0.0-124.0","5f994d63dab1e6030839f627","5fef55e628823a0076ec12ee","602014e6caa62b5bee8a2316","Mozilla/5.0 (Windows NT 10.0; Win64; x64) AppleWebKit/537.36 (KHTML, like Gecko) Chrome/88.0.4324.146 Safari/537.36","v1-up-stims","","","","","","","","-80,-70,-60,-50,-40","media/audio/stims/spherical_300cm_s20_c20_cd-full_matched_a-40.wav","spherical","20","20","full","matched","-40","-50","2094"
"echo-presentation","125","458041","0.0-125.0","5f994d63dab1e6030839f627","5fef55e628823a0076ec12ee","602014e6caa62b5bee8a2316","Mozilla/5.0 (Windows NT 10.0; Win64; x64) AppleWebKit/537.36 (KHTML, like Gecko) Chrome/88.0.4324.146 Safari/537.36","v1-up-stims","","","","","","","","-80,-70,-60,-50,-40","media/audio/stims/spherical_300cm_s20_c20_cd-full_matched_a-50.wav","spherical","20","20","full","matched","-50","-50","1198"
"echo-presentation","126","460145","0.0-126.0","5f994d63dab1e6030839f627","5fef55e628823a0076ec12ee","602014e6caa62b5bee8a2316","Mozilla/5.0 (Windows NT 10.0; Win64; x64) AppleWebKit/537.36 (KHTML, like Gecko) Chrome/88.0.4324.146 Safari/537.36","v1-up-stims","","","","","","","","-80,-70,-60,-50,-40","media/audio/stims/spherical_300cm_s20_c20_cd-full_matched_a-40.wav","spherical","20","20","full","matched","-40","-50","1318"
"echo-presentation","127","463097","0.0-127.0","5f994d63dab1e6030839f627","5fef55e628823a0076ec12ee","602014e6caa62b5bee8a2316","Mozilla/5.0 (Windows NT 10.0; Win64; x64) AppleWebKit/537.36 (KHTML, like Gecko) Chrome/88.0.4324.146 Safari/537.36","v1-up-stims","","","","","","","","-80,-70,-60,-50,-40","media/audio/stims/spherical_300cm_s20_c20_cd-full_matched_a-50.wav","spherical","20","20","full","matched","-50","-60","2342"
"echo-presentation","128","465553","0.0-128.0","5f994d63dab1e6030839f627","5fef55e628823a0076ec12ee","602014e6caa62b5bee8a2316","Mozilla/5.0 (Windows NT 10.0; Win64; x64) AppleWebKit/537.36 (KHTML, like Gecko) Chrome/88.0.4324.146 Safari/537.36","v1-up-stims","","","","","","","","-80,-70,-60,-50,-40","media/audio/stims/spherical_300cm_s20_c20_cd-full_matched_a-80.wav","spherical","20","20","full","matched","-80","-80","1686"
"echo-presentation","129","467465","0.0-129.0","5f994d63dab1e6030839f627","5fef55e628823a0076ec12ee","602014e6caa62b5bee8a2316","Mozilla/5.0 (Windows NT 10.0; Win64; x64) AppleWebKit/537.36 (KHTML, like Gecko) Chrome/88.0.4324.146 Safari/537.36","v1-up-stims","","","","","","","","-80,-70,-60,-50,-40","media/audio/stims/spherical_300cm_s20_c20_cd-full_matched_a-80.wav","spherical","20","20","full","matched","-80","-80","1143"
"echo-presentation","130","469377","0.0-130.0","5f994d63dab1e6030839f627","5fef55e628823a0076ec12ee","602014e6caa62b5bee8a2316","Mozilla/5.0 (Windows NT 10.0; Win64; x64) AppleWebKit/537.36 (KHTML, like Gecko) Chrome/88.0.4324.146 Safari/537.36","v1-up-stims","","","","","","","","-80,-70,-60,-50,-40","media/audio/stims/spherical_300cm_s20_c20_cd-full_matched_a-60.wav","spherical","20","20","full","matched","-60","-70","1158"
"echo-presentation","131","471089","0.0-131.0","5f994d63dab1e6030839f627","5fef55e628823a0076ec12ee","602014e6caa62b5bee8a2316","Mozilla/5.0 (Windows NT 10.0; Win64; x64) AppleWebKit/537.36 (KHTML, like Gecko) Chrome/88.0.4324.146 Safari/537.36","v1-up-stims","","","","","","","","-80,-70,-60,-50,-40","media/audio/stims/spherical_300cm_s20_c20_cd-full_matched_a-70.wav","spherical","20","20","full","matched","-70","-70","1006"
"echo-presentation","132","473304","0.0-132.0","5f994d63dab1e6030839f627","5fef55e628823a0076ec12ee","602014e6caa62b5bee8a2316","Mozilla/5.0 (Windows NT 10.0; Win64; x64) AppleWebKit/537.36 (KHTML, like Gecko) Chrome/88.0.4324.146 Safari/537.36","v1-up-stims","","","","","","","","-80,-70,-60,-50,-40","media/audio/stims/spherical_300cm_s20_c20_cd-full_matched_a-40.wav","spherical","20","20","full","matched","-40","-70","1581"
"echo-presentation","133","475080","0.0-133.0","5f994d63dab1e6030839f627","5fef55e628823a0076ec12ee","602014e6caa62b5bee8a2316","Mozilla/5.0 (Windows NT 10.0; Win64; x64) AppleWebKit/537.36 (KHTML, like Gecko) Chrome/88.0.4324.146 Safari/537.36","v1-up-stims","","","","","","","","-80,-70,-60,-50,-40","media/audio/stims/spherical_300cm_s20_c20_cd-full_matched_a-70.wav","spherical","20","20","full","matched","-70","-70","1149"
"echo-presentation","134","476873","0.0-134.0","5f994d63dab1e6030839f627","5fef55e628823a0076ec12ee","602014e6caa62b5bee8a2316","Mozilla/5.0 (Windows NT 10.0; Win64; x64) AppleWebKit/537.36 (KHTML, like Gecko) Chrome/88.0.4324.146 Safari/537.36","v1-up-stims","","","","","","","","-80,-70,-60,-50,-40","media/audio/stims/spherical_300cm_s20_c20_cd-full_matched_a-60.wav","spherical","20","20","full","matched","-60","-60","1103"
"echo-presentation","135","478432","0.0-135.0","5f994d63dab1e6030839f627","5fef55e628823a0076ec12ee","602014e6caa62b5bee8a2316","Mozilla/5.0 (Windows NT 10.0; Win64; x64) AppleWebKit/537.36 (KHTML, like Gecko) Chrome/88.0.4324.146 Safari/537.36","v1-up-stims","","","","","","","","-80,-70,-60,-50,-40","media/audio/stims/spherical_300cm_s20_c20_cd-full_matched_a-80.wav","spherical","20","20","full","matched","-80","-70","967"
"echo-presentation","136","482344","0.0-136.0","5f994d63dab1e6030839f627","5fef55e628823a0076ec12ee","602014e6caa62b5bee8a2316","Mozilla/5.0 (Windows NT 10.0; Win64; x64) AppleWebKit/537.36 (KHTML, like Gecko) Chrome/88.0.4324.146 Safari/537.36","v1-up-stims","","","","","","","","-80,-70,-60,-50,-40","media/audio/stims/spherical_300cm_s20_c20_cd-full_matched_a-70.wav","spherical","20","20","full","matched","-70","-60","2062"
"echo-presentation","137","484754","0.0-137.0","5f994d63dab1e6030839f627","5fef55e628823a0076ec12ee","602014e6caa62b5bee8a2316","Mozilla/5.0 (Windows NT 10.0; Win64; x64) AppleWebKit/537.36 (KHTML, like Gecko) Chrome/88.0.4324.146 Safari/537.36","v1-up-stims","","","","","","","","-80,-70,-60,-50,-40","media/audio/stims/spherical_300cm_s20_c20_cd-full_matched_a-70.wav","spherical","20","20","full","matched","-70","-70","1183"
"block-bookend","138","487131","0.0-138.0","5f994d63dab1e6030839f627","5fef55e628823a0076ec12ee","602014e6caa62b5bee8a2316","Mozilla/5.0 (Windows NT 10.0; Win64; x64) AppleWebKit/537.36 (KHTML, like Gecko) Chrome/88.0.4324.146 Safari/537.36","v1-up-stims","","","","","","","","","","","","","","","","",""
