"trial_type","trial_index","time_elapsed","internal_node_id","prolificPid","studyId","sessionId","userAgent","version","rt","stimulus","key_press","chosenKeyset","failureCount","testIndex","globalVolume","choices","filename","modelName","slowdown","compensation","compensationDescriptor","receiverOrientationType","azimuth","responseAzimuth","responseDelay"
"pavlovia","0","8","0.0-0.0","5cd30b2041a6b8001874c41f","5fef55e628823a0076ec12ee","602021b808d6ec5e3b4465c4","Mozilla/5.0 (Windows NT 10.0; Win64; x64) AppleWebKit/537.36 (KHTML, like Gecko) Chrome/88.0.4324.150 Safari/537.36","v1-up-stims","","","","","","","","","","","","","","","","",""
"html-keyboard-response","1","3238","0.0-1.0","5cd30b2041a6b8001874c41f","5fef55e628823a0076ec12ee","602021b808d6ec5e3b4465c4","Mozilla/5.0 (Windows NT 10.0; Win64; x64) AppleWebKit/537.36 (KHTML, like Gecko) Chrome/88.0.4324.150 Safari/537.36","v1-up-stims","3226.8000000622123","<div><h1>Welcome!</h1><p>Press any key to continue.</p></div>","32","","","","","","","","","","","","","",""
"consent-form","2","54438","0.0-2.0","5cd30b2041a6b8001874c41f","5fef55e628823a0076ec12ee","602021b808d6ec5e3b4465c4","Mozilla/5.0 (Windows NT 10.0; Win64; x64) AppleWebKit/537.36 (KHTML, like Gecko) Chrome/88.0.4324.150 Safari/537.36","v1-up-stims","","","","","","","","","","","","","","","","",""
"keyset-select","3","106032","0.0-3.0","5cd30b2041a6b8001874c41f","5fef55e628823a0076ec12ee","602021b808d6ec5e3b4465c4","Mozilla/5.0 (Windows NT 10.0; Win64; x64) AppleWebKit/537.36 (KHTML, like Gecko) Chrome/88.0.4324.150 Safari/537.36","v1-up-stims","","","","right-hand","","","","","","","","","","","","",""
"headphone-check","4","177459","0.0-4.0","5cd30b2041a6b8001874c41f","5fef55e628823a0076ec12ee","602021b808d6ec5e3b4465c4","Mozilla/5.0 (Windows NT 10.0; Win64; x64) AppleWebKit/537.36 (KHTML, like Gecko) Chrome/88.0.4324.150 Safari/537.36","v1-up-stims","","","","","1","6","0.3","","","","","","","","","",""
"headphone-backwards-check","5","188701","0.0-5.0","5cd30b2041a6b8001874c41f","5fef55e628823a0076ec12ee","602021b808d6ec5e3b4465c4","Mozilla/5.0 (Windows NT 10.0; Win64; x64) AppleWebKit/537.36 (KHTML, like Gecko) Chrome/88.0.4324.150 Safari/537.36","v1-up-stims","","","","","0","","","","","","","","","","","",""
"training","6","316251","0.0-6.0","5cd30b2041a6b8001874c41f","5fef55e628823a0076ec12ee","602021b808d6ec5e3b4465c4","Mozilla/5.0 (Windows NT 10.0; Win64; x64) AppleWebKit/537.36 (KHTML, like Gecko) Chrome/88.0.4324.150 Safari/537.36","v1-up-stims","","","","","","","","","","","","","","","","",""
"block-bookend","7","333071","0.0-7.0","5cd30b2041a6b8001874c41f","5fef55e628823a0076ec12ee","602021b808d6ec5e3b4465c4","Mozilla/5.0 (Windows NT 10.0; Win64; x64) AppleWebKit/537.36 (KHTML, like Gecko) Chrome/88.0.4324.150 Safari/537.36","v1-up-stims","","","","","","","","","","","","","","","","",""
"echo-presentation","8","353445","0.0-8.0","5cd30b2041a6b8001874c41f","5fef55e628823a0076ec12ee","602021b808d6ec5e3b4465c4","Mozilla/5.0 (Windows NT 10.0; Win64; x64) AppleWebKit/537.36 (KHTML, like Gecko) Chrome/88.0.4324.150 Safari/537.36","v1-up-stims","","","","","","","","-80,-70,-60,-50,-40","media/audio/stims/spherical_300cm_s20_c20_cd-full_matched_a-70.wav","spherical","20","20","full","matched","-70","-70","16412"
"echo-presentation","9","376278","0.0-9.0","5cd30b2041a6b8001874c41f","5fef55e628823a0076ec12ee","602021b808d6ec5e3b4465c4","Mozilla/5.0 (Windows NT 10.0; Win64; x64) AppleWebKit/537.36 (KHTML, like Gecko) Chrome/88.0.4324.150 Safari/537.36","v1-up-stims","","","","","","","","-80,-70,-60,-50,-40","media/audio/stims/spherical_300cm_s20_c20_cd-full_matched_a-40.wav","spherical","20","20","full","matched","-40","-70","17118"
"echo-presentation","10","380164","0.0-10.0","5cd30b2041a6b8001874c41f","5fef55e628823a0076ec12ee","602021b808d6ec5e3b4465c4","Mozilla/5.0 (Windows NT 10.0; Win64; x64) AppleWebKit/537.36 (KHTML, like Gecko) Chrome/88.0.4324.150 Safari/537.36","v1-up-stims","","","","","","","","-80,-70,-60,-50,-40","media/audio/stims/spherical_300cm_s20_c20_cd-full_matched_a-50.wav","spherical","20","20","full","matched","-50","-70","2217"
"echo-presentation","11","383369","0.0-11.0","5cd30b2041a6b8001874c41f","5fef55e628823a0076ec12ee","602021b808d6ec5e3b4465c4","Mozilla/5.0 (Windows NT 10.0; Win64; x64) AppleWebKit/537.36 (KHTML, like Gecko) Chrome/88.0.4324.150 Safari/537.36","v1-up-stims","","","","","","","","-80,-70,-60,-50,-40","media/audio/stims/spherical_300cm_s20_c20_cd-full_matched_a-50.wav","spherical","20","20","full","matched","-50","-70","1982"
"echo-presentation","12","386758","0.0-12.0","5cd30b2041a6b8001874c41f","5fef55e628823a0076ec12ee","602021b808d6ec5e3b4465c4","Mozilla/5.0 (Windows NT 10.0; Win64; x64) AppleWebKit/537.36 (KHTML, like Gecko) Chrome/88.0.4324.150 Safari/537.36","v1-up-stims","","","","","","","","-80,-70,-60,-50,-40","media/audio/stims/spherical_300cm_s20_c20_cd-full_matched_a-80.wav","spherical","20","20","full","matched","-80","-60","2241"
"echo-presentation","13","391152","0.0-13.0","5cd30b2041a6b8001874c41f","5fef55e628823a0076ec12ee","602021b808d6ec5e3b4465c4","Mozilla/5.0 (Windows NT 10.0; Win64; x64) AppleWebKit/537.36 (KHTML, like Gecko) Chrome/88.0.4324.150 Safari/537.36","v1-up-stims","","","","","","","","-80,-70,-60,-50,-40","media/audio/stims/spherical_300cm_s20_c20_cd-full_matched_a-60.wav","spherical","20","20","full","matched","-60","-60","1751"
"echo-presentation","14","394476","0.0-14.0","5cd30b2041a6b8001874c41f","5fef55e628823a0076ec12ee","602021b808d6ec5e3b4465c4","Mozilla/5.0 (Windows NT 10.0; Win64; x64) AppleWebKit/537.36 (KHTML, like Gecko) Chrome/88.0.4324.150 Safari/537.36","v1-up-stims","","","","","","","","-80,-70,-60,-50,-40","media/audio/stims/spherical_300cm_s20_c20_cd-full_matched_a-50.wav","spherical","20","20","full","matched","-50","-70","1761"
"echo-presentation","15","398144","0.0-15.0","5cd30b2041a6b8001874c41f","5fef55e628823a0076ec12ee","602021b808d6ec5e3b4465c4","Mozilla/5.0 (Windows NT 10.0; Win64; x64) AppleWebKit/537.36 (KHTML, like Gecko) Chrome/88.0.4324.150 Safari/537.36","v1-up-stims","","","","","","","","-80,-70,-60,-50,-40","media/audio/stims/spherical_300cm_s20_c20_cd-full_matched_a-50.wav","spherical","20","20","full","matched","-50","-70","2437"
"echo-presentation","16","402898","0.0-16.0","5cd30b2041a6b8001874c41f","5fef55e628823a0076ec12ee","602021b808d6ec5e3b4465c4","Mozilla/5.0 (Windows NT 10.0; Win64; x64) AppleWebKit/537.36 (KHTML, like Gecko) Chrome/88.0.4324.150 Safari/537.36","v1-up-stims","","","","","","","","-80,-70,-60,-50,-40","media/audio/stims/spherical_300cm_s20_c20_cd-full_matched_a-70.wav","spherical","20","20","full","matched","-70","-70","2190"
"echo-presentation","17","405797","0.0-17.0","5cd30b2041a6b8001874c41f","5fef55e628823a0076ec12ee","602021b808d6ec5e3b4465c4","Mozilla/5.0 (Windows NT 10.0; Win64; x64) AppleWebKit/537.36 (KHTML, like Gecko) Chrome/88.0.4324.150 Safari/537.36","v1-up-stims","","","","","","","","-80,-70,-60,-50,-40","media/audio/stims/spherical_300cm_s20_c20_cd-full_matched_a-70.wav","spherical","20","20","full","matched","-70","-70","1623"
"echo-presentation","18","410068","0.0-18.0","5cd30b2041a6b8001874c41f","5fef55e628823a0076ec12ee","602021b808d6ec5e3b4465c4","Mozilla/5.0 (Windows NT 10.0; Win64; x64) AppleWebKit/537.36 (KHTML, like Gecko) Chrome/88.0.4324.150 Safari/537.36","v1-up-stims","","","","","","","","-80,-70,-60,-50,-40","media/audio/stims/spherical_300cm_s20_c20_cd-full_matched_a-60.wav","spherical","20","20","full","matched","-60","-70","2134"
"echo-presentation","19","413170","0.0-19.0","5cd30b2041a6b8001874c41f","5fef55e628823a0076ec12ee","602021b808d6ec5e3b4465c4","Mozilla/5.0 (Windows NT 10.0; Win64; x64) AppleWebKit/537.36 (KHTML, like Gecko) Chrome/88.0.4324.150 Safari/537.36","v1-up-stims","","","","","","","","-80,-70,-60,-50,-40","media/audio/stims/spherical_300cm_s20_c20_cd-full_matched_a-60.wav","spherical","20","20","full","matched","-60","-70","1990"
"echo-presentation","20","418232","0.0-20.0","5cd30b2041a6b8001874c41f","5fef55e628823a0076ec12ee","602021b808d6ec5e3b4465c4","Mozilla/5.0 (Windows NT 10.0; Win64; x64) AppleWebKit/537.36 (KHTML, like Gecko) Chrome/88.0.4324.150 Safari/537.36","v1-up-stims","","","","","","","","-80,-70,-60,-50,-40","media/audio/stims/spherical_300cm_s20_c20_cd-full_matched_a-70.wav","spherical","20","20","full","matched","-70","-60","2686"
"echo-presentation","21","421306","0.0-21.0","5cd30b2041a6b8001874c41f","5fef55e628823a0076ec12ee","602021b808d6ec5e3b4465c4","Mozilla/5.0 (Windows NT 10.0; Win64; x64) AppleWebKit/537.36 (KHTML, like Gecko) Chrome/88.0.4324.150 Safari/537.36","v1-up-stims","","","","","","","","-80,-70,-60,-50,-40","media/audio/stims/spherical_300cm_s20_c20_cd-full_matched_a-60.wav","spherical","20","20","full","matched","-60","-60","2007"
"echo-presentation","22","424402","0.0-22.0","5cd30b2041a6b8001874c41f","5fef55e628823a0076ec12ee","602021b808d6ec5e3b4465c4","Mozilla/5.0 (Windows NT 10.0; Win64; x64) AppleWebKit/537.36 (KHTML, like Gecko) Chrome/88.0.4324.150 Safari/537.36","v1-up-stims","","","","","","","","-80,-70,-60,-50,-40","media/audio/stims/spherical_300cm_s20_c20_cd-full_matched_a-80.wav","spherical","20","20","full","matched","-80","-60","2047"
"echo-presentation","23","427681","0.0-23.0","5cd30b2041a6b8001874c41f","5fef55e628823a0076ec12ee","602021b808d6ec5e3b4465c4","Mozilla/5.0 (Windows NT 10.0; Win64; x64) AppleWebKit/537.36 (KHTML, like Gecko) Chrome/88.0.4324.150 Safari/537.36","v1-up-stims","","","","","","","","-80,-70,-60,-50,-40","media/audio/stims/spherical_300cm_s20_c20_cd-full_matched_a-80.wav","spherical","20","20","full","matched","-80","-70","2090"
"echo-presentation","24","430947","0.0-24.0","5cd30b2041a6b8001874c41f","5fef55e628823a0076ec12ee","602021b808d6ec5e3b4465c4","Mozilla/5.0 (Windows NT 10.0; Win64; x64) AppleWebKit/537.36 (KHTML, like Gecko) Chrome/88.0.4324.150 Safari/537.36","v1-up-stims","","","","","","","","-80,-70,-60,-50,-40","media/audio/stims/spherical_300cm_s20_c20_cd-full_matched_a-40.wav","spherical","20","20","full","matched","-40","-70","2129"
"echo-presentation","25","438006","0.0-25.0","5cd30b2041a6b8001874c41f","5fef55e628823a0076ec12ee","602021b808d6ec5e3b4465c4","Mozilla/5.0 (Windows NT 10.0; Win64; x64) AppleWebKit/537.36 (KHTML, like Gecko) Chrome/88.0.4324.150 Safari/537.36","v1-up-stims","","","","","","","","-80,-70,-60,-50,-40","media/audio/stims/spherical_300cm_s20_c20_cd-full_matched_a-40.wav","spherical","20","20","full","matched","-40","-70","5927"
"echo-presentation","26","441100","0.0-26.0","5cd30b2041a6b8001874c41f","5fef55e628823a0076ec12ee","602021b808d6ec5e3b4465c4","Mozilla/5.0 (Windows NT 10.0; Win64; x64) AppleWebKit/537.36 (KHTML, like Gecko) Chrome/88.0.4324.150 Safari/537.36","v1-up-stims","","","","","","","","-80,-70,-60,-50,-40","media/audio/stims/spherical_300cm_s20_c20_cd-full_matched_a-80.wav","spherical","20","20","full","matched","-80","-80","1857"
"echo-presentation","27","445688","0.0-27.0","5cd30b2041a6b8001874c41f","5fef55e628823a0076ec12ee","602021b808d6ec5e3b4465c4","Mozilla/5.0 (Windows NT 10.0; Win64; x64) AppleWebKit/537.36 (KHTML, like Gecko) Chrome/88.0.4324.150 Safari/537.36","v1-up-stims","","","","","","","","-80,-70,-60,-50,-40","media/audio/stims/spherical_300cm_s20_c20_cd-full_matched_a-40.wav","spherical","20","20","full","matched","-40","-70","3229"
"block-bookend","28","450020","0.0-28.0","5cd30b2041a6b8001874c41f","5fef55e628823a0076ec12ee","602021b808d6ec5e3b4465c4","Mozilla/5.0 (Windows NT 10.0; Win64; x64) AppleWebKit/537.36 (KHTML, like Gecko) Chrome/88.0.4324.150 Safari/537.36","v1-up-stims","","","","","","","","","","","","","","","","",""
"block-bookend","29","467444","0.0-29.0","5cd30b2041a6b8001874c41f","5fef55e628823a0076ec12ee","602021b808d6ec5e3b4465c4","Mozilla/5.0 (Windows NT 10.0; Win64; x64) AppleWebKit/537.36 (KHTML, like Gecko) Chrome/88.0.4324.150 Safari/537.36","v1-up-stims","","","","","","","","","","","","","","","","",""
"echo-presentation","30","476806","0.0-30.0","5cd30b2041a6b8001874c41f","5fef55e628823a0076ec12ee","602021b808d6ec5e3b4465c4","Mozilla/5.0 (Windows NT 10.0; Win64; x64) AppleWebKit/537.36 (KHTML, like Gecko) Chrome/88.0.4324.150 Safari/537.36","v1-up-stims","","","","","","","","-80,-70,-60,-50,-40","media/audio/stims/spherical_300cm_s20_c20_cd-full_matched_a-80.wav","spherical","20","20","full","matched","-80","-70","4779"
"echo-presentation","31","480257","0.0-31.0","5cd30b2041a6b8001874c41f","5fef55e628823a0076ec12ee","602021b808d6ec5e3b4465c4","Mozilla/5.0 (Windows NT 10.0; Win64; x64) AppleWebKit/537.36 (KHTML, like Gecko) Chrome/88.0.4324.150 Safari/537.36","v1-up-stims","","","","","","","","-80,-70,-60,-50,-40","media/audio/stims/spherical_300cm_s20_c20_cd-full_matched_a-70.wav","spherical","20","20","full","matched","-70","-60","2189"
"echo-presentation","32","483939","0.0-32.0","5cd30b2041a6b8001874c41f","5fef55e628823a0076ec12ee","602021b808d6ec5e3b4465c4","Mozilla/5.0 (Windows NT 10.0; Win64; x64) AppleWebKit/537.36 (KHTML, like Gecko) Chrome/88.0.4324.150 Safari/537.36","v1-up-stims","","","","","","","","-80,-70,-60,-50,-40","media/audio/stims/spherical_300cm_s20_c20_cd-full_matched_a-60.wav","spherical","20","20","full","matched","-60","-60","1941"
"echo-presentation","33","487276","0.0-33.0","5cd30b2041a6b8001874c41f","5fef55e628823a0076ec12ee","602021b808d6ec5e3b4465c4","Mozilla/5.0 (Windows NT 10.0; Win64; x64) AppleWebKit/537.36 (KHTML, like Gecko) Chrome/88.0.4324.150 Safari/537.36","v1-up-stims","","","","","","","","-80,-70,-60,-50,-40","media/audio/stims/spherical_300cm_s20_c20_cd-full_matched_a-60.wav","spherical","20","20","full","matched","-60","-70","2285"
"echo-presentation","34","490956","0.0-34.0","5cd30b2041a6b8001874c41f","5fef55e628823a0076ec12ee","602021b808d6ec5e3b4465c4","Mozilla/5.0 (Windows NT 10.0; Win64; x64) AppleWebKit/537.36 (KHTML, like Gecko) Chrome/88.0.4324.150 Safari/537.36","v1-up-stims","","","","","","","","-80,-70,-60,-50,-40","media/audio/stims/spherical_300cm_s20_c20_cd-full_matched_a-80.wav","spherical","20","20","full","matched","-80","-80","2712"
"echo-presentation","35","493798","0.0-35.0","5cd30b2041a6b8001874c41f","5fef55e628823a0076ec12ee","602021b808d6ec5e3b4465c4","Mozilla/5.0 (Windows NT 10.0; Win64; x64) AppleWebKit/537.36 (KHTML, like Gecko) Chrome/88.0.4324.150 Safari/537.36","v1-up-stims","","","","","","","","-80,-70,-60,-50,-40","media/audio/stims/spherical_300cm_s20_c20_cd-full_matched_a-60.wav","spherical","20","20","full","matched","-60","-60","1747"
"echo-presentation","36","498249","0.0-36.0","5cd30b2041a6b8001874c41f","5fef55e628823a0076ec12ee","602021b808d6ec5e3b4465c4","Mozilla/5.0 (Windows NT 10.0; Win64; x64) AppleWebKit/537.36 (KHTML, like Gecko) Chrome/88.0.4324.150 Safari/537.36","v1-up-stims","","","","","","","","-80,-70,-60,-50,-40","media/audio/stims/spherical_300cm_s20_c20_cd-full_matched_a-60.wav","spherical","20","20","full","matched","-60","-70","2470"
"echo-presentation","37","501378","0.0-37.0","5cd30b2041a6b8001874c41f","5fef55e628823a0076ec12ee","602021b808d6ec5e3b4465c4","Mozilla/5.0 (Windows NT 10.0; Win64; x64) AppleWebKit/537.36 (KHTML, like Gecko) Chrome/88.0.4324.150 Safari/537.36","v1-up-stims","","","","","","","","-80,-70,-60,-50,-40","media/audio/stims/spherical_300cm_s20_c20_cd-full_matched_a-80.wav","spherical","20","20","full","matched","-80","-80","1794"
"echo-presentation","38","504712","0.0-38.0","5cd30b2041a6b8001874c41f","5fef55e628823a0076ec12ee","602021b808d6ec5e3b4465c4","Mozilla/5.0 (Windows NT 10.0; Win64; x64) AppleWebKit/537.36 (KHTML, like Gecko) Chrome/88.0.4324.150 Safari/537.36","v1-up-stims","","","","","","","","-80,-70,-60,-50,-40","media/audio/stims/spherical_300cm_s20_c20_cd-full_matched_a-40.wav","spherical","20","20","full","matched","-40","-70","2308"
"echo-presentation","39","507866","0.0-39.0","5cd30b2041a6b8001874c41f","5fef55e628823a0076ec12ee","602021b808d6ec5e3b4465c4","Mozilla/5.0 (Windows NT 10.0; Win64; x64) AppleWebKit/537.36 (KHTML, like Gecko) Chrome/88.0.4324.150 Safari/537.36","v1-up-stims","","","","","","","","-80,-70,-60,-50,-40","media/audio/stims/spherical_300cm_s20_c20_cd-full_matched_a-40.wav","spherical","20","20","full","matched","-40","-70","1998"
"echo-presentation","40","510768","0.0-40.0","5cd30b2041a6b8001874c41f","5fef55e628823a0076ec12ee","602021b808d6ec5e3b4465c4","Mozilla/5.0 (Windows NT 10.0; Win64; x64) AppleWebKit/537.36 (KHTML, like Gecko) Chrome/88.0.4324.150 Safari/537.36","v1-up-stims","","","","","","","","-80,-70,-60,-50,-40","media/audio/stims/spherical_300cm_s20_c20_cd-full_matched_a-50.wav","spherical","20","20","full","matched","-50","-70","1878"
"echo-presentation","41","514139","0.0-41.0","5cd30b2041a6b8001874c41f","5fef55e628823a0076ec12ee","602021b808d6ec5e3b4465c4","Mozilla/5.0 (Windows NT 10.0; Win64; x64) AppleWebKit/537.36 (KHTML, like Gecko) Chrome/88.0.4324.150 Safari/537.36","v1-up-stims","","","","","","","","-80,-70,-60,-50,-40","media/audio/stims/spherical_300cm_s20_c20_cd-full_matched_a-40.wav","spherical","20","20","full","matched","-40","-70","2254"
"echo-presentation","42","517598","0.0-42.0","5cd30b2041a6b8001874c41f","5fef55e628823a0076ec12ee","602021b808d6ec5e3b4465c4","Mozilla/5.0 (Windows NT 10.0; Win64; x64) AppleWebKit/537.36 (KHTML, like Gecko) Chrome/88.0.4324.150 Safari/537.36","v1-up-stims","","","","","","","","-80,-70,-60,-50,-40","media/audio/stims/spherical_300cm_s20_c20_cd-full_matched_a-50.wav","spherical","20","20","full","matched","-50","-80","2140"
"echo-presentation","43","520396","0.0-43.0","5cd30b2041a6b8001874c41f","5fef55e628823a0076ec12ee","602021b808d6ec5e3b4465c4","Mozilla/5.0 (Windows NT 10.0; Win64; x64) AppleWebKit/537.36 (KHTML, like Gecko) Chrome/88.0.4324.150 Safari/537.36","v1-up-stims","","","","","","","","-80,-70,-60,-50,-40","media/audio/stims/spherical_300cm_s20_c20_cd-full_matched_a-80.wav","spherical","20","20","full","matched","-80","-80","1794"
"echo-presentation","44","523189","0.0-44.0","5cd30b2041a6b8001874c41f","5fef55e628823a0076ec12ee","602021b808d6ec5e3b4465c4","Mozilla/5.0 (Windows NT 10.0; Win64; x64) AppleWebKit/537.36 (KHTML, like Gecko) Chrome/88.0.4324.150 Safari/537.36","v1-up-stims","","","","","","","","-80,-70,-60,-50,-40","media/audio/stims/spherical_300cm_s20_c20_cd-full_matched_a-70.wav","spherical","20","20","full","matched","-70","-80","1749"
"echo-presentation","45","526495","0.0-45.0","5cd30b2041a6b8001874c41f","5fef55e628823a0076ec12ee","602021b808d6ec5e3b4465c4","Mozilla/5.0 (Windows NT 10.0; Win64; x64) AppleWebKit/537.36 (KHTML, like Gecko) Chrome/88.0.4324.150 Safari/537.36","v1-up-stims","","","","","","","","-80,-70,-60,-50,-40","media/audio/stims/spherical_300cm_s20_c20_cd-full_matched_a-70.wav","spherical","20","20","full","matched","-70","-60","2306"
"echo-presentation","46","530840","0.0-46.0","5cd30b2041a6b8001874c41f","5fef55e628823a0076ec12ee","602021b808d6ec5e3b4465c4","Mozilla/5.0 (Windows NT 10.0; Win64; x64) AppleWebKit/537.36 (KHTML, like Gecko) Chrome/88.0.4324.150 Safari/537.36","v1-up-stims","","","","","","","","-80,-70,-60,-50,-40","media/audio/stims/spherical_300cm_s20_c20_cd-full_matched_a-70.wav","spherical","20","20","full","matched","-70","-60","2672"
"echo-presentation","47","535457","0.0-47.0","5cd30b2041a6b8001874c41f","5fef55e628823a0076ec12ee","602021b808d6ec5e3b4465c4","Mozilla/5.0 (Windows NT 10.0; Win64; x64) AppleWebKit/537.36 (KHTML, like Gecko) Chrome/88.0.4324.150 Safari/537.36","v1-up-stims","","","","","","","","-80,-70,-60,-50,-40","media/audio/stims/spherical_300cm_s20_c20_cd-full_matched_a-50.wav","spherical","20","20","full","matched","-50","-60","2420"
"echo-presentation","48","543292","0.0-48.0","5cd30b2041a6b8001874c41f","5fef55e628823a0076ec12ee","602021b808d6ec5e3b4465c4","Mozilla/5.0 (Windows NT 10.0; Win64; x64) AppleWebKit/537.36 (KHTML, like Gecko) Chrome/88.0.4324.150 Safari/537.36","v1-up-stims","","","","","","","","-80,-70,-60,-50,-40","media/audio/stims/spherical_300cm_s20_c20_cd-full_matched_a-50.wav","spherical","20","20","full","matched","-50","-60","4765"
"echo-presentation","49","548051","0.0-49.0","5cd30b2041a6b8001874c41f","5fef55e628823a0076ec12ee","602021b808d6ec5e3b4465c4","Mozilla/5.0 (Windows NT 10.0; Win64; x64) AppleWebKit/537.36 (KHTML, like Gecko) Chrome/88.0.4324.150 Safari/537.36","v1-up-stims","","","","","","","","-80,-70,-60,-50,-40","media/audio/stims/spherical_300cm_s20_c20_cd-full_matched_a-40.wav","spherical","20","20","full","matched","-40","-60","3516"
"block-bookend","50","551225","0.0-50.0","5cd30b2041a6b8001874c41f","5fef55e628823a0076ec12ee","602021b808d6ec5e3b4465c4","Mozilla/5.0 (Windows NT 10.0; Win64; x64) AppleWebKit/537.36 (KHTML, like Gecko) Chrome/88.0.4324.150 Safari/537.36","v1-up-stims","","","","","","","","","","","","","","","","",""
"block-bookend","51","562080","0.0-51.0","5cd30b2041a6b8001874c41f","5fef55e628823a0076ec12ee","602021b808d6ec5e3b4465c4","Mozilla/5.0 (Windows NT 10.0; Win64; x64) AppleWebKit/537.36 (KHTML, like Gecko) Chrome/88.0.4324.150 Safari/537.36","v1-up-stims","","","","","","","","","","","","","","","","",""
"echo-presentation","52","571369","0.0-52.0","5cd30b2041a6b8001874c41f","5fef55e628823a0076ec12ee","602021b808d6ec5e3b4465c4","Mozilla/5.0 (Windows NT 10.0; Win64; x64) AppleWebKit/537.36 (KHTML, like Gecko) Chrome/88.0.4324.150 Safari/537.36","v1-up-stims","","","","","","","","-20,-10,0,10,20","media/audio/stims/spherical_300cm_s20_c20_cd-full_matched_a-10.wav","spherical","20","20","full","matched","-10","10","5807"
"echo-presentation","53","575270","0.0-53.0","5cd30b2041a6b8001874c41f","5fef55e628823a0076ec12ee","602021b808d6ec5e3b4465c4","Mozilla/5.0 (Windows NT 10.0; Win64; x64) AppleWebKit/537.36 (KHTML, like Gecko) Chrome/88.0.4324.150 Safari/537.36","v1-up-stims","","","","","","","","-20,-10,0,10,20","media/audio/stims/spherical_300cm_s20_c20_cd-full_matched_a-10.wav","spherical","20","20","full","matched","-10","0","2210"
"echo-presentation","54","579633","0.0-54.0","5cd30b2041a6b8001874c41f","5fef55e628823a0076ec12ee","602021b808d6ec5e3b4465c4","Mozilla/5.0 (Windows NT 10.0; Win64; x64) AppleWebKit/537.36 (KHTML, like Gecko) Chrome/88.0.4324.150 Safari/537.36","v1-up-stims","","","","","","","","-20,-10,0,10,20","media/audio/stims/spherical_300cm_s20_c20_cd-full_matched_a-10.wav","spherical","20","20","full","matched","-10","0","2088"
"echo-presentation","55","585401","0.0-55.0","5cd30b2041a6b8001874c41f","5fef55e628823a0076ec12ee","602021b808d6ec5e3b4465c4","Mozilla/5.0 (Windows NT 10.0; Win64; x64) AppleWebKit/537.36 (KHTML, like Gecko) Chrome/88.0.4324.150 Safari/537.36","v1-up-stims","","","","","","","","-20,-10,0,10,20","media/audio/stims/spherical_300cm_s20_c20_cd-full_matched_a20.wav","spherical","20","20","full","matched","20","0","3587"
"echo-presentation","56","588328","0.0-56.0","5cd30b2041a6b8001874c41f","5fef55e628823a0076ec12ee","602021b808d6ec5e3b4465c4","Mozilla/5.0 (Windows NT 10.0; Win64; x64) AppleWebKit/537.36 (KHTML, like Gecko) Chrome/88.0.4324.150 Safari/537.36","v1-up-stims","","","","","","","","-20,-10,0,10,20","media/audio/stims/spherical_300cm_s20_c20_cd-full_matched_a0.wav","spherical","20","20","full","matched","0","0","2058"
"echo-presentation","57","592393","0.0-57.0","5cd30b2041a6b8001874c41f","5fef55e628823a0076ec12ee","602021b808d6ec5e3b4465c4","Mozilla/5.0 (Windows NT 10.0; Win64; x64) AppleWebKit/537.36 (KHTML, like Gecko) Chrome/88.0.4324.150 Safari/537.36","v1-up-stims","","","","","","","","-20,-10,0,10,20","media/audio/stims/spherical_300cm_s20_c20_cd-full_matched_a0.wav","spherical","20","20","full","matched","0","0","2829"
"echo-presentation","58","595622","0.0-58.0","5cd30b2041a6b8001874c41f","5fef55e628823a0076ec12ee","602021b808d6ec5e3b4465c4","Mozilla/5.0 (Windows NT 10.0; Win64; x64) AppleWebKit/537.36 (KHTML, like Gecko) Chrome/88.0.4324.150 Safari/537.36","v1-up-stims","","","","","","","","-20,-10,0,10,20","media/audio/stims/spherical_300cm_s20_c20_cd-full_matched_a-20.wav","spherical","20","20","full","matched","-20","-10","2224"
"echo-presentation","59","600206","0.0-59.0","5cd30b2041a6b8001874c41f","5fef55e628823a0076ec12ee","602021b808d6ec5e3b4465c4","Mozilla/5.0 (Windows NT 10.0; Win64; x64) AppleWebKit/537.36 (KHTML, like Gecko) Chrome/88.0.4324.150 Safari/537.36","v1-up-stims","","","","","","","","-20,-10,0,10,20","media/audio/stims/spherical_300cm_s20_c20_cd-full_matched_a-20.wav","spherical","20","20","full","matched","-20","-20","3554"
"echo-presentation","60","603235","0.0-60.0","5cd30b2041a6b8001874c41f","5fef55e628823a0076ec12ee","602021b808d6ec5e3b4465c4","Mozilla/5.0 (Windows NT 10.0; Win64; x64) AppleWebKit/537.36 (KHTML, like Gecko) Chrome/88.0.4324.150 Safari/537.36","v1-up-stims","","","","","","","","-20,-10,0,10,20","media/audio/stims/spherical_300cm_s20_c20_cd-full_matched_a-20.wav","spherical","20","20","full","matched","-20","-20","2073"
"echo-presentation","61","607302","0.0-61.0","5cd30b2041a6b8001874c41f","5fef55e628823a0076ec12ee","602021b808d6ec5e3b4465c4","Mozilla/5.0 (Windows NT 10.0; Win64; x64) AppleWebKit/537.36 (KHTML, like Gecko) Chrome/88.0.4324.150 Safari/537.36","v1-up-stims","","","","","","","","-20,-10,0,10,20","media/audio/stims/spherical_300cm_s20_c20_cd-full_matched_a10.wav","spherical","20","20","full","matched","10","10","3169"
"echo-presentation","62","611844","0.0-62.0","5cd30b2041a6b8001874c41f","5fef55e628823a0076ec12ee","602021b808d6ec5e3b4465c4","Mozilla/5.0 (Windows NT 10.0; Win64; x64) AppleWebKit/537.36 (KHTML, like Gecko) Chrome/88.0.4324.150 Safari/537.36","v1-up-stims","","","","","","","","-20,-10,0,10,20","media/audio/stims/spherical_300cm_s20_c20_cd-full_matched_a-10.wav","spherical","20","20","full","matched","-10","10","3318"
"echo-presentation","63","615348","0.0-63.0","5cd30b2041a6b8001874c41f","5fef55e628823a0076ec12ee","602021b808d6ec5e3b4465c4","Mozilla/5.0 (Windows NT 10.0; Win64; x64) AppleWebKit/537.36 (KHTML, like Gecko) Chrome/88.0.4324.150 Safari/537.36","v1-up-stims","","","","","","","","-20,-10,0,10,20","media/audio/stims/spherical_300cm_s20_c20_cd-full_matched_a20.wav","spherical","20","20","full","matched","20","10","1791"
"echo-presentation","64","619716","0.0-64.0","5cd30b2041a6b8001874c41f","5fef55e628823a0076ec12ee","602021b808d6ec5e3b4465c4","Mozilla/5.0 (Windows NT 10.0; Win64; x64) AppleWebKit/537.36 (KHTML, like Gecko) Chrome/88.0.4324.150 Safari/537.36","v1-up-stims","","","","","","","","-20,-10,0,10,20","media/audio/stims/spherical_300cm_s20_c20_cd-full_matched_a0.wav","spherical","20","20","full","matched","0","0","3301"
"echo-presentation","65","623340","0.0-65.0","5cd30b2041a6b8001874c41f","5fef55e628823a0076ec12ee","602021b808d6ec5e3b4465c4","Mozilla/5.0 (Windows NT 10.0; Win64; x64) AppleWebKit/537.36 (KHTML, like Gecko) Chrome/88.0.4324.150 Safari/537.36","v1-up-stims","","","","","","","","-20,-10,0,10,20","media/audio/stims/spherical_300cm_s20_c20_cd-full_matched_a20.wav","spherical","20","20","full","matched","20","10","2572"
"echo-presentation","66","626282","0.0-66.0","5cd30b2041a6b8001874c41f","5fef55e628823a0076ec12ee","602021b808d6ec5e3b4465c4","Mozilla/5.0 (Windows NT 10.0; Win64; x64) AppleWebKit/537.36 (KHTML, like Gecko) Chrome/88.0.4324.150 Safari/537.36","v1-up-stims","","","","","","","","-20,-10,0,10,20","media/audio/stims/spherical_300cm_s20_c20_cd-full_matched_a10.wav","spherical","20","20","full","matched","10","10","1802"
"echo-presentation","67","629497","0.0-67.0","5cd30b2041a6b8001874c41f","5fef55e628823a0076ec12ee","602021b808d6ec5e3b4465c4","Mozilla/5.0 (Windows NT 10.0; Win64; x64) AppleWebKit/537.36 (KHTML, like Gecko) Chrome/88.0.4324.150 Safari/537.36","v1-up-stims","","","","","","","","-20,-10,0,10,20","media/audio/stims/spherical_300cm_s20_c20_cd-full_matched_a0.wav","spherical","20","20","full","matched","0","0","2019"
"echo-presentation","68","633518","0.0-68.0","5cd30b2041a6b8001874c41f","5fef55e628823a0076ec12ee","602021b808d6ec5e3b4465c4","Mozilla/5.0 (Windows NT 10.0; Win64; x64) AppleWebKit/537.36 (KHTML, like Gecko) Chrome/88.0.4324.150 Safari/537.36","v1-up-stims","","","","","","","","-20,-10,0,10,20","media/audio/stims/spherical_300cm_s20_c20_cd-full_matched_a-20.wav","spherical","20","20","full","matched","-20","-10","2895"
"echo-presentation","69","637185","0.0-69.0","5cd30b2041a6b8001874c41f","5fef55e628823a0076ec12ee","602021b808d6ec5e3b4465c4","Mozilla/5.0 (Windows NT 10.0; Win64; x64) AppleWebKit/537.36 (KHTML, like Gecko) Chrome/88.0.4324.150 Safari/537.36","v1-up-stims","","","","","","","","-20,-10,0,10,20","media/audio/stims/spherical_300cm_s20_c20_cd-full_matched_a20.wav","spherical","20","20","full","matched","20","10","2502"
"echo-presentation","70","640001","0.0-70.0","5cd30b2041a6b8001874c41f","5fef55e628823a0076ec12ee","602021b808d6ec5e3b4465c4","Mozilla/5.0 (Windows NT 10.0; Win64; x64) AppleWebKit/537.36 (KHTML, like Gecko) Chrome/88.0.4324.150 Safari/537.36","v1-up-stims","","","","","","","","-20,-10,0,10,20","media/audio/stims/spherical_300cm_s20_c20_cd-full_matched_a10.wav","spherical","20","20","full","matched","10","10","1935"
"echo-presentation","71","642953","0.0-71.0","5cd30b2041a6b8001874c41f","5fef55e628823a0076ec12ee","602021b808d6ec5e3b4465c4","Mozilla/5.0 (Windows NT 10.0; Win64; x64) AppleWebKit/537.36 (KHTML, like Gecko) Chrome/88.0.4324.150 Safari/537.36","v1-up-stims","","","","","","","","-20,-10,0,10,20","media/audio/stims/spherical_300cm_s20_c20_cd-full_matched_a10.wav","spherical","20","20","full","matched","10","10","1972"
"block-bookend","72","647396","0.0-72.0","5cd30b2041a6b8001874c41f","5fef55e628823a0076ec12ee","602021b808d6ec5e3b4465c4","Mozilla/5.0 (Windows NT 10.0; Win64; x64) AppleWebKit/537.36 (KHTML, like Gecko) Chrome/88.0.4324.150 Safari/537.36","v1-up-stims","","","","","","","","","","","","","","","","",""
"block-bookend","73","653489","0.0-73.0","5cd30b2041a6b8001874c41f","5fef55e628823a0076ec12ee","602021b808d6ec5e3b4465c4","Mozilla/5.0 (Windows NT 10.0; Win64; x64) AppleWebKit/537.36 (KHTML, like Gecko) Chrome/88.0.4324.150 Safari/537.36","v1-up-stims","","","","","","","","","","","","","","","","",""
"echo-presentation","74","659996","0.0-74.0","5cd30b2041a6b8001874c41f","5fef55e628823a0076ec12ee","602021b808d6ec5e3b4465c4","Mozilla/5.0 (Windows NT 10.0; Win64; x64) AppleWebKit/537.36 (KHTML, like Gecko) Chrome/88.0.4324.150 Safari/537.36","v1-up-stims","","","","","","","","-20,-10,0,10,20","media/audio/stims/spherical_300cm_s20_c20_cd-full_matched_a10.wav","spherical","20","20","full","matched","10","10","2755"
"echo-presentation","75","663741","0.0-75.0","5cd30b2041a6b8001874c41f","5fef55e628823a0076ec12ee","602021b808d6ec5e3b4465c4","Mozilla/5.0 (Windows NT 10.0; Win64; x64) AppleWebKit/537.36 (KHTML, like Gecko) Chrome/88.0.4324.150 Safari/537.36","v1-up-stims","","","","","","","","-20,-10,0,10,20","media/audio/stims/spherical_300cm_s20_c20_cd-full_matched_a-10.wav","spherical","20","20","full","matched","-10","-10","2721"
"echo-presentation","76","666539","0.0-76.0","5cd30b2041a6b8001874c41f","5fef55e628823a0076ec12ee","602021b808d6ec5e3b4465c4","Mozilla/5.0 (Windows NT 10.0; Win64; x64) AppleWebKit/537.36 (KHTML, like Gecko) Chrome/88.0.4324.150 Safari/537.36","v1-up-stims","","","","","","","","-20,-10,0,10,20","media/audio/stims/spherical_300cm_s20_c20_cd-full_matched_a0.wav","spherical","20","20","full","matched","0","0","1645"
"echo-presentation","77","669503","0.0-77.0","5cd30b2041a6b8001874c41f","5fef55e628823a0076ec12ee","602021b808d6ec5e3b4465c4","Mozilla/5.0 (Windows NT 10.0; Win64; x64) AppleWebKit/537.36 (KHTML, like Gecko) Chrome/88.0.4324.150 Safari/537.36","v1-up-stims","","","","","","","","-20,-10,0,10,20","media/audio/stims/spherical_300cm_s20_c20_cd-full_matched_a0.wav","spherical","20","20","full","matched","0","0","1598"
"echo-presentation","78","673411","0.0-78.0","5cd30b2041a6b8001874c41f","5fef55e628823a0076ec12ee","602021b808d6ec5e3b4465c4","Mozilla/5.0 (Windows NT 10.0; Win64; x64) AppleWebKit/537.36 (KHTML, like Gecko) Chrome/88.0.4324.150 Safari/537.36","v1-up-stims","","","","","","","","-20,-10,0,10,20","media/audio/stims/spherical_300cm_s20_c20_cd-full_matched_a-10.wav","spherical","20","20","full","matched","-10","-10","3016"
"echo-presentation","79","676173","0.0-79.0","5cd30b2041a6b8001874c41f","5fef55e628823a0076ec12ee","602021b808d6ec5e3b4465c4","Mozilla/5.0 (Windows NT 10.0; Win64; x64) AppleWebKit/537.36 (KHTML, like Gecko) Chrome/88.0.4324.150 Safari/537.36","v1-up-stims","","","","","","","","-20,-10,0,10,20","media/audio/stims/spherical_300cm_s20_c20_cd-full_matched_a10.wav","spherical","20","20","full","matched","10","10","1727"
"echo-presentation","80","678802","0.0-80.0","5cd30b2041a6b8001874c41f","5fef55e628823a0076ec12ee","602021b808d6ec5e3b4465c4","Mozilla/5.0 (Windows NT 10.0; Win64; x64) AppleWebKit/537.36 (KHTML, like Gecko) Chrome/88.0.4324.150 Safari/537.36","v1-up-stims","","","","","","","","-20,-10,0,10,20","media/audio/stims/spherical_300cm_s20_c20_cd-full_matched_a0.wav","spherical","20","20","full","matched","0","0","1504"
"echo-presentation","81","681273","0.0-81.0","5cd30b2041a6b8001874c41f","5fef55e628823a0076ec12ee","602021b808d6ec5e3b4465c4","Mozilla/5.0 (Windows NT 10.0; Win64; x64) AppleWebKit/537.36 (KHTML, like Gecko) Chrome/88.0.4324.150 Safari/537.36","v1-up-stims","","","","","","","","-20,-10,0,10,20","media/audio/stims/spherical_300cm_s20_c20_cd-full_matched_a10.wav","spherical","20","20","full","matched","10","10","1368"
"echo-presentation","82","684961","0.0-82.0","5cd30b2041a6b8001874c41f","5fef55e628823a0076ec12ee","602021b808d6ec5e3b4465c4","Mozilla/5.0 (Windows NT 10.0; Win64; x64) AppleWebKit/537.36 (KHTML, like Gecko) Chrome/88.0.4324.150 Safari/537.36","v1-up-stims","","","","","","","","-20,-10,0,10,20","media/audio/stims/spherical_300cm_s20_c20_cd-full_matched_a-10.wav","spherical","20","20","full","matched","-10","-10","2480"
"echo-presentation","83","687500","0.0-83.0","5cd30b2041a6b8001874c41f","5fef55e628823a0076ec12ee","602021b808d6ec5e3b4465c4","Mozilla/5.0 (Windows NT 10.0; Win64; x64) AppleWebKit/537.36 (KHTML, like Gecko) Chrome/88.0.4324.150 Safari/537.36","v1-up-stims","","","","","","","","-20,-10,0,10,20","media/audio/stims/spherical_300cm_s20_c20_cd-full_matched_a0.wav","spherical","20","20","full","matched","0","0","1672"
"echo-presentation","84","690309","0.0-84.0","5cd30b2041a6b8001874c41f","5fef55e628823a0076ec12ee","602021b808d6ec5e3b4465c4","Mozilla/5.0 (Windows NT 10.0; Win64; x64) AppleWebKit/537.36 (KHTML, like Gecko) Chrome/88.0.4324.150 Safari/537.36","v1-up-stims","","","","","","","","-20,-10,0,10,20","media/audio/stims/spherical_300cm_s20_c20_cd-full_matched_a-20.wav","spherical","20","20","full","matched","-20","-10","1961"
"echo-presentation","85","693371","0.0-85.0","5cd30b2041a6b8001874c41f","5fef55e628823a0076ec12ee","602021b808d6ec5e3b4465c4","Mozilla/5.0 (Windows NT 10.0; Win64; x64) AppleWebKit/537.36 (KHTML, like Gecko) Chrome/88.0.4324.150 Safari/537.36","v1-up-stims","","","","","","","","-20,-10,0,10,20","media/audio/stims/spherical_300cm_s20_c20_cd-full_matched_a20.wav","spherical","20","20","full","matched","20","20","2204"
"echo-presentation","86","696571","0.0-86.0","5cd30b2041a6b8001874c41f","5fef55e628823a0076ec12ee","602021b808d6ec5e3b4465c4","Mozilla/5.0 (Windows NT 10.0; Win64; x64) AppleWebKit/537.36 (KHTML, like Gecko) Chrome/88.0.4324.150 Safari/537.36","v1-up-stims","","","","","","","","-20,-10,0,10,20","media/audio/stims/spherical_300cm_s20_c20_cd-full_matched_a20.wav","spherical","20","20","full","matched","20","20","1459"
"echo-presentation","87","699601","0.0-87.0","5cd30b2041a6b8001874c41f","5fef55e628823a0076ec12ee","602021b808d6ec5e3b4465c4","Mozilla/5.0 (Windows NT 10.0; Win64; x64) AppleWebKit/537.36 (KHTML, like Gecko) Chrome/88.0.4324.150 Safari/537.36","v1-up-stims","","","","","","","","-20,-10,0,10,20","media/audio/stims/spherical_300cm_s20_c20_cd-full_matched_a-20.wav","spherical","20","20","full","matched","-20","-20","2065"
"echo-presentation","88","702386","0.0-88.0","5cd30b2041a6b8001874c41f","5fef55e628823a0076ec12ee","602021b808d6ec5e3b4465c4","Mozilla/5.0 (Windows NT 10.0; Win64; x64) AppleWebKit/537.36 (KHTML, like Gecko) Chrome/88.0.4324.150 Safari/537.36","v1-up-stims","","","","","","","","-20,-10,0,10,20","media/audio/stims/spherical_300cm_s20_c20_cd-full_matched_a20.wav","spherical","20","20","full","matched","20","20","1899"
"echo-presentation","89","707596","0.0-89.0","5cd30b2041a6b8001874c41f","5fef55e628823a0076ec12ee","602021b808d6ec5e3b4465c4","Mozilla/5.0 (Windows NT 10.0; Win64; x64) AppleWebKit/537.36 (KHTML, like Gecko) Chrome/88.0.4324.150 Safari/537.36","v1-up-stims","","","","","","","","-20,-10,0,10,20","media/audio/stims/spherical_300cm_s20_c20_cd-full_matched_a-10.wav","spherical","20","20","full","matched","-10","-10","4325"
"echo-presentation","90","711764","0.0-90.0","5cd30b2041a6b8001874c41f","5fef55e628823a0076ec12ee","602021b808d6ec5e3b4465c4","Mozilla/5.0 (Windows NT 10.0; Win64; x64) AppleWebKit/537.36 (KHTML, like Gecko) Chrome/88.0.4324.150 Safari/537.36","v1-up-stims","","","","","","","","-20,-10,0,10,20","media/audio/stims/spherical_300cm_s20_c20_cd-full_matched_a-20.wav","spherical","20","20","full","matched","-20","-10","3278"
"echo-presentation","91","714463","0.0-91.0","5cd30b2041a6b8001874c41f","5fef55e628823a0076ec12ee","602021b808d6ec5e3b4465c4","Mozilla/5.0 (Windows NT 10.0; Win64; x64) AppleWebKit/537.36 (KHTML, like Gecko) Chrome/88.0.4324.150 Safari/537.36","v1-up-stims","","","","","","","","-20,-10,0,10,20","media/audio/stims/spherical_300cm_s20_c20_cd-full_matched_a20.wav","spherical","20","20","full","matched","20","10","1855"
"echo-presentation","92","717661","0.0-92.0","5cd30b2041a6b8001874c41f","5fef55e628823a0076ec12ee","602021b808d6ec5e3b4465c4","Mozilla/5.0 (Windows NT 10.0; Win64; x64) AppleWebKit/537.36 (KHTML, like Gecko) Chrome/88.0.4324.150 Safari/537.36","v1-up-stims","","","","","","","","-20,-10,0,10,20","media/audio/stims/spherical_300cm_s20_c20_cd-full_matched_a10.wav","spherical","20","20","full","matched","10","20","2182"
"echo-presentation","93","720836","0.0-93.0","5cd30b2041a6b8001874c41f","5fef55e628823a0076ec12ee","602021b808d6ec5e3b4465c4","Mozilla/5.0 (Windows NT 10.0; Win64; x64) AppleWebKit/537.36 (KHTML, like Gecko) Chrome/88.0.4324.150 Safari/537.36","v1-up-stims","","","","","","","","-20,-10,0,10,20","media/audio/stims/spherical_300cm_s20_c20_cd-full_matched_a-20.wav","spherical","20","20","full","matched","-20","0","2219"
"block-bookend","94","723646","0.0-94.0","5cd30b2041a6b8001874c41f","5fef55e628823a0076ec12ee","602021b808d6ec5e3b4465c4","Mozilla/5.0 (Windows NT 10.0; Win64; x64) AppleWebKit/537.36 (KHTML, like Gecko) Chrome/88.0.4324.150 Safari/537.36","v1-up-stims","","","","","","","","","","","","","","","","",""
"block-bookend","95","730663","0.0-95.0","5cd30b2041a6b8001874c41f","5fef55e628823a0076ec12ee","602021b808d6ec5e3b4465c4","Mozilla/5.0 (Windows NT 10.0; Win64; x64) AppleWebKit/537.36 (KHTML, like Gecko) Chrome/88.0.4324.150 Safari/537.36","v1-up-stims","","","","","","","","","","","","","","","","",""
"echo-presentation","96","737347","0.0-96.0","5cd30b2041a6b8001874c41f","5fef55e628823a0076ec12ee","602021b808d6ec5e3b4465c4","Mozilla/5.0 (Windows NT 10.0; Win64; x64) AppleWebKit/537.36 (KHTML, like Gecko) Chrome/88.0.4324.150 Safari/537.36","v1-up-stims","","","","","","","","40,50,60,70,80","media/audio/stims/spherical_300cm_s20_c20_cd-full_matched_a60.wav","spherical","20","20","full","matched","60","70","2612"
"echo-presentation","97","740739","0.0-97.0","5cd30b2041a6b8001874c41f","5fef55e628823a0076ec12ee","602021b808d6ec5e3b4465c4","Mozilla/5.0 (Windows NT 10.0; Win64; x64) AppleWebKit/537.36 (KHTML, like Gecko) Chrome/88.0.4324.150 Safari/537.36","v1-up-stims","","","","","","","","40,50,60,70,80","media/audio/stims/spherical_300cm_s20_c20_cd-full_matched_a80.wav","spherical","20","20","full","matched","80","80","1628"
"echo-presentation","98","743805","0.0-98.0","5cd30b2041a6b8001874c41f","5fef55e628823a0076ec12ee","602021b808d6ec5e3b4465c4","Mozilla/5.0 (Windows NT 10.0; Win64; x64) AppleWebKit/537.36 (KHTML, like Gecko) Chrome/88.0.4324.150 Safari/537.36","v1-up-stims","","","","","","","","40,50,60,70,80","media/audio/stims/spherical_300cm_s20_c20_cd-full_matched_a50.wav","spherical","20","20","full","matched","50","80","1728"
"echo-presentation","99","746245","0.0-99.0","5cd30b2041a6b8001874c41f","5fef55e628823a0076ec12ee","602021b808d6ec5e3b4465c4","Mozilla/5.0 (Windows NT 10.0; Win64; x64) AppleWebKit/537.36 (KHTML, like Gecko) Chrome/88.0.4324.150 Safari/537.36","v1-up-stims","","","","","","","","40,50,60,70,80","media/audio/stims/spherical_300cm_s20_c20_cd-full_matched_a50.wav","spherical","20","20","full","matched","50","70","1418"
"echo-presentation","100","749732","0.0-100.0","5cd30b2041a6b8001874c41f","5fef55e628823a0076ec12ee","602021b808d6ec5e3b4465c4","Mozilla/5.0 (Windows NT 10.0; Win64; x64) AppleWebKit/537.36 (KHTML, like Gecko) Chrome/88.0.4324.150 Safari/537.36","v1-up-stims","","","","","","","","40,50,60,70,80","media/audio/stims/spherical_300cm_s20_c20_cd-full_matched_a60.wav","spherical","20","20","full","matched","60","70","2369"
"echo-presentation","101","754432","0.0-101.0","5cd30b2041a6b8001874c41f","5fef55e628823a0076ec12ee","602021b808d6ec5e3b4465c4","Mozilla/5.0 (Windows NT 10.0; Win64; x64) AppleWebKit/537.36 (KHTML, like Gecko) Chrome/88.0.4324.150 Safari/537.36","v1-up-stims","","","","","","","","40,50,60,70,80","media/audio/stims/spherical_300cm_s20_c20_cd-full_matched_a40.wav","spherical","20","20","full","matched","40","60","3570"
"echo-presentation","102","757015","0.0-102.0","5cd30b2041a6b8001874c41f","5fef55e628823a0076ec12ee","602021b808d6ec5e3b4465c4","Mozilla/5.0 (Windows NT 10.0; Win64; x64) AppleWebKit/537.36 (KHTML, like Gecko) Chrome/88.0.4324.150 Safari/537.36","v1-up-stims","","","","","","","","40,50,60,70,80","media/audio/stims/spherical_300cm_s20_c20_cd-full_matched_a40.wav","spherical","20","20","full","matched","40","60","1765"
"echo-presentation","103","760368","0.0-103.0","5cd30b2041a6b8001874c41f","5fef55e628823a0076ec12ee","602021b808d6ec5e3b4465c4","Mozilla/5.0 (Windows NT 10.0; Win64; x64) AppleWebKit/537.36 (KHTML, like Gecko) Chrome/88.0.4324.150 Safari/537.36","v1-up-stims","","","","","","","","40,50,60,70,80","media/audio/stims/spherical_300cm_s20_c20_cd-full_matched_a40.wav","spherical","20","20","full","matched","40","60","2444"
"echo-presentation","104","762707","0.0-104.0","5cd30b2041a6b8001874c41f","5fef55e628823a0076ec12ee","602021b808d6ec5e3b4465c4","Mozilla/5.0 (Windows NT 10.0; Win64; x64) AppleWebKit/537.36 (KHTML, like Gecko) Chrome/88.0.4324.150 Safari/537.36","v1-up-stims","","","","","","","","40,50,60,70,80","media/audio/stims/spherical_300cm_s20_c20_cd-full_matched_a70.wav","spherical","20","20","full","matched","70","70","1398"
"echo-presentation","105","765172","0.0-105.0","5cd30b2041a6b8001874c41f","5fef55e628823a0076ec12ee","602021b808d6ec5e3b4465c4","Mozilla/5.0 (Windows NT 10.0; Win64; x64) AppleWebKit/537.36 (KHTML, like Gecko) Chrome/88.0.4324.150 Safari/537.36","v1-up-stims","","","","","","","","40,50,60,70,80","media/audio/stims/spherical_300cm_s20_c20_cd-full_matched_a70.wav","spherical","20","20","full","matched","70","80","1287"
"echo-presentation","106","767519","0.0-106.0","5cd30b2041a6b8001874c41f","5fef55e628823a0076ec12ee","602021b808d6ec5e3b4465c4","Mozilla/5.0 (Windows NT 10.0; Win64; x64) AppleWebKit/537.36 (KHTML, like Gecko) Chrome/88.0.4324.150 Safari/537.36","v1-up-stims","","","","","","","","40,50,60,70,80","media/audio/stims/spherical_300cm_s20_c20_cd-full_matched_a80.wav","spherical","20","20","full","matched","80","80","1346"
"echo-presentation","107","769988","0.0-107.0","5cd30b2041a6b8001874c41f","5fef55e628823a0076ec12ee","602021b808d6ec5e3b4465c4","Mozilla/5.0 (Windows NT 10.0; Win64; x64) AppleWebKit/537.36 (KHTML, like Gecko) Chrome/88.0.4324.150 Safari/537.36","v1-up-stims","","","","","","","","40,50,60,70,80","media/audio/stims/spherical_300cm_s20_c20_cd-full_matched_a50.wav","spherical","20","20","full","matched","50","80","1534"
"echo-presentation","108","772408","0.0-108.0","5cd30b2041a6b8001874c41f","5fef55e628823a0076ec12ee","602021b808d6ec5e3b4465c4","Mozilla/5.0 (Windows NT 10.0; Win64; x64) AppleWebKit/537.36 (KHTML, like Gecko) Chrome/88.0.4324.150 Safari/537.36","v1-up-stims","","","","","","","","40,50,60,70,80","media/audio/stims/spherical_300cm_s20_c20_cd-full_matched_a70.wav","spherical","20","20","full","matched","70","80","1370"
"echo-presentation","109","775037","0.0-109.0","5cd30b2041a6b8001874c41f","5fef55e628823a0076ec12ee","602021b808d6ec5e3b4465c4","Mozilla/5.0 (Windows NT 10.0; Win64; x64) AppleWebKit/537.36 (KHTML, like Gecko) Chrome/88.0.4324.150 Safari/537.36","v1-up-stims","","","","","","","","40,50,60,70,80","media/audio/stims/spherical_300cm_s20_c20_cd-full_matched_a50.wav","spherical","20","20","full","matched","50","70","1515"
"echo-presentation","110","777276","0.0-110.0","5cd30b2041a6b8001874c41f","5fef55e628823a0076ec12ee","602021b808d6ec5e3b4465c4","Mozilla/5.0 (Windows NT 10.0; Win64; x64) AppleWebKit/537.36 (KHTML, like Gecko) Chrome/88.0.4324.150 Safari/537.36","v1-up-stims","","","","","","","","40,50,60,70,80","media/audio/stims/spherical_300cm_s20_c20_cd-full_matched_a80.wav","spherical","20","20","full","matched","80","80","1292"
"echo-presentation","111","779566","0.0-111.0","5cd30b2041a6b8001874c41f","5fef55e628823a0076ec12ee","602021b808d6ec5e3b4465c4","Mozilla/5.0 (Windows NT 10.0; Win64; x64) AppleWebKit/537.36 (KHTML, like Gecko) Chrome/88.0.4324.150 Safari/537.36","v1-up-stims","","","","","","","","40,50,60,70,80","media/audio/stims/spherical_300cm_s20_c20_cd-full_matched_a70.wav","spherical","20","20","full","matched","70","80","1322"
"echo-presentation","112","782426","0.0-112.0","5cd30b2041a6b8001874c41f","5fef55e628823a0076ec12ee","602021b808d6ec5e3b4465c4","Mozilla/5.0 (Windows NT 10.0; Win64; x64) AppleWebKit/537.36 (KHTML, like Gecko) Chrome/88.0.4324.150 Safari/537.36","v1-up-stims","","","","","","","","40,50,60,70,80","media/audio/stims/spherical_300cm_s20_c20_cd-full_matched_a40.wav","spherical","20","20","full","matched","40","80","1825"
"echo-presentation","113","784866","0.0-113.0","5cd30b2041a6b8001874c41f","5fef55e628823a0076ec12ee","602021b808d6ec5e3b4465c4","Mozilla/5.0 (Windows NT 10.0; Win64; x64) AppleWebKit/537.36 (KHTML, like Gecko) Chrome/88.0.4324.150 Safari/537.36","v1-up-stims","","","","","","","","40,50,60,70,80","media/audio/stims/spherical_300cm_s20_c20_cd-full_matched_a60.wav","spherical","20","20","full","matched","60","80","1522"
"echo-presentation","114","787335","0.0-114.0","5cd30b2041a6b8001874c41f","5fef55e628823a0076ec12ee","602021b808d6ec5e3b4465c4","Mozilla/5.0 (Windows NT 10.0; Win64; x64) AppleWebKit/537.36 (KHTML, like Gecko) Chrome/88.0.4324.150 Safari/537.36","v1-up-stims","","","","","","","","40,50,60,70,80","media/audio/stims/spherical_300cm_s20_c20_cd-full_matched_a60.wav","spherical","20","20","full","matched","60","80","1383"
"echo-presentation","115","789999","0.0-115.0","5cd30b2041a6b8001874c41f","5fef55e628823a0076ec12ee","602021b808d6ec5e3b4465c4","Mozilla/5.0 (Windows NT 10.0; Win64; x64) AppleWebKit/537.36 (KHTML, like Gecko) Chrome/88.0.4324.150 Safari/537.36","v1-up-stims","","","","","","","","40,50,60,70,80","media/audio/stims/spherical_300cm_s20_c20_cd-full_matched_a80.wav","spherical","20","20","full","matched","80","80","1591"
"block-bookend","116","792089","0.0-116.0","5cd30b2041a6b8001874c41f","5fef55e628823a0076ec12ee","602021b808d6ec5e3b4465c4","Mozilla/5.0 (Windows NT 10.0; Win64; x64) AppleWebKit/537.36 (KHTML, like Gecko) Chrome/88.0.4324.150 Safari/537.36","v1-up-stims","","","","","","","","","","","","","","","","",""
"block-bookend","117","797999","0.0-117.0","5cd30b2041a6b8001874c41f","5fef55e628823a0076ec12ee","602021b808d6ec5e3b4465c4","Mozilla/5.0 (Windows NT 10.0; Win64; x64) AppleWebKit/537.36 (KHTML, like Gecko) Chrome/88.0.4324.150 Safari/537.36","v1-up-stims","","","","","","","","","","","","","","","","",""
"echo-presentation","118","804909","0.0-118.0","5cd30b2041a6b8001874c41f","5fef55e628823a0076ec12ee","602021b808d6ec5e3b4465c4","Mozilla/5.0 (Windows NT 10.0; Win64; x64) AppleWebKit/537.36 (KHTML, like Gecko) Chrome/88.0.4324.150 Safari/537.36","v1-up-stims","","","","","","","","40,50,60,70,80","media/audio/stims/spherical_300cm_s20_c20_cd-full_matched_a50.wav","spherical","20","20","full","matched","50","60","3080"
"echo-presentation","119","807816","0.0-119.0","5cd30b2041a6b8001874c41f","5fef55e628823a0076ec12ee","602021b808d6ec5e3b4465c4","Mozilla/5.0 (Windows NT 10.0; Win64; x64) AppleWebKit/537.36 (KHTML, like Gecko) Chrome/88.0.4324.150 Safari/537.36","v1-up-stims","","","","","","","","40,50,60,70,80","media/audio/stims/spherical_300cm_s20_c20_cd-full_matched_a50.wav","spherical","20","20","full","matched","50","60","1602"
"echo-presentation","120","812523","0.0-120.0","5cd30b2041a6b8001874c41f","5fef55e628823a0076ec12ee","602021b808d6ec5e3b4465c4","Mozilla/5.0 (Windows NT 10.0; Win64; x64) AppleWebKit/537.36 (KHTML, like Gecko) Chrome/88.0.4324.150 Safari/537.36","v1-up-stims","","","","","","","","40,50,60,70,80","media/audio/stims/spherical_300cm_s20_c20_cd-full_matched_a50.wav","spherical","20","20","full","matched","50","50","3671"
"echo-presentation","121","815384","0.0-121.0","5cd30b2041a6b8001874c41f","5fef55e628823a0076ec12ee","602021b808d6ec5e3b4465c4","Mozilla/5.0 (Windows NT 10.0; Win64; x64) AppleWebKit/537.36 (KHTML, like Gecko) Chrome/88.0.4324.150 Safari/537.36","v1-up-stims","","","","","","","","40,50,60,70,80","media/audio/stims/spherical_300cm_s20_c20_cd-full_matched_a60.wav","spherical","20","20","full","matched","60","60","2028"
"echo-presentation","122","817743","0.0-122.0","5cd30b2041a6b8001874c41f","5fef55e628823a0076ec12ee","602021b808d6ec5e3b4465c4","Mozilla/5.0 (Windows NT 10.0; Win64; x64) AppleWebKit/537.36 (KHTML, like Gecko) Chrome/88.0.4324.150 Safari/537.36","v1-up-stims","","","","","","","","40,50,60,70,80","media/audio/stims/spherical_300cm_s20_c20_cd-full_matched_a60.wav","spherical","20","20","full","matched","60","70","1482"
"echo-presentation","123","820216","0.0-123.0","5cd30b2041a6b8001874c41f","5fef55e628823a0076ec12ee","602021b808d6ec5e3b4465c4","Mozilla/5.0 (Windows NT 10.0; Win64; x64) AppleWebKit/537.36 (KHTML, like Gecko) Chrome/88.0.4324.150 Safari/537.36","v1-up-stims","","","","","","","","40,50,60,70,80","media/audio/stims/spherical_300cm_s20_c20_cd-full_matched_a70.wav","spherical","20","20","full","matched","70","70","1447"
"echo-presentation","124","823468","0.0-124.0","5cd30b2041a6b8001874c41f","5fef55e628823a0076ec12ee","602021b808d6ec5e3b4465c4","Mozilla/5.0 (Windows NT 10.0; Win64; x64) AppleWebKit/537.36 (KHTML, like Gecko) Chrome/88.0.4324.150 Safari/537.36","v1-up-stims","","","","","","","","40,50,60,70,80","media/audio/stims/spherical_300cm_s20_c20_cd-full_matched_a70.wav","spherical","20","20","full","matched","70","70","2306"
"echo-presentation","125","825813","0.0-125.0","5cd30b2041a6b8001874c41f","5fef55e628823a0076ec12ee","602021b808d6ec5e3b4465c4","Mozilla/5.0 (Windows NT 10.0; Win64; x64) AppleWebKit/537.36 (KHTML, like Gecko) Chrome/88.0.4324.150 Safari/537.36","v1-up-stims","","","","","","","","40,50,60,70,80","media/audio/stims/spherical_300cm_s20_c20_cd-full_matched_a40.wav","spherical","20","20","full","matched","40","70","1487"
"echo-presentation","126","828018","0.0-126.0","5cd30b2041a6b8001874c41f","5fef55e628823a0076ec12ee","602021b808d6ec5e3b4465c4","Mozilla/5.0 (Windows NT 10.0; Win64; x64) AppleWebKit/537.36 (KHTML, like Gecko) Chrome/88.0.4324.150 Safari/537.36","v1-up-stims","","","","","","","","40,50,60,70,80","media/audio/stims/spherical_300cm_s20_c20_cd-full_matched_a80.wav","spherical","20","20","full","matched","80","80","1322"
"echo-presentation","127","830366","0.0-127.0","5cd30b2041a6b8001874c41f","5fef55e628823a0076ec12ee","602021b808d6ec5e3b4465c4","Mozilla/5.0 (Windows NT 10.0; Win64; x64) AppleWebKit/537.36 (KHTML, like Gecko) Chrome/88.0.4324.150 Safari/537.36","v1-up-stims","","","","","","","","40,50,60,70,80","media/audio/stims/spherical_300cm_s20_c20_cd-full_matched_a80.wav","spherical","20","20","full","matched","80","80","1367"
"echo-presentation","128","832763","0.0-128.0","5cd30b2041a6b8001874c41f","5fef55e628823a0076ec12ee","602021b808d6ec5e3b4465c4","Mozilla/5.0 (Windows NT 10.0; Win64; x64) AppleWebKit/537.36 (KHTML, like Gecko) Chrome/88.0.4324.150 Safari/537.36","v1-up-stims","","","","","","","","40,50,60,70,80","media/audio/stims/spherical_300cm_s20_c20_cd-full_matched_a70.wav","spherical","20","20","full","matched","70","80","1363"
"echo-presentation","129","835167","0.0-129.0","5cd30b2041a6b8001874c41f","5fef55e628823a0076ec12ee","602021b808d6ec5e3b4465c4","Mozilla/5.0 (Windows NT 10.0; Win64; x64) AppleWebKit/537.36 (KHTML, like Gecko) Chrome/88.0.4324.150 Safari/537.36","v1-up-stims","","","","","","","","40,50,60,70,80","media/audio/stims/spherical_300cm_s20_c20_cd-full_matched_a70.wav","spherical","20","20","full","matched","70","80","1508"
"echo-presentation","130","837428","0.0-130.0","5cd30b2041a6b8001874c41f","5fef55e628823a0076ec12ee","602021b808d6ec5e3b4465c4","Mozilla/5.0 (Windows NT 10.0; Win64; x64) AppleWebKit/537.36 (KHTML, like Gecko) Chrome/88.0.4324.150 Safari/537.36","v1-up-stims","","","","","","","","40,50,60,70,80","media/audio/stims/spherical_300cm_s20_c20_cd-full_matched_a40.wav","spherical","20","20","full","matched","40","80","1305"
"echo-presentation","131","839870","0.0-131.0","5cd30b2041a6b8001874c41f","5fef55e628823a0076ec12ee","602021b808d6ec5e3b4465c4","Mozilla/5.0 (Windows NT 10.0; Win64; x64) AppleWebKit/537.36 (KHTML, like Gecko) Chrome/88.0.4324.150 Safari/537.36","v1-up-stims","","","","","","","","40,50,60,70,80","media/audio/stims/spherical_300cm_s20_c20_cd-full_matched_a80.wav","spherical","20","20","full","matched","80","80","1339"
"echo-presentation","132","842674","0.0-132.0","5cd30b2041a6b8001874c41f","5fef55e628823a0076ec12ee","602021b808d6ec5e3b4465c4","Mozilla/5.0 (Windows NT 10.0; Win64; x64) AppleWebKit/537.36 (KHTML, like Gecko) Chrome/88.0.4324.150 Safari/537.36","v1-up-stims","","","","","","","","40,50,60,70,80","media/audio/stims/spherical_300cm_s20_c20_cd-full_matched_a40.wav","spherical","20","20","full","matched","40","70","1882"
"echo-presentation","133","845346","0.0-133.0","5cd30b2041a6b8001874c41f","5fef55e628823a0076ec12ee","602021b808d6ec5e3b4465c4","Mozilla/5.0 (Windows NT 10.0; Win64; x64) AppleWebKit/537.36 (KHTML, like Gecko) Chrome/88.0.4324.150 Safari/537.36","v1-up-stims","","","","","","","","40,50,60,70,80","media/audio/stims/spherical_300cm_s20_c20_cd-full_matched_a60.wav","spherical","20","20","full","matched","60","70","1829"
"echo-presentation","134","847419","0.0-134.0","5cd30b2041a6b8001874c41f","5fef55e628823a0076ec12ee","602021b808d6ec5e3b4465c4","Mozilla/5.0 (Windows NT 10.0; Win64; x64) AppleWebKit/537.36 (KHTML, like Gecko) Chrome/88.0.4324.150 Safari/537.36","v1-up-stims","","","","","","","","40,50,60,70,80","media/audio/stims/spherical_300cm_s20_c20_cd-full_matched_a80.wav","spherical","20","20","full","matched","80","80","1229"
"echo-presentation","135","849761","0.0-135.0","5cd30b2041a6b8001874c41f","5fef55e628823a0076ec12ee","602021b808d6ec5e3b4465c4","Mozilla/5.0 (Windows NT 10.0; Win64; x64) AppleWebKit/537.36 (KHTML, like Gecko) Chrome/88.0.4324.150 Safari/537.36","v1-up-stims","","","","","","","","40,50,60,70,80","media/audio/stims/spherical_300cm_s20_c20_cd-full_matched_a60.wav","spherical","20","20","full","matched","60","80","1421"
"echo-presentation","136","852355","0.0-136.0","5cd30b2041a6b8001874c41f","5fef55e628823a0076ec12ee","602021b808d6ec5e3b4465c4","Mozilla/5.0 (Windows NT 10.0; Win64; x64) AppleWebKit/537.36 (KHTML, like Gecko) Chrome/88.0.4324.150 Safari/537.36","v1-up-stims","","","","","","","","40,50,60,70,80","media/audio/stims/spherical_300cm_s20_c20_cd-full_matched_a50.wav","spherical","20","20","full","matched","50","70","1582"
"echo-presentation","137","854756","0.0-137.0","5cd30b2041a6b8001874c41f","5fef55e628823a0076ec12ee","602021b808d6ec5e3b4465c4","Mozilla/5.0 (Windows NT 10.0; Win64; x64) AppleWebKit/537.36 (KHTML, like Gecko) Chrome/88.0.4324.150 Safari/537.36","v1-up-stims","","","","","","","","40,50,60,70,80","media/audio/stims/spherical_300cm_s20_c20_cd-full_matched_a40.wav","spherical","20","20","full","matched","40","70","1475"
"block-bookend","138","856235","0.0-138.0","5cd30b2041a6b8001874c41f","5fef55e628823a0076ec12ee","602021b808d6ec5e3b4465c4","Mozilla/5.0 (Windows NT 10.0; Win64; x64) AppleWebKit/537.36 (KHTML, like Gecko) Chrome/88.0.4324.150 Safari/537.36","v1-up-stims","","","","","","","","","","","","","","","","",""
