"trial_type","trial_index","time_elapsed","internal_node_id","prolificPid","studyId","sessionId","userAgent","version","rt","stimulus","key_press","chosenKeyset","failureCount","testIndex","globalVolume","choices","filename","modelName","slowdown","compensation","compensationDescriptor","receiverOrientationType","azimuth","responseAzimuth","responseDelay"
"pavlovia","0","4","0.0-0.0","5eedec89a08bcd222d7c447c","5fef55e628823a0076ec12ee","60200e1630f3af57b4580a48","Mozilla/5.0 (Windows NT 10.0; Win64; x64) AppleWebKit/537.36 (KHTML, like Gecko) Chrome/88.0.4324.146 Safari/537.36","v1-up-stims","","","","","","","","","","","","","","","","",""
"html-keyboard-response","1","63704","0.0-1.0","5eedec89a08bcd222d7c447c","5fef55e628823a0076ec12ee","60200e1630f3af57b4580a48","Mozilla/5.0 (Windows NT 10.0; Win64; x64) AppleWebKit/537.36 (KHTML, like Gecko) Chrome/88.0.4324.146 Safari/537.36","v1-up-stims","63698.42500000959","<div><h1>Welcome!</h1><p>Press any key to continue.</p></div>","32","","","","","","","","","","","","","",""
"consent-form","2","197345","0.0-2.0","5eedec89a08bcd222d7c447c","5fef55e628823a0076ec12ee","60200e1630f3af57b4580a48","Mozilla/5.0 (Windows NT 10.0; Win64; x64) AppleWebKit/537.36 (KHTML, like Gecko) Chrome/88.0.4324.146 Safari/537.36","v1-up-stims","","","","","","","","","","","","","","","","",""
"keyset-select","3","253172","0.0-3.0","5eedec89a08bcd222d7c447c","5fef55e628823a0076ec12ee","60200e1630f3af57b4580a48","Mozilla/5.0 (Windows NT 10.0; Win64; x64) AppleWebKit/537.36 (KHTML, like Gecko) Chrome/88.0.4324.146 Safari/537.36","v1-up-stims","","","","left-hand","","","","","","","","","","","","",""
"headphone-check","4","331117","0.0-4.0","5eedec89a08bcd222d7c447c","5fef55e628823a0076ec12ee","60200e1630f3af57b4580a48","Mozilla/5.0 (Windows NT 10.0; Win64; x64) AppleWebKit/537.36 (KHTML, like Gecko) Chrome/88.0.4324.146 Safari/537.36","v1-up-stims","","","","","0","6","0.3","","","","","","","","","",""
"headphone-backwards-check","5","345035","0.0-5.0","5eedec89a08bcd222d7c447c","5fef55e628823a0076ec12ee","60200e1630f3af57b4580a48","Mozilla/5.0 (Windows NT 10.0; Win64; x64) AppleWebKit/537.36 (KHTML, like Gecko) Chrome/88.0.4324.146 Safari/537.36","v1-up-stims","","","","","0","","","","","","","","","","","",""
"training","6","460002","0.0-6.0","5eedec89a08bcd222d7c447c","5fef55e628823a0076ec12ee","60200e1630f3af57b4580a48","Mozilla/5.0 (Windows NT 10.0; Win64; x64) AppleWebKit/537.36 (KHTML, like Gecko) Chrome/88.0.4324.146 Safari/537.36","v1-up-stims","","","","","","","","","","","","","","","","",""
"block-bookend","7","525527","0.0-7.0","5eedec89a08bcd222d7c447c","5fef55e628823a0076ec12ee","60200e1630f3af57b4580a48","Mozilla/5.0 (Windows NT 10.0; Win64; x64) AppleWebKit/537.36 (KHTML, like Gecko) Chrome/88.0.4324.146 Safari/537.36","v1-up-stims","","","","","","","","","","","","","","","","",""
"echo-presentation","8","536854","0.0-8.0","5eedec89a08bcd222d7c447c","5fef55e628823a0076ec12ee","60200e1630f3af57b4580a48","Mozilla/5.0 (Windows NT 10.0; Win64; x64) AppleWebKit/537.36 (KHTML, like Gecko) Chrome/88.0.4324.146 Safari/537.36","v1-up-stims","","","","","","","","40,50,60,70,80","media/audio/stims/spherical_300cm_s20_c20_cd-full_matched_a60.wav","spherical","20","20","full","matched","60","50","3572"
"echo-presentation","9","543186","0.0-9.0","5eedec89a08bcd222d7c447c","5fef55e628823a0076ec12ee","60200e1630f3af57b4580a48","Mozilla/5.0 (Windows NT 10.0; Win64; x64) AppleWebKit/537.36 (KHTML, like Gecko) Chrome/88.0.4324.146 Safari/537.36","v1-up-stims","","","","","","","","40,50,60,70,80","media/audio/stims/spherical_300cm_s20_c20_cd-full_matched_a60.wav","spherical","20","20","full","matched","60","50","4343"
"echo-presentation","10","549265","0.0-10.0","5eedec89a08bcd222d7c447c","5fef55e628823a0076ec12ee","60200e1630f3af57b4580a48","Mozilla/5.0 (Windows NT 10.0; Win64; x64) AppleWebKit/537.36 (KHTML, like Gecko) Chrome/88.0.4324.146 Safari/537.36","v1-up-stims","","","","","","","","40,50,60,70,80","media/audio/stims/spherical_300cm_s20_c20_cd-full_matched_a40.wav","spherical","20","20","full","matched","40","50","3640"
"echo-presentation","11","553370","0.0-11.0","5eedec89a08bcd222d7c447c","5fef55e628823a0076ec12ee","60200e1630f3af57b4580a48","Mozilla/5.0 (Windows NT 10.0; Win64; x64) AppleWebKit/537.36 (KHTML, like Gecko) Chrome/88.0.4324.146 Safari/537.36","v1-up-stims","","","","","","","","40,50,60,70,80","media/audio/stims/spherical_300cm_s20_c20_cd-full_matched_a70.wav","spherical","20","20","full","matched","70","60","2523"
"echo-presentation","12","557691","0.0-12.0","5eedec89a08bcd222d7c447c","5fef55e628823a0076ec12ee","60200e1630f3af57b4580a48","Mozilla/5.0 (Windows NT 10.0; Win64; x64) AppleWebKit/537.36 (KHTML, like Gecko) Chrome/88.0.4324.146 Safari/537.36","v1-up-stims","","","","","","","","40,50,60,70,80","media/audio/stims/spherical_300cm_s20_c20_cd-full_matched_a80.wav","spherical","20","20","full","matched","80","70","2858"
"echo-presentation","13","567670","0.0-13.0","5eedec89a08bcd222d7c447c","5fef55e628823a0076ec12ee","60200e1630f3af57b4580a48","Mozilla/5.0 (Windows NT 10.0; Win64; x64) AppleWebKit/537.36 (KHTML, like Gecko) Chrome/88.0.4324.146 Safari/537.36","v1-up-stims","","","","","","","","40,50,60,70,80","media/audio/stims/spherical_300cm_s20_c20_cd-full_matched_a60.wav","spherical","20","20","full","matched","60","80","2436"
"echo-presentation","14","572985","0.0-14.0","5eedec89a08bcd222d7c447c","5fef55e628823a0076ec12ee","60200e1630f3af57b4580a48","Mozilla/5.0 (Windows NT 10.0; Win64; x64) AppleWebKit/537.36 (KHTML, like Gecko) Chrome/88.0.4324.146 Safari/537.36","v1-up-stims","","","","","","","","40,50,60,70,80","media/audio/stims/spherical_300cm_s20_c20_cd-full_matched_a50.wav","spherical","20","20","full","matched","50","60","2234"
"echo-presentation","15","576345","0.0-15.0","5eedec89a08bcd222d7c447c","5fef55e628823a0076ec12ee","60200e1630f3af57b4580a48","Mozilla/5.0 (Windows NT 10.0; Win64; x64) AppleWebKit/537.36 (KHTML, like Gecko) Chrome/88.0.4324.146 Safari/537.36","v1-up-stims","","","","","","","","40,50,60,70,80","media/audio/stims/spherical_300cm_s20_c20_cd-full_matched_a40.wav","spherical","20","20","full","matched","40","60","2013"
"echo-presentation","16","581404","0.0-16.0","5eedec89a08bcd222d7c447c","5fef55e628823a0076ec12ee","60200e1630f3af57b4580a48","Mozilla/5.0 (Windows NT 10.0; Win64; x64) AppleWebKit/537.36 (KHTML, like Gecko) Chrome/88.0.4324.146 Safari/537.36","v1-up-stims","","","","","","","","40,50,60,70,80","media/audio/stims/spherical_300cm_s20_c20_cd-full_matched_a40.wav","spherical","20","20","full","matched","40","50","3528"
"echo-presentation","17","583841","0.0-17.0","5eedec89a08bcd222d7c447c","5fef55e628823a0076ec12ee","60200e1630f3af57b4580a48","Mozilla/5.0 (Windows NT 10.0; Win64; x64) AppleWebKit/537.36 (KHTML, like Gecko) Chrome/88.0.4324.146 Safari/537.36","v1-up-stims","","","","","","","","40,50,60,70,80","media/audio/stims/spherical_300cm_s20_c20_cd-full_matched_a70.wav","spherical","20","20","full","matched","70","40","1254"
"echo-presentation","18","586852","0.0-18.0","5eedec89a08bcd222d7c447c","5fef55e628823a0076ec12ee","60200e1630f3af57b4580a48","Mozilla/5.0 (Windows NT 10.0; Win64; x64) AppleWebKit/537.36 (KHTML, like Gecko) Chrome/88.0.4324.146 Safari/537.36","v1-up-stims","","","","","","","","40,50,60,70,80","media/audio/stims/spherical_300cm_s20_c20_cd-full_matched_a50.wav","spherical","20","20","full","matched","50","80","2013"
"echo-presentation","19","589800","0.0-19.0","5eedec89a08bcd222d7c447c","5fef55e628823a0076ec12ee","60200e1630f3af57b4580a48","Mozilla/5.0 (Windows NT 10.0; Win64; x64) AppleWebKit/537.36 (KHTML, like Gecko) Chrome/88.0.4324.146 Safari/537.36","v1-up-stims","","","","","","","","40,50,60,70,80","media/audio/stims/spherical_300cm_s20_c20_cd-full_matched_a80.wav","spherical","20","20","full","matched","80","40","1792"
"echo-presentation","20","592473","0.0-20.0","5eedec89a08bcd222d7c447c","5fef55e628823a0076ec12ee","60200e1630f3af57b4580a48","Mozilla/5.0 (Windows NT 10.0; Win64; x64) AppleWebKit/537.36 (KHTML, like Gecko) Chrome/88.0.4324.146 Safari/537.36","v1-up-stims","","","","","","","","40,50,60,70,80","media/audio/stims/spherical_300cm_s20_c20_cd-full_matched_a70.wav","spherical","20","20","full","matched","70","50","1532"
"echo-presentation","21","596030","0.0-21.0","5eedec89a08bcd222d7c447c","5fef55e628823a0076ec12ee","60200e1630f3af57b4580a48","Mozilla/5.0 (Windows NT 10.0; Win64; x64) AppleWebKit/537.36 (KHTML, like Gecko) Chrome/88.0.4324.146 Safari/537.36","v1-up-stims","","","","","","","","40,50,60,70,80","media/audio/stims/spherical_300cm_s20_c20_cd-full_matched_a50.wav","spherical","20","20","full","matched","50","70","2187"
"echo-presentation","22","600297","0.0-22.0","5eedec89a08bcd222d7c447c","5fef55e628823a0076ec12ee","60200e1630f3af57b4580a48","Mozilla/5.0 (Windows NT 10.0; Win64; x64) AppleWebKit/537.36 (KHTML, like Gecko) Chrome/88.0.4324.146 Safari/537.36","v1-up-stims","","","","","","","","40,50,60,70,80","media/audio/stims/spherical_300cm_s20_c20_cd-full_matched_a70.wav","spherical","20","20","full","matched","70","40","1701"
"echo-presentation","23","604091","0.0-23.0","5eedec89a08bcd222d7c447c","5fef55e628823a0076ec12ee","60200e1630f3af57b4580a48","Mozilla/5.0 (Windows NT 10.0; Win64; x64) AppleWebKit/537.36 (KHTML, like Gecko) Chrome/88.0.4324.146 Safari/537.36","v1-up-stims","","","","","","","","40,50,60,70,80","media/audio/stims/spherical_300cm_s20_c20_cd-full_matched_a40.wav","spherical","20","20","full","matched","40","50","2068"
"echo-presentation","24","607813","0.0-24.0","5eedec89a08bcd222d7c447c","5fef55e628823a0076ec12ee","60200e1630f3af57b4580a48","Mozilla/5.0 (Windows NT 10.0; Win64; x64) AppleWebKit/537.36 (KHTML, like Gecko) Chrome/88.0.4324.146 Safari/537.36","v1-up-stims","","","","","","","","40,50,60,70,80","media/audio/stims/spherical_300cm_s20_c20_cd-full_matched_a80.wav","spherical","20","20","full","matched","80","50","2269"
"echo-presentation","25","612729","0.0-25.0","5eedec89a08bcd222d7c447c","5fef55e628823a0076ec12ee","60200e1630f3af57b4580a48","Mozilla/5.0 (Windows NT 10.0; Win64; x64) AppleWebKit/537.36 (KHTML, like Gecko) Chrome/88.0.4324.146 Safari/537.36","v1-up-stims","","","","","","","","40,50,60,70,80","media/audio/stims/spherical_300cm_s20_c20_cd-full_matched_a80.wav","spherical","20","20","full","matched","80","60","3723"
"echo-presentation","26","629849","0.0-26.0","5eedec89a08bcd222d7c447c","5fef55e628823a0076ec12ee","60200e1630f3af57b4580a48","Mozilla/5.0 (Windows NT 10.0; Win64; x64) AppleWebKit/537.36 (KHTML, like Gecko) Chrome/88.0.4324.146 Safari/537.36","v1-up-stims","","","","","","","","40,50,60,70,80","media/audio/stims/spherical_300cm_s20_c20_cd-full_matched_a60.wav","spherical","20","20","full","matched","60","60","12522"
"echo-presentation","27","634192","0.0-27.0","5eedec89a08bcd222d7c447c","5fef55e628823a0076ec12ee","60200e1630f3af57b4580a48","Mozilla/5.0 (Windows NT 10.0; Win64; x64) AppleWebKit/537.36 (KHTML, like Gecko) Chrome/88.0.4324.146 Safari/537.36","v1-up-stims","","","","","","","","40,50,60,70,80","media/audio/stims/spherical_300cm_s20_c20_cd-full_matched_a50.wav","spherical","20","20","full","matched","50","40","3126"
"block-bookend","28","649632","0.0-28.0","5eedec89a08bcd222d7c447c","5fef55e628823a0076ec12ee","60200e1630f3af57b4580a48","Mozilla/5.0 (Windows NT 10.0; Win64; x64) AppleWebKit/537.36 (KHTML, like Gecko) Chrome/88.0.4324.146 Safari/537.36","v1-up-stims","","","","","","","","","","","","","","","","",""
"block-bookend","29","668266","0.0-29.0","5eedec89a08bcd222d7c447c","5fef55e628823a0076ec12ee","60200e1630f3af57b4580a48","Mozilla/5.0 (Windows NT 10.0; Win64; x64) AppleWebKit/537.36 (KHTML, like Gecko) Chrome/88.0.4324.146 Safari/537.36","v1-up-stims","","","","","","","","","","","","","","","","",""
"echo-presentation","30","684035","0.0-30.0","5eedec89a08bcd222d7c447c","5fef55e628823a0076ec12ee","60200e1630f3af57b4580a48","Mozilla/5.0 (Windows NT 10.0; Win64; x64) AppleWebKit/537.36 (KHTML, like Gecko) Chrome/88.0.4324.146 Safari/537.36","v1-up-stims","","","","","","","","40,50,60,70,80","media/audio/stims/spherical_300cm_s20_c20_cd-full_matched_a40.wav","spherical","20","20","full","matched","40","70","9175"
"echo-presentation","31","688313","0.0-31.0","5eedec89a08bcd222d7c447c","5fef55e628823a0076ec12ee","60200e1630f3af57b4580a48","Mozilla/5.0 (Windows NT 10.0; Win64; x64) AppleWebKit/537.36 (KHTML, like Gecko) Chrome/88.0.4324.146 Safari/537.36","v1-up-stims","","","","","","","","40,50,60,70,80","media/audio/stims/spherical_300cm_s20_c20_cd-full_matched_a80.wav","spherical","20","20","full","matched","80","40","1146"
"echo-presentation","32","692512","0.0-32.0","5eedec89a08bcd222d7c447c","5fef55e628823a0076ec12ee","60200e1630f3af57b4580a48","Mozilla/5.0 (Windows NT 10.0; Win64; x64) AppleWebKit/537.36 (KHTML, like Gecko) Chrome/88.0.4324.146 Safari/537.36","v1-up-stims","","","","","","","","40,50,60,70,80","media/audio/stims/spherical_300cm_s20_c20_cd-full_matched_a60.wav","spherical","20","20","full","matched","60","60","2265"
"echo-presentation","33","696428","0.0-33.0","5eedec89a08bcd222d7c447c","5fef55e628823a0076ec12ee","60200e1630f3af57b4580a48","Mozilla/5.0 (Windows NT 10.0; Win64; x64) AppleWebKit/537.36 (KHTML, like Gecko) Chrome/88.0.4324.146 Safari/537.36","v1-up-stims","","","","","","","","40,50,60,70,80","media/audio/stims/spherical_300cm_s20_c20_cd-full_matched_a40.wav","spherical","20","20","full","matched","40","70","2062"
"echo-presentation","34","699227","0.0-34.0","5eedec89a08bcd222d7c447c","5fef55e628823a0076ec12ee","60200e1630f3af57b4580a48","Mozilla/5.0 (Windows NT 10.0; Win64; x64) AppleWebKit/537.36 (KHTML, like Gecko) Chrome/88.0.4324.146 Safari/537.36","v1-up-stims","","","","","","","","40,50,60,70,80","media/audio/stims/spherical_300cm_s20_c20_cd-full_matched_a80.wav","spherical","20","20","full","matched","80","50","1797"
"echo-presentation","35","703439","0.0-35.0","5eedec89a08bcd222d7c447c","5fef55e628823a0076ec12ee","60200e1630f3af57b4580a48","Mozilla/5.0 (Windows NT 10.0; Win64; x64) AppleWebKit/537.36 (KHTML, like Gecko) Chrome/88.0.4324.146 Safari/537.36","v1-up-stims","","","","","","","","40,50,60,70,80","media/audio/stims/spherical_300cm_s20_c20_cd-full_matched_a40.wav","spherical","20","20","full","matched","40","40","2064"
"echo-presentation","36","705745","0.0-36.0","5eedec89a08bcd222d7c447c","5fef55e628823a0076ec12ee","60200e1630f3af57b4580a48","Mozilla/5.0 (Windows NT 10.0; Win64; x64) AppleWebKit/537.36 (KHTML, like Gecko) Chrome/88.0.4324.146 Safari/537.36","v1-up-stims","","","","","","","","40,50,60,70,80","media/audio/stims/spherical_300cm_s20_c20_cd-full_matched_a70.wav","spherical","20","20","full","matched","70","60","1378"
"echo-presentation","37","709903","0.0-37.0","5eedec89a08bcd222d7c447c","5fef55e628823a0076ec12ee","60200e1630f3af57b4580a48","Mozilla/5.0 (Windows NT 10.0; Win64; x64) AppleWebKit/537.36 (KHTML, like Gecko) Chrome/88.0.4324.146 Safari/537.36","v1-up-stims","","","","","","","","40,50,60,70,80","media/audio/stims/spherical_300cm_s20_c20_cd-full_matched_a60.wav","spherical","20","20","full","matched","60","60","2720"
"echo-presentation","38","713757","0.0-38.0","5eedec89a08bcd222d7c447c","5fef55e628823a0076ec12ee","60200e1630f3af57b4580a48","Mozilla/5.0 (Windows NT 10.0; Win64; x64) AppleWebKit/537.36 (KHTML, like Gecko) Chrome/88.0.4324.146 Safari/537.36","v1-up-stims","","","","","","","","40,50,60,70,80","media/audio/stims/spherical_300cm_s20_c20_cd-full_matched_a70.wav","spherical","20","20","full","matched","70","80","2190"
"echo-presentation","39","716826","0.0-39.0","5eedec89a08bcd222d7c447c","5fef55e628823a0076ec12ee","60200e1630f3af57b4580a48","Mozilla/5.0 (Windows NT 10.0; Win64; x64) AppleWebKit/537.36 (KHTML, like Gecko) Chrome/88.0.4324.146 Safari/537.36","v1-up-stims","","","","","","","","40,50,60,70,80","media/audio/stims/spherical_300cm_s20_c20_cd-full_matched_a70.wav","spherical","20","20","full","matched","70","60","1633"
"echo-presentation","40","726428","0.0-40.0","5eedec89a08bcd222d7c447c","5fef55e628823a0076ec12ee","60200e1630f3af57b4580a48","Mozilla/5.0 (Windows NT 10.0; Win64; x64) AppleWebKit/537.36 (KHTML, like Gecko) Chrome/88.0.4324.146 Safari/537.36","v1-up-stims","","","","","","","","40,50,60,70,80","media/audio/stims/spherical_300cm_s20_c20_cd-full_matched_a50.wav","spherical","20","20","full","matched","50","50","2020"
"echo-presentation","41","730425","0.0-41.0","5eedec89a08bcd222d7c447c","5fef55e628823a0076ec12ee","60200e1630f3af57b4580a48","Mozilla/5.0 (Windows NT 10.0; Win64; x64) AppleWebKit/537.36 (KHTML, like Gecko) Chrome/88.0.4324.146 Safari/537.36","v1-up-stims","","","","","","","","40,50,60,70,80","media/audio/stims/spherical_300cm_s20_c20_cd-full_matched_a50.wav","spherical","20","20","full","matched","50","60","2450"
"echo-presentation","42","738845","0.0-42.0","5eedec89a08bcd222d7c447c","5fef55e628823a0076ec12ee","60200e1630f3af57b4580a48","Mozilla/5.0 (Windows NT 10.0; Win64; x64) AppleWebKit/537.36 (KHTML, like Gecko) Chrome/88.0.4324.146 Safari/537.36","v1-up-stims","","","","","","","","40,50,60,70,80","media/audio/stims/spherical_300cm_s20_c20_cd-full_matched_a50.wav","spherical","20","20","full","matched","50","80","2636"
"echo-presentation","43","744255","0.0-43.0","5eedec89a08bcd222d7c447c","5fef55e628823a0076ec12ee","60200e1630f3af57b4580a48","Mozilla/5.0 (Windows NT 10.0; Win64; x64) AppleWebKit/537.36 (KHTML, like Gecko) Chrome/88.0.4324.146 Safari/537.36","v1-up-stims","","","","","","","","40,50,60,70,80","media/audio/stims/spherical_300cm_s20_c20_cd-full_matched_a60.wav","spherical","20","20","full","matched","60","70","2234"
"echo-presentation","44","748020","0.0-44.0","5eedec89a08bcd222d7c447c","5fef55e628823a0076ec12ee","60200e1630f3af57b4580a48","Mozilla/5.0 (Windows NT 10.0; Win64; x64) AppleWebKit/537.36 (KHTML, like Gecko) Chrome/88.0.4324.146 Safari/537.36","v1-up-stims","","","","","","","","40,50,60,70,80","media/audio/stims/spherical_300cm_s20_c20_cd-full_matched_a40.wav","spherical","20","20","full","matched","40","70","1987"
"echo-presentation","45","753522","0.0-45.0","5eedec89a08bcd222d7c447c","5fef55e628823a0076ec12ee","60200e1630f3af57b4580a48","Mozilla/5.0 (Windows NT 10.0; Win64; x64) AppleWebKit/537.36 (KHTML, like Gecko) Chrome/88.0.4324.146 Safari/537.36","v1-up-stims","","","","","","","","40,50,60,70,80","media/audio/stims/spherical_300cm_s20_c20_cd-full_matched_a70.wav","spherical","20","20","full","matched","70","80","3321"
"echo-presentation","46","757513","0.0-46.0","5eedec89a08bcd222d7c447c","5fef55e628823a0076ec12ee","60200e1630f3af57b4580a48","Mozilla/5.0 (Windows NT 10.0; Win64; x64) AppleWebKit/537.36 (KHTML, like Gecko) Chrome/88.0.4324.146 Safari/537.36","v1-up-stims","","","","","","","","40,50,60,70,80","media/audio/stims/spherical_300cm_s20_c20_cd-full_matched_a50.wav","spherical","20","20","full","matched","50","50","1978"
"echo-presentation","47","762672","0.0-47.0","5eedec89a08bcd222d7c447c","5fef55e628823a0076ec12ee","60200e1630f3af57b4580a48","Mozilla/5.0 (Windows NT 10.0; Win64; x64) AppleWebKit/537.36 (KHTML, like Gecko) Chrome/88.0.4324.146 Safari/537.36","v1-up-stims","","","","","","","","40,50,60,70,80","media/audio/stims/spherical_300cm_s20_c20_cd-full_matched_a80.wav","spherical","20","20","full","matched","80","60","2987"
"echo-presentation","48","765944","0.0-48.0","5eedec89a08bcd222d7c447c","5fef55e628823a0076ec12ee","60200e1630f3af57b4580a48","Mozilla/5.0 (Windows NT 10.0; Win64; x64) AppleWebKit/537.36 (KHTML, like Gecko) Chrome/88.0.4324.146 Safari/537.36","v1-up-stims","","","","","","","","40,50,60,70,80","media/audio/stims/spherical_300cm_s20_c20_cd-full_matched_a60.wav","spherical","20","20","full","matched","60","70","1863"
"echo-presentation","49","769265","0.0-49.0","5eedec89a08bcd222d7c447c","5fef55e628823a0076ec12ee","60200e1630f3af57b4580a48","Mozilla/5.0 (Windows NT 10.0; Win64; x64) AppleWebKit/537.36 (KHTML, like Gecko) Chrome/88.0.4324.146 Safari/537.36","v1-up-stims","","","","","","","","40,50,60,70,80","media/audio/stims/spherical_300cm_s20_c20_cd-full_matched_a80.wav","spherical","20","20","full","matched","80","70","1492"
"block-bookend","50","771731","0.0-50.0","5eedec89a08bcd222d7c447c","5fef55e628823a0076ec12ee","60200e1630f3af57b4580a48","Mozilla/5.0 (Windows NT 10.0; Win64; x64) AppleWebKit/537.36 (KHTML, like Gecko) Chrome/88.0.4324.146 Safari/537.36","v1-up-stims","","","","","","","","","","","","","","","","",""
"block-bookend","51","795273","0.0-51.0","5eedec89a08bcd222d7c447c","5fef55e628823a0076ec12ee","60200e1630f3af57b4580a48","Mozilla/5.0 (Windows NT 10.0; Win64; x64) AppleWebKit/537.36 (KHTML, like Gecko) Chrome/88.0.4324.146 Safari/537.36","v1-up-stims","","","","","","","","","","","","","","","","",""
"echo-presentation","52","800457","0.0-52.0","5eedec89a08bcd222d7c447c","5fef55e628823a0076ec12ee","60200e1630f3af57b4580a48","Mozilla/5.0 (Windows NT 10.0; Win64; x64) AppleWebKit/537.36 (KHTML, like Gecko) Chrome/88.0.4324.146 Safari/537.36","v1-up-stims","","","","","","","","-20,-10,0,10,20","media/audio/stims/spherical_300cm_s20_c20_cd-full_matched_a20.wav","spherical","20","20","full","matched","20","20","3015"
"echo-presentation","53","803003","0.0-53.0","5eedec89a08bcd222d7c447c","5fef55e628823a0076ec12ee","60200e1630f3af57b4580a48","Mozilla/5.0 (Windows NT 10.0; Win64; x64) AppleWebKit/537.36 (KHTML, like Gecko) Chrome/88.0.4324.146 Safari/537.36","v1-up-stims","","","","","","","","-20,-10,0,10,20","media/audio/stims/spherical_300cm_s20_c20_cd-full_matched_a0.wav","spherical","20","20","full","matched","0","0","1453"
"echo-presentation","54","806026","0.0-54.0","5eedec89a08bcd222d7c447c","5fef55e628823a0076ec12ee","60200e1630f3af57b4580a48","Mozilla/5.0 (Windows NT 10.0; Win64; x64) AppleWebKit/537.36 (KHTML, like Gecko) Chrome/88.0.4324.146 Safari/537.36","v1-up-stims","","","","","","","","-20,-10,0,10,20","media/audio/stims/spherical_300cm_s20_c20_cd-full_matched_a-10.wav","spherical","20","20","full","matched","-10","0","1910"
"echo-presentation","55","810582","0.0-55.0","5eedec89a08bcd222d7c447c","5fef55e628823a0076ec12ee","60200e1630f3af57b4580a48","Mozilla/5.0 (Windows NT 10.0; Win64; x64) AppleWebKit/537.36 (KHTML, like Gecko) Chrome/88.0.4324.146 Safari/537.36","v1-up-stims","","","","","","","","-20,-10,0,10,20","media/audio/stims/spherical_300cm_s20_c20_cd-full_matched_a10.wav","spherical","20","20","full","matched","10","0","2147"
"echo-presentation","56","813145","0.0-56.0","5eedec89a08bcd222d7c447c","5fef55e628823a0076ec12ee","60200e1630f3af57b4580a48","Mozilla/5.0 (Windows NT 10.0; Win64; x64) AppleWebKit/537.36 (KHTML, like Gecko) Chrome/88.0.4324.146 Safari/537.36","v1-up-stims","","","","","","","","-20,-10,0,10,20","media/audio/stims/spherical_300cm_s20_c20_cd-full_matched_a10.wav","spherical","20","20","full","matched","10","20","1449"
"echo-presentation","57","817055","0.0-57.0","5eedec89a08bcd222d7c447c","5fef55e628823a0076ec12ee","60200e1630f3af57b4580a48","Mozilla/5.0 (Windows NT 10.0; Win64; x64) AppleWebKit/537.36 (KHTML, like Gecko) Chrome/88.0.4324.146 Safari/537.36","v1-up-stims","","","","","","","","-20,-10,0,10,20","media/audio/stims/spherical_300cm_s20_c20_cd-full_matched_a-10.wav","spherical","20","20","full","matched","-10","-20","1707"
"echo-presentation","58","819953","0.0-58.0","5eedec89a08bcd222d7c447c","5fef55e628823a0076ec12ee","60200e1630f3af57b4580a48","Mozilla/5.0 (Windows NT 10.0; Win64; x64) AppleWebKit/537.36 (KHTML, like Gecko) Chrome/88.0.4324.146 Safari/537.36","v1-up-stims","","","","","","","","-20,-10,0,10,20","media/audio/stims/spherical_300cm_s20_c20_cd-full_matched_a0.wav","spherical","20","20","full","matched","0","20","1682"
"echo-presentation","59","823516","0.0-59.0","5eedec89a08bcd222d7c447c","5fef55e628823a0076ec12ee","60200e1630f3af57b4580a48","Mozilla/5.0 (Windows NT 10.0; Win64; x64) AppleWebKit/537.36 (KHTML, like Gecko) Chrome/88.0.4324.146 Safari/537.36","v1-up-stims","","","","","","","","-20,-10,0,10,20","media/audio/stims/spherical_300cm_s20_c20_cd-full_matched_a-20.wav","spherical","20","20","full","matched","-20","-10","1774"
"echo-presentation","60","827649","0.0-60.0","5eedec89a08bcd222d7c447c","5fef55e628823a0076ec12ee","60200e1630f3af57b4580a48","Mozilla/5.0 (Windows NT 10.0; Win64; x64) AppleWebKit/537.36 (KHTML, like Gecko) Chrome/88.0.4324.146 Safari/537.36","v1-up-stims","","","","","","","","-20,-10,0,10,20","media/audio/stims/spherical_300cm_s20_c20_cd-full_matched_a0.wav","spherical","20","20","full","matched","0","10","2377"
"echo-presentation","61","831226","0.0-61.0","5eedec89a08bcd222d7c447c","5fef55e628823a0076ec12ee","60200e1630f3af57b4580a48","Mozilla/5.0 (Windows NT 10.0; Win64; x64) AppleWebKit/537.36 (KHTML, like Gecko) Chrome/88.0.4324.146 Safari/537.36","v1-up-stims","","","","","","","","-20,-10,0,10,20","media/audio/stims/spherical_300cm_s20_c20_cd-full_matched_a10.wav","spherical","20","20","full","matched","10","10","1784"
"echo-presentation","62","834150","0.0-62.0","5eedec89a08bcd222d7c447c","5fef55e628823a0076ec12ee","60200e1630f3af57b4580a48","Mozilla/5.0 (Windows NT 10.0; Win64; x64) AppleWebKit/537.36 (KHTML, like Gecko) Chrome/88.0.4324.146 Safari/537.36","v1-up-stims","","","","","","","","-20,-10,0,10,20","media/audio/stims/spherical_300cm_s20_c20_cd-full_matched_a-10.wav","spherical","20","20","full","matched","-10","20","1956"
"echo-presentation","63","838519","0.0-63.0","5eedec89a08bcd222d7c447c","5fef55e628823a0076ec12ee","60200e1630f3af57b4580a48","Mozilla/5.0 (Windows NT 10.0; Win64; x64) AppleWebKit/537.36 (KHTML, like Gecko) Chrome/88.0.4324.146 Safari/537.36","v1-up-stims","","","","","","","","-20,-10,0,10,20","media/audio/stims/spherical_300cm_s20_c20_cd-full_matched_a-20.wav","spherical","20","20","full","matched","-20","10","2731"
"echo-presentation","64","842918","0.0-64.0","5eedec89a08bcd222d7c447c","5fef55e628823a0076ec12ee","60200e1630f3af57b4580a48","Mozilla/5.0 (Windows NT 10.0; Win64; x64) AppleWebKit/537.36 (KHTML, like Gecko) Chrome/88.0.4324.146 Safari/537.36","v1-up-stims","","","","","","","","-20,-10,0,10,20","media/audio/stims/spherical_300cm_s20_c20_cd-full_matched_a20.wav","spherical","20","20","full","matched","20","10","2168"
"echo-presentation","65","845782","0.0-65.0","5eedec89a08bcd222d7c447c","5fef55e628823a0076ec12ee","60200e1630f3af57b4580a48","Mozilla/5.0 (Windows NT 10.0; Win64; x64) AppleWebKit/537.36 (KHTML, like Gecko) Chrome/88.0.4324.146 Safari/537.36","v1-up-stims","","","","","","","","-20,-10,0,10,20","media/audio/stims/spherical_300cm_s20_c20_cd-full_matched_a20.wav","spherical","20","20","full","matched","20","-10","1629"
"echo-presentation","66","850566","0.0-66.0","5eedec89a08bcd222d7c447c","5fef55e628823a0076ec12ee","60200e1630f3af57b4580a48","Mozilla/5.0 (Windows NT 10.0; Win64; x64) AppleWebKit/537.36 (KHTML, like Gecko) Chrome/88.0.4324.146 Safari/537.36","v1-up-stims","","","","","","","","-20,-10,0,10,20","media/audio/stims/spherical_300cm_s20_c20_cd-full_matched_a10.wav","spherical","20","20","full","matched","10","0","3669"
"echo-presentation","67","852742","0.0-67.0","5eedec89a08bcd222d7c447c","5fef55e628823a0076ec12ee","60200e1630f3af57b4580a48","Mozilla/5.0 (Windows NT 10.0; Win64; x64) AppleWebKit/537.36 (KHTML, like Gecko) Chrome/88.0.4324.146 Safari/537.36","v1-up-stims","","","","","","","","-20,-10,0,10,20","media/audio/stims/spherical_300cm_s20_c20_cd-full_matched_a0.wav","spherical","20","20","full","matched","0","20","1228"
"echo-presentation","68","855489","0.0-68.0","5eedec89a08bcd222d7c447c","5fef55e628823a0076ec12ee","60200e1630f3af57b4580a48","Mozilla/5.0 (Windows NT 10.0; Win64; x64) AppleWebKit/537.36 (KHTML, like Gecko) Chrome/88.0.4324.146 Safari/537.36","v1-up-stims","","","","","","","","-20,-10,0,10,20","media/audio/stims/spherical_300cm_s20_c20_cd-full_matched_a-20.wav","spherical","20","20","full","matched","-20","-20","1369"
"echo-presentation","69","857971","0.0-69.0","5eedec89a08bcd222d7c447c","5fef55e628823a0076ec12ee","60200e1630f3af57b4580a48","Mozilla/5.0 (Windows NT 10.0; Win64; x64) AppleWebKit/537.36 (KHTML, like Gecko) Chrome/88.0.4324.146 Safari/537.36","v1-up-stims","","","","","","","","-20,-10,0,10,20","media/audio/stims/spherical_300cm_s20_c20_cd-full_matched_a-20.wav","spherical","20","20","full","matched","-20","-10","1139"
"echo-presentation","70","861671","0.0-70.0","5eedec89a08bcd222d7c447c","5fef55e628823a0076ec12ee","60200e1630f3af57b4580a48","Mozilla/5.0 (Windows NT 10.0; Win64; x64) AppleWebKit/537.36 (KHTML, like Gecko) Chrome/88.0.4324.146 Safari/537.36","v1-up-stims","","","","","","","","-20,-10,0,10,20","media/audio/stims/spherical_300cm_s20_c20_cd-full_matched_a20.wav","spherical","20","20","full","matched","20","10","1618"
"echo-presentation","71","864490","0.0-71.0","5eedec89a08bcd222d7c447c","5fef55e628823a0076ec12ee","60200e1630f3af57b4580a48","Mozilla/5.0 (Windows NT 10.0; Win64; x64) AppleWebKit/537.36 (KHTML, like Gecko) Chrome/88.0.4324.146 Safari/537.36","v1-up-stims","","","","","","","","-20,-10,0,10,20","media/audio/stims/spherical_300cm_s20_c20_cd-full_matched_a-10.wav","spherical","20","20","full","matched","-10","-20","1109"
"block-bookend","72","866352","0.0-72.0","5eedec89a08bcd222d7c447c","5fef55e628823a0076ec12ee","60200e1630f3af57b4580a48","Mozilla/5.0 (Windows NT 10.0; Win64; x64) AppleWebKit/537.36 (KHTML, like Gecko) Chrome/88.0.4324.146 Safari/537.36","v1-up-stims","","","","","","","","","","","","","","","","",""
"block-bookend","73","886292","0.0-73.0","5eedec89a08bcd222d7c447c","5fef55e628823a0076ec12ee","60200e1630f3af57b4580a48","Mozilla/5.0 (Windows NT 10.0; Win64; x64) AppleWebKit/537.36 (KHTML, like Gecko) Chrome/88.0.4324.146 Safari/537.36","v1-up-stims","","","","","","","","","","","","","","","","",""
"echo-presentation","74","890443","0.0-74.0","5eedec89a08bcd222d7c447c","5fef55e628823a0076ec12ee","60200e1630f3af57b4580a48","Mozilla/5.0 (Windows NT 10.0; Win64; x64) AppleWebKit/537.36 (KHTML, like Gecko) Chrome/88.0.4324.146 Safari/537.36","v1-up-stims","","","","","","","","-20,-10,0,10,20","media/audio/stims/spherical_300cm_s20_c20_cd-full_matched_a0.wav","spherical","20","20","full","matched","0","10","2145"
"echo-presentation","75","904119","0.0-75.0","5eedec89a08bcd222d7c447c","5fef55e628823a0076ec12ee","60200e1630f3af57b4580a48","Mozilla/5.0 (Windows NT 10.0; Win64; x64) AppleWebKit/537.36 (KHTML, like Gecko) Chrome/88.0.4324.146 Safari/537.36","v1-up-stims","","","","","","","","-20,-10,0,10,20","media/audio/stims/spherical_300cm_s20_c20_cd-full_matched_a-10.wav","spherical","20","20","full","matched","-10","-20","1588"
"echo-presentation","76","907284","0.0-76.0","5eedec89a08bcd222d7c447c","5fef55e628823a0076ec12ee","60200e1630f3af57b4580a48","Mozilla/5.0 (Windows NT 10.0; Win64; x64) AppleWebKit/537.36 (KHTML, like Gecko) Chrome/88.0.4324.146 Safari/537.36","v1-up-stims","","","","","","","","-20,-10,0,10,20","media/audio/stims/spherical_300cm_s20_c20_cd-full_matched_a20.wav","spherical","20","20","full","matched","20","-10","1583"
"echo-presentation","77","910648","0.0-77.0","5eedec89a08bcd222d7c447c","5fef55e628823a0076ec12ee","60200e1630f3af57b4580a48","Mozilla/5.0 (Windows NT 10.0; Win64; x64) AppleWebKit/537.36 (KHTML, like Gecko) Chrome/88.0.4324.146 Safari/537.36","v1-up-stims","","","","","","","","-20,-10,0,10,20","media/audio/stims/spherical_300cm_s20_c20_cd-full_matched_a-10.wav","spherical","20","20","full","matched","-10","-20","1009"
"echo-presentation","78","912885","0.0-78.0","5eedec89a08bcd222d7c447c","5fef55e628823a0076ec12ee","60200e1630f3af57b4580a48","Mozilla/5.0 (Windows NT 10.0; Win64; x64) AppleWebKit/537.36 (KHTML, like Gecko) Chrome/88.0.4324.146 Safari/537.36","v1-up-stims","","","","","","","","-20,-10,0,10,20","media/audio/stims/spherical_300cm_s20_c20_cd-full_matched_a-20.wav","spherical","20","20","full","matched","-20","-10","1145"
"echo-presentation","79","917076","0.0-79.0","5eedec89a08bcd222d7c447c","5fef55e628823a0076ec12ee","60200e1630f3af57b4580a48","Mozilla/5.0 (Windows NT 10.0; Win64; x64) AppleWebKit/537.36 (KHTML, like Gecko) Chrome/88.0.4324.146 Safari/537.36","v1-up-stims","","","","","","","","-20,-10,0,10,20","media/audio/stims/spherical_300cm_s20_c20_cd-full_matched_a-10.wav","spherical","20","20","full","matched","-10","0","2324"
"echo-presentation","80","920085","0.0-80.0","5eedec89a08bcd222d7c447c","5fef55e628823a0076ec12ee","60200e1630f3af57b4580a48","Mozilla/5.0 (Windows NT 10.0; Win64; x64) AppleWebKit/537.36 (KHTML, like Gecko) Chrome/88.0.4324.146 Safari/537.36","v1-up-stims","","","","","","","","-20,-10,0,10,20","media/audio/stims/spherical_300cm_s20_c20_cd-full_matched_a20.wav","spherical","20","20","full","matched","20","10","1465"
"echo-presentation","81","922354","0.0-81.0","5eedec89a08bcd222d7c447c","5fef55e628823a0076ec12ee","60200e1630f3af57b4580a48","Mozilla/5.0 (Windows NT 10.0; Win64; x64) AppleWebKit/537.36 (KHTML, like Gecko) Chrome/88.0.4324.146 Safari/537.36","v1-up-stims","","","","","","","","-20,-10,0,10,20","media/audio/stims/spherical_300cm_s20_c20_cd-full_matched_a10.wav","spherical","20","20","full","matched","10","-10","1200"
"echo-presentation","82","925407","0.0-82.0","5eedec89a08bcd222d7c447c","5fef55e628823a0076ec12ee","60200e1630f3af57b4580a48","Mozilla/5.0 (Windows NT 10.0; Win64; x64) AppleWebKit/537.36 (KHTML, like Gecko) Chrome/88.0.4324.146 Safari/537.36","v1-up-stims","","","","","","","","-20,-10,0,10,20","media/audio/stims/spherical_300cm_s20_c20_cd-full_matched_a20.wav","spherical","20","20","full","matched","20","20","1999"
"echo-presentation","83","927671","0.0-83.0","5eedec89a08bcd222d7c447c","5fef55e628823a0076ec12ee","60200e1630f3af57b4580a48","Mozilla/5.0 (Windows NT 10.0; Win64; x64) AppleWebKit/537.36 (KHTML, like Gecko) Chrome/88.0.4324.146 Safari/537.36","v1-up-stims","","","","","","","","-20,-10,0,10,20","media/audio/stims/spherical_300cm_s20_c20_cd-full_matched_a0.wav","spherical","20","20","full","matched","0","0","1186"
"echo-presentation","84","930792","0.0-84.0","5eedec89a08bcd222d7c447c","5fef55e628823a0076ec12ee","60200e1630f3af57b4580a48","Mozilla/5.0 (Windows NT 10.0; Win64; x64) AppleWebKit/537.36 (KHTML, like Gecko) Chrome/88.0.4324.146 Safari/537.36","v1-up-stims","","","","","","","","-20,-10,0,10,20","media/audio/stims/spherical_300cm_s20_c20_cd-full_matched_a-10.wav","spherical","20","20","full","matched","-10","0","1733"
"echo-presentation","85","934314","0.0-85.0","5eedec89a08bcd222d7c447c","5fef55e628823a0076ec12ee","60200e1630f3af57b4580a48","Mozilla/5.0 (Windows NT 10.0; Win64; x64) AppleWebKit/537.36 (KHTML, like Gecko) Chrome/88.0.4324.146 Safari/537.36","v1-up-stims","","","","","","","","-20,-10,0,10,20","media/audio/stims/spherical_300cm_s20_c20_cd-full_matched_a10.wav","spherical","20","20","full","matched","10","-10","2098"
"echo-presentation","86","937771","0.0-86.0","5eedec89a08bcd222d7c447c","5fef55e628823a0076ec12ee","60200e1630f3af57b4580a48","Mozilla/5.0 (Windows NT 10.0; Win64; x64) AppleWebKit/537.36 (KHTML, like Gecko) Chrome/88.0.4324.146 Safari/537.36","v1-up-stims","","","","","","","","-20,-10,0,10,20","media/audio/stims/spherical_300cm_s20_c20_cd-full_matched_a0.wav","spherical","20","20","full","matched","0","-20","2155"
"echo-presentation","87","939759","0.0-87.0","5eedec89a08bcd222d7c447c","5fef55e628823a0076ec12ee","60200e1630f3af57b4580a48","Mozilla/5.0 (Windows NT 10.0; Win64; x64) AppleWebKit/537.36 (KHTML, like Gecko) Chrome/88.0.4324.146 Safari/537.36","v1-up-stims","","","","","","","","-20,-10,0,10,20","media/audio/stims/spherical_300cm_s20_c20_cd-full_matched_a0.wav","spherical","20","20","full","matched","0","-10","1093"
"echo-presentation","88","942873","0.0-88.0","5eedec89a08bcd222d7c447c","5fef55e628823a0076ec12ee","60200e1630f3af57b4580a48","Mozilla/5.0 (Windows NT 10.0; Win64; x64) AppleWebKit/537.36 (KHTML, like Gecko) Chrome/88.0.4324.146 Safari/537.36","v1-up-stims","","","","","","","","-20,-10,0,10,20","media/audio/stims/spherical_300cm_s20_c20_cd-full_matched_a20.wav","spherical","20","20","full","matched","20","0","2286"
"echo-presentation","89","944915","0.0-89.0","5eedec89a08bcd222d7c447c","5fef55e628823a0076ec12ee","60200e1630f3af57b4580a48","Mozilla/5.0 (Windows NT 10.0; Win64; x64) AppleWebKit/537.36 (KHTML, like Gecko) Chrome/88.0.4324.146 Safari/537.36","v1-up-stims","","","","","","","","-20,-10,0,10,20","media/audio/stims/spherical_300cm_s20_c20_cd-full_matched_a10.wav","spherical","20","20","full","matched","10","0","1148"
"echo-presentation","90","947530","0.0-90.0","5eedec89a08bcd222d7c447c","5fef55e628823a0076ec12ee","60200e1630f3af57b4580a48","Mozilla/5.0 (Windows NT 10.0; Win64; x64) AppleWebKit/537.36 (KHTML, like Gecko) Chrome/88.0.4324.146 Safari/537.36","v1-up-stims","","","","","","","","-20,-10,0,10,20","media/audio/stims/spherical_300cm_s20_c20_cd-full_matched_a-20.wav","spherical","20","20","full","matched","-20","20","1416"
"echo-presentation","91","951766","0.0-91.0","5eedec89a08bcd222d7c447c","5fef55e628823a0076ec12ee","60200e1630f3af57b4580a48","Mozilla/5.0 (Windows NT 10.0; Win64; x64) AppleWebKit/537.36 (KHTML, like Gecko) Chrome/88.0.4324.146 Safari/537.36","v1-up-stims","","","","","","","","-20,-10,0,10,20","media/audio/stims/spherical_300cm_s20_c20_cd-full_matched_a-20.wav","spherical","20","20","full","matched","-20","0","3124"
"echo-presentation","92","954648","0.0-92.0","5eedec89a08bcd222d7c447c","5fef55e628823a0076ec12ee","60200e1630f3af57b4580a48","Mozilla/5.0 (Windows NT 10.0; Win64; x64) AppleWebKit/537.36 (KHTML, like Gecko) Chrome/88.0.4324.146 Safari/537.36","v1-up-stims","","","","","","","","-20,-10,0,10,20","media/audio/stims/spherical_300cm_s20_c20_cd-full_matched_a-20.wav","spherical","20","20","full","matched","-20","0","2073"
"echo-presentation","93","963013","0.0-93.0","5eedec89a08bcd222d7c447c","5fef55e628823a0076ec12ee","60200e1630f3af57b4580a48","Mozilla/5.0 (Windows NT 10.0; Win64; x64) AppleWebKit/537.36 (KHTML, like Gecko) Chrome/88.0.4324.146 Safari/537.36","v1-up-stims","","","","","","","","-20,-10,0,10,20","media/audio/stims/spherical_300cm_s20_c20_cd-full_matched_a10.wav","spherical","20","20","full","matched","10","-20","1395"
"block-bookend","94","964304","0.0-94.0","5eedec89a08bcd222d7c447c","5fef55e628823a0076ec12ee","60200e1630f3af57b4580a48","Mozilla/5.0 (Windows NT 10.0; Win64; x64) AppleWebKit/537.36 (KHTML, like Gecko) Chrome/88.0.4324.146 Safari/537.36","v1-up-stims","","","","","","","","","","","","","","","","",""
"block-bookend","95","970892","0.0-95.0","5eedec89a08bcd222d7c447c","5fef55e628823a0076ec12ee","60200e1630f3af57b4580a48","Mozilla/5.0 (Windows NT 10.0; Win64; x64) AppleWebKit/537.36 (KHTML, like Gecko) Chrome/88.0.4324.146 Safari/537.36","v1-up-stims","","","","","","","","","","","","","","","","",""
"echo-presentation","96","975526","0.0-96.0","5eedec89a08bcd222d7c447c","5fef55e628823a0076ec12ee","60200e1630f3af57b4580a48","Mozilla/5.0 (Windows NT 10.0; Win64; x64) AppleWebKit/537.36 (KHTML, like Gecko) Chrome/88.0.4324.146 Safari/537.36","v1-up-stims","","","","","","","","-80,-70,-60,-50,-40","media/audio/stims/spherical_300cm_s20_c20_cd-full_matched_a-50.wav","spherical","20","20","full","matched","-50","-40","2933"
"echo-presentation","97","978652","0.0-97.0","5eedec89a08bcd222d7c447c","5fef55e628823a0076ec12ee","60200e1630f3af57b4580a48","Mozilla/5.0 (Windows NT 10.0; Win64; x64) AppleWebKit/537.36 (KHTML, like Gecko) Chrome/88.0.4324.146 Safari/537.36","v1-up-stims","","","","","","","","-80,-70,-60,-50,-40","media/audio/stims/spherical_300cm_s20_c20_cd-full_matched_a-50.wav","spherical","20","20","full","matched","-50","-70","1889"
"echo-presentation","98","982659","0.0-98.0","5eedec89a08bcd222d7c447c","5fef55e628823a0076ec12ee","60200e1630f3af57b4580a48","Mozilla/5.0 (Windows NT 10.0; Win64; x64) AppleWebKit/537.36 (KHTML, like Gecko) Chrome/88.0.4324.146 Safari/537.36","v1-up-stims","","","","","","","","-80,-70,-60,-50,-40","media/audio/stims/spherical_300cm_s20_c20_cd-full_matched_a-40.wav","spherical","20","20","full","matched","-40","-60","2459"
"echo-presentation","99","986508","0.0-99.0","5eedec89a08bcd222d7c447c","5fef55e628823a0076ec12ee","60200e1630f3af57b4580a48","Mozilla/5.0 (Windows NT 10.0; Win64; x64) AppleWebKit/537.36 (KHTML, like Gecko) Chrome/88.0.4324.146 Safari/537.36","v1-up-stims","","","","","","","","-80,-70,-60,-50,-40","media/audio/stims/spherical_300cm_s20_c20_cd-full_matched_a-70.wav","spherical","20","20","full","matched","-70","-80","2822"
"echo-presentation","100","989291","0.0-100.0","5eedec89a08bcd222d7c447c","5fef55e628823a0076ec12ee","60200e1630f3af57b4580a48","Mozilla/5.0 (Windows NT 10.0; Win64; x64) AppleWebKit/537.36 (KHTML, like Gecko) Chrome/88.0.4324.146 Safari/537.36","v1-up-stims","","","","","","","","-80,-70,-60,-50,-40","media/audio/stims/spherical_300cm_s20_c20_cd-full_matched_a-60.wav","spherical","20","20","full","matched","-60","-80","1501"
"echo-presentation","101","991500","0.0-101.0","5eedec89a08bcd222d7c447c","5fef55e628823a0076ec12ee","60200e1630f3af57b4580a48","Mozilla/5.0 (Windows NT 10.0; Win64; x64) AppleWebKit/537.36 (KHTML, like Gecko) Chrome/88.0.4324.146 Safari/537.36","v1-up-stims","","","","","","","","-80,-70,-60,-50,-40","media/audio/stims/spherical_300cm_s20_c20_cd-full_matched_a-70.wav","spherical","20","20","full","matched","-70","-60","1418"
"echo-presentation","102","993998","0.0-102.0","5eedec89a08bcd222d7c447c","5fef55e628823a0076ec12ee","60200e1630f3af57b4580a48","Mozilla/5.0 (Windows NT 10.0; Win64; x64) AppleWebKit/537.36 (KHTML, like Gecko) Chrome/88.0.4324.146 Safari/537.36","v1-up-stims","","","","","","","","-80,-70,-60,-50,-40","media/audio/stims/spherical_300cm_s20_c20_cd-full_matched_a-80.wav","spherical","20","20","full","matched","-80","-50","1563"
"echo-presentation","103","996859","0.0-103.0","5eedec89a08bcd222d7c447c","5fef55e628823a0076ec12ee","60200e1630f3af57b4580a48","Mozilla/5.0 (Windows NT 10.0; Win64; x64) AppleWebKit/537.36 (KHTML, like Gecko) Chrome/88.0.4324.146 Safari/537.36","v1-up-stims","","","","","","","","-80,-70,-60,-50,-40","media/audio/stims/spherical_300cm_s20_c20_cd-full_matched_a-40.wav","spherical","20","20","full","matched","-40","-60","1612"
"echo-presentation","104","999384","0.0-104.0","5eedec89a08bcd222d7c447c","5fef55e628823a0076ec12ee","60200e1630f3af57b4580a48","Mozilla/5.0 (Windows NT 10.0; Win64; x64) AppleWebKit/537.36 (KHTML, like Gecko) Chrome/88.0.4324.146 Safari/537.36","v1-up-stims","","","","","","","","-80,-70,-60,-50,-40","media/audio/stims/spherical_300cm_s20_c20_cd-full_matched_a-60.wav","spherical","20","20","full","matched","-60","-60","1544"
"echo-presentation","105","1002192","0.0-105.0","5eedec89a08bcd222d7c447c","5fef55e628823a0076ec12ee","60200e1630f3af57b4580a48","Mozilla/5.0 (Windows NT 10.0; Win64; x64) AppleWebKit/537.36 (KHTML, like Gecko) Chrome/88.0.4324.146 Safari/537.36","v1-up-stims","","","","","","","","-80,-70,-60,-50,-40","media/audio/stims/spherical_300cm_s20_c20_cd-full_matched_a-80.wav","spherical","20","20","full","matched","-80","-60","1662"
"echo-presentation","106","1004851","0.0-106.0","5eedec89a08bcd222d7c447c","5fef55e628823a0076ec12ee","60200e1630f3af57b4580a48","Mozilla/5.0 (Windows NT 10.0; Win64; x64) AppleWebKit/537.36 (KHTML, like Gecko) Chrome/88.0.4324.146 Safari/537.36","v1-up-stims","","","","","","","","-80,-70,-60,-50,-40","media/audio/stims/spherical_300cm_s20_c20_cd-full_matched_a-70.wav","spherical","20","20","full","matched","-70","-50","1514"
"echo-presentation","107","1007365","0.0-107.0","5eedec89a08bcd222d7c447c","5fef55e628823a0076ec12ee","60200e1630f3af57b4580a48","Mozilla/5.0 (Windows NT 10.0; Win64; x64) AppleWebKit/537.36 (KHTML, like Gecko) Chrome/88.0.4324.146 Safari/537.36","v1-up-stims","","","","","","","","-80,-70,-60,-50,-40","media/audio/stims/spherical_300cm_s20_c20_cd-full_matched_a-70.wav","spherical","20","20","full","matched","-70","-70","1283"
"echo-presentation","108","1009547","0.0-108.0","5eedec89a08bcd222d7c447c","5fef55e628823a0076ec12ee","60200e1630f3af57b4580a48","Mozilla/5.0 (Windows NT 10.0; Win64; x64) AppleWebKit/537.36 (KHTML, like Gecko) Chrome/88.0.4324.146 Safari/537.36","v1-up-stims","","","","","","","","-80,-70,-60,-50,-40","media/audio/stims/spherical_300cm_s20_c20_cd-full_matched_a-50.wav","spherical","20","20","full","matched","-50","-80","1098"
"echo-presentation","109","1013765","0.0-109.0","5eedec89a08bcd222d7c447c","5fef55e628823a0076ec12ee","60200e1630f3af57b4580a48","Mozilla/5.0 (Windows NT 10.0; Win64; x64) AppleWebKit/537.36 (KHTML, like Gecko) Chrome/88.0.4324.146 Safari/537.36","v1-up-stims","","","","","","","","-80,-70,-60,-50,-40","media/audio/stims/spherical_300cm_s20_c20_cd-full_matched_a-60.wav","spherical","20","20","full","matched","-60","-70","2496"
"echo-presentation","110","1017782","0.0-110.0","5eedec89a08bcd222d7c447c","5fef55e628823a0076ec12ee","60200e1630f3af57b4580a48","Mozilla/5.0 (Windows NT 10.0; Win64; x64) AppleWebKit/537.36 (KHTML, like Gecko) Chrome/88.0.4324.146 Safari/537.36","v1-up-stims","","","","","","","","-80,-70,-60,-50,-40","media/audio/stims/spherical_300cm_s20_c20_cd-full_matched_a-80.wav","spherical","20","20","full","matched","-80","-60","2127"
"echo-presentation","111","1020411","0.0-111.0","5eedec89a08bcd222d7c447c","5fef55e628823a0076ec12ee","60200e1630f3af57b4580a48","Mozilla/5.0 (Windows NT 10.0; Win64; x64) AppleWebKit/537.36 (KHTML, like Gecko) Chrome/88.0.4324.146 Safari/537.36","v1-up-stims","","","","","","","","-80,-70,-60,-50,-40","media/audio/stims/spherical_300cm_s20_c20_cd-full_matched_a-40.wav","spherical","20","20","full","matched","-40","-70","1460"
"echo-presentation","112","1023488","0.0-112.0","5eedec89a08bcd222d7c447c","5fef55e628823a0076ec12ee","60200e1630f3af57b4580a48","Mozilla/5.0 (Windows NT 10.0; Win64; x64) AppleWebKit/537.36 (KHTML, like Gecko) Chrome/88.0.4324.146 Safari/537.36","v1-up-stims","","","","","","","","-80,-70,-60,-50,-40","media/audio/stims/spherical_300cm_s20_c20_cd-full_matched_a-50.wav","spherical","20","20","full","matched","-50","-80","1204"
"echo-presentation","113","1026915","0.0-113.0","5eedec89a08bcd222d7c447c","5fef55e628823a0076ec12ee","60200e1630f3af57b4580a48","Mozilla/5.0 (Windows NT 10.0; Win64; x64) AppleWebKit/537.36 (KHTML, like Gecko) Chrome/88.0.4324.146 Safari/537.36","v1-up-stims","","","","","","","","-80,-70,-60,-50,-40","media/audio/stims/spherical_300cm_s20_c20_cd-full_matched_a-80.wav","spherical","20","20","full","matched","-80","-70","1367"
"echo-presentation","114","1029587","0.0-114.0","5eedec89a08bcd222d7c447c","5fef55e628823a0076ec12ee","60200e1630f3af57b4580a48","Mozilla/5.0 (Windows NT 10.0; Win64; x64) AppleWebKit/537.36 (KHTML, like Gecko) Chrome/88.0.4324.146 Safari/537.36","v1-up-stims","","","","","","","","-80,-70,-60,-50,-40","media/audio/stims/spherical_300cm_s20_c20_cd-full_matched_a-60.wav","spherical","20","20","full","matched","-60","-60","1239"
"echo-presentation","115","1032380","0.0-115.0","5eedec89a08bcd222d7c447c","5fef55e628823a0076ec12ee","60200e1630f3af57b4580a48","Mozilla/5.0 (Windows NT 10.0; Win64; x64) AppleWebKit/537.36 (KHTML, like Gecko) Chrome/88.0.4324.146 Safari/537.36","v1-up-stims","","","","","","","","-80,-70,-60,-50,-40","media/audio/stims/spherical_300cm_s20_c20_cd-full_matched_a-40.wav","spherical","20","20","full","matched","-40","-80","1195"
"block-bookend","116","1042502","0.0-116.0","5eedec89a08bcd222d7c447c","5fef55e628823a0076ec12ee","60200e1630f3af57b4580a48","Mozilla/5.0 (Windows NT 10.0; Win64; x64) AppleWebKit/537.36 (KHTML, like Gecko) Chrome/88.0.4324.146 Safari/537.36","v1-up-stims","","","","","","","","","","","","","","","","",""
"block-bookend","117","1048177","0.0-117.0","5eedec89a08bcd222d7c447c","5fef55e628823a0076ec12ee","60200e1630f3af57b4580a48","Mozilla/5.0 (Windows NT 10.0; Win64; x64) AppleWebKit/537.36 (KHTML, like Gecko) Chrome/88.0.4324.146 Safari/537.36","v1-up-stims","","","","","","","","","","","","","","","","",""
"echo-presentation","118","1055889","0.0-118.0","5eedec89a08bcd222d7c447c","5fef55e628823a0076ec12ee","60200e1630f3af57b4580a48","Mozilla/5.0 (Windows NT 10.0; Win64; x64) AppleWebKit/537.36 (KHTML, like Gecko) Chrome/88.0.4324.146 Safari/537.36","v1-up-stims","","","","","","","","-80,-70,-60,-50,-40","media/audio/stims/spherical_300cm_s20_c20_cd-full_matched_a-80.wav","spherical","20","20","full","matched","-80","-40","2624"
"echo-presentation","119","1059550","0.0-119.0","5eedec89a08bcd222d7c447c","5fef55e628823a0076ec12ee","60200e1630f3af57b4580a48","Mozilla/5.0 (Windows NT 10.0; Win64; x64) AppleWebKit/537.36 (KHTML, like Gecko) Chrome/88.0.4324.146 Safari/537.36","v1-up-stims","","","","","","","","-80,-70,-60,-50,-40","media/audio/stims/spherical_300cm_s20_c20_cd-full_matched_a-60.wav","spherical","20","20","full","matched","-60","-50","2152"
"echo-presentation","120","1064447","0.0-120.0","5eedec89a08bcd222d7c447c","5fef55e628823a0076ec12ee","60200e1630f3af57b4580a48","Mozilla/5.0 (Windows NT 10.0; Win64; x64) AppleWebKit/537.36 (KHTML, like Gecko) Chrome/88.0.4324.146 Safari/537.36","v1-up-stims","","","","","","","","-80,-70,-60,-50,-40","media/audio/stims/spherical_300cm_s20_c20_cd-full_matched_a-80.wav","spherical","20","20","full","matched","-80","-40","3130"
"echo-presentation","121","1067138","0.0-121.0","5eedec89a08bcd222d7c447c","5fef55e628823a0076ec12ee","60200e1630f3af57b4580a48","Mozilla/5.0 (Windows NT 10.0; Win64; x64) AppleWebKit/537.36 (KHTML, like Gecko) Chrome/88.0.4324.146 Safari/537.36","v1-up-stims","","","","","","","","-80,-70,-60,-50,-40","media/audio/stims/spherical_300cm_s20_c20_cd-full_matched_a-40.wav","spherical","20","20","full","matched","-40","-80","1249"
"echo-presentation","122","1069727","0.0-122.0","5eedec89a08bcd222d7c447c","5fef55e628823a0076ec12ee","60200e1630f3af57b4580a48","Mozilla/5.0 (Windows NT 10.0; Win64; x64) AppleWebKit/537.36 (KHTML, like Gecko) Chrome/88.0.4324.146 Safari/537.36","v1-up-stims","","","","","","","","-80,-70,-60,-50,-40","media/audio/stims/spherical_300cm_s20_c20_cd-full_matched_a-60.wav","spherical","20","20","full","matched","-60","-60","1415"
"echo-presentation","123","1072710","0.0-123.0","5eedec89a08bcd222d7c447c","5fef55e628823a0076ec12ee","60200e1630f3af57b4580a48","Mozilla/5.0 (Windows NT 10.0; Win64; x64) AppleWebKit/537.36 (KHTML, like Gecko) Chrome/88.0.4324.146 Safari/537.36","v1-up-stims","","","","","","","","-80,-70,-60,-50,-40","media/audio/stims/spherical_300cm_s20_c20_cd-full_matched_a-70.wav","spherical","20","20","full","matched","-70","-70","1939"
"echo-presentation","124","1075784","0.0-124.0","5eedec89a08bcd222d7c447c","5fef55e628823a0076ec12ee","60200e1630f3af57b4580a48","Mozilla/5.0 (Windows NT 10.0; Win64; x64) AppleWebKit/537.36 (KHTML, like Gecko) Chrome/88.0.4324.146 Safari/537.36","v1-up-stims","","","","","","","","-80,-70,-60,-50,-40","media/audio/stims/spherical_300cm_s20_c20_cd-full_matched_a-80.wav","spherical","20","20","full","matched","-80","-50","1926"
"echo-presentation","125","1078732","0.0-125.0","5eedec89a08bcd222d7c447c","5fef55e628823a0076ec12ee","60200e1630f3af57b4580a48","Mozilla/5.0 (Windows NT 10.0; Win64; x64) AppleWebKit/537.36 (KHTML, like Gecko) Chrome/88.0.4324.146 Safari/537.36","v1-up-stims","","","","","","","","-80,-70,-60,-50,-40","media/audio/stims/spherical_300cm_s20_c20_cd-full_matched_a-50.wav","spherical","20","20","full","matched","-50","-80","1472"
"echo-presentation","126","1081001","0.0-126.0","5eedec89a08bcd222d7c447c","5fef55e628823a0076ec12ee","60200e1630f3af57b4580a48","Mozilla/5.0 (Windows NT 10.0; Win64; x64) AppleWebKit/537.36 (KHTML, like Gecko) Chrome/88.0.4324.146 Safari/537.36","v1-up-stims","","","","","","","","-80,-70,-60,-50,-40","media/audio/stims/spherical_300cm_s20_c20_cd-full_matched_a-60.wav","spherical","20","20","full","matched","-60","-70","1242"
"echo-presentation","127","1083886","0.0-127.0","5eedec89a08bcd222d7c447c","5fef55e628823a0076ec12ee","60200e1630f3af57b4580a48","Mozilla/5.0 (Windows NT 10.0; Win64; x64) AppleWebKit/537.36 (KHTML, like Gecko) Chrome/88.0.4324.146 Safari/537.36","v1-up-stims","","","","","","","","-80,-70,-60,-50,-40","media/audio/stims/spherical_300cm_s20_c20_cd-full_matched_a-40.wav","spherical","20","20","full","matched","-40","-60","1442"
"echo-presentation","128","1087302","0.0-128.0","5eedec89a08bcd222d7c447c","5fef55e628823a0076ec12ee","60200e1630f3af57b4580a48","Mozilla/5.0 (Windows NT 10.0; Win64; x64) AppleWebKit/537.36 (KHTML, like Gecko) Chrome/88.0.4324.146 Safari/537.36","v1-up-stims","","","","","","","","-80,-70,-60,-50,-40","media/audio/stims/spherical_300cm_s20_c20_cd-full_matched_a-80.wav","spherical","20","20","full","matched","-80","-60","2332"
"echo-presentation","129","1090189","0.0-129.0","5eedec89a08bcd222d7c447c","5fef55e628823a0076ec12ee","60200e1630f3af57b4580a48","Mozilla/5.0 (Windows NT 10.0; Win64; x64) AppleWebKit/537.36 (KHTML, like Gecko) Chrome/88.0.4324.146 Safari/537.36","v1-up-stims","","","","","","","","-80,-70,-60,-50,-40","media/audio/stims/spherical_300cm_s20_c20_cd-full_matched_a-60.wav","spherical","20","20","full","matched","-60","-60","2011"
"echo-presentation","130","1093766","0.0-130.0","5eedec89a08bcd222d7c447c","5fef55e628823a0076ec12ee","60200e1630f3af57b4580a48","Mozilla/5.0 (Windows NT 10.0; Win64; x64) AppleWebKit/537.36 (KHTML, like Gecko) Chrome/88.0.4324.146 Safari/537.36","v1-up-stims","","","","","","","","-80,-70,-60,-50,-40","media/audio/stims/spherical_300cm_s20_c20_cd-full_matched_a-70.wav","spherical","20","20","full","matched","-70","-40","1887"
"echo-presentation","131","1099022","0.0-131.0","5eedec89a08bcd222d7c447c","5fef55e628823a0076ec12ee","60200e1630f3af57b4580a48","Mozilla/5.0 (Windows NT 10.0; Win64; x64) AppleWebKit/537.36 (KHTML, like Gecko) Chrome/88.0.4324.146 Safari/537.36","v1-up-stims","","","","","","","","-80,-70,-60,-50,-40","media/audio/stims/spherical_300cm_s20_c20_cd-full_matched_a-50.wav","spherical","20","20","full","matched","-50","-60","4085"
"echo-presentation","132","1101161","0.0-132.0","5eedec89a08bcd222d7c447c","5fef55e628823a0076ec12ee","60200e1630f3af57b4580a48","Mozilla/5.0 (Windows NT 10.0; Win64; x64) AppleWebKit/537.36 (KHTML, like Gecko) Chrome/88.0.4324.146 Safari/537.36","v1-up-stims","","","","","","","","-80,-70,-60,-50,-40","media/audio/stims/spherical_300cm_s20_c20_cd-full_matched_a-50.wav","spherical","20","20","full","matched","-50","-40","1154"
"echo-presentation","133","1104514","0.0-133.0","5eedec89a08bcd222d7c447c","5fef55e628823a0076ec12ee","60200e1630f3af57b4580a48","Mozilla/5.0 (Windows NT 10.0; Win64; x64) AppleWebKit/537.36 (KHTML, like Gecko) Chrome/88.0.4324.146 Safari/537.36","v1-up-stims","","","","","","","","-80,-70,-60,-50,-40","media/audio/stims/spherical_300cm_s20_c20_cd-full_matched_a-40.wav","spherical","20","20","full","matched","-40","-40","2292"
"echo-presentation","134","1108320","0.0-134.0","5eedec89a08bcd222d7c447c","5fef55e628823a0076ec12ee","60200e1630f3af57b4580a48","Mozilla/5.0 (Windows NT 10.0; Win64; x64) AppleWebKit/537.36 (KHTML, like Gecko) Chrome/88.0.4324.146 Safari/537.36","v1-up-stims","","","","","","","","-80,-70,-60,-50,-40","media/audio/stims/spherical_300cm_s20_c20_cd-full_matched_a-50.wav","spherical","20","20","full","matched","-50","-60","2869"
"echo-presentation","135","1110730","0.0-135.0","5eedec89a08bcd222d7c447c","5fef55e628823a0076ec12ee","60200e1630f3af57b4580a48","Mozilla/5.0 (Windows NT 10.0; Win64; x64) AppleWebKit/537.36 (KHTML, like Gecko) Chrome/88.0.4324.146 Safari/537.36","v1-up-stims","","","","","","","","-80,-70,-60,-50,-40","media/audio/stims/spherical_300cm_s20_c20_cd-full_matched_a-40.wav","spherical","20","20","full","matched","-40","-50","1506"
"echo-presentation","136","1113679","0.0-136.0","5eedec89a08bcd222d7c447c","5fef55e628823a0076ec12ee","60200e1630f3af57b4580a48","Mozilla/5.0 (Windows NT 10.0; Win64; x64) AppleWebKit/537.36 (KHTML, like Gecko) Chrome/88.0.4324.146 Safari/537.36","v1-up-stims","","","","","","","","-80,-70,-60,-50,-40","media/audio/stims/spherical_300cm_s20_c20_cd-full_matched_a-70.wav","spherical","20","20","full","matched","-70","-70","1843"
"echo-presentation","137","1116258","0.0-137.0","5eedec89a08bcd222d7c447c","5fef55e628823a0076ec12ee","60200e1630f3af57b4580a48","Mozilla/5.0 (Windows NT 10.0; Win64; x64) AppleWebKit/537.36 (KHTML, like Gecko) Chrome/88.0.4324.146 Safari/537.36","v1-up-stims","","","","","","","","-80,-70,-60,-50,-40","media/audio/stims/spherical_300cm_s20_c20_cd-full_matched_a-70.wav","spherical","20","20","full","matched","-70","-70","1656"
"block-bookend","138","1117302","0.0-138.0","5eedec89a08bcd222d7c447c","5fef55e628823a0076ec12ee","60200e1630f3af57b4580a48","Mozilla/5.0 (Windows NT 10.0; Win64; x64) AppleWebKit/537.36 (KHTML, like Gecko) Chrome/88.0.4324.146 Safari/537.36","v1-up-stims","","","","","","","","","","","","","","","","",""
