"trial_type","trial_index","time_elapsed","internal_node_id","prolificPid","studyId","sessionId","userAgent","version","rt","stimulus","key_press","chosenKeyset","failureCount","testIndex","globalVolume","choices","filename","modelName","slowdown","compensation","compensationDescriptor","receiverOrientationType","azimuth","responseAzimuth","responseDelay"
"pavlovia","0","3","0.0-0.0","5f99dc8aa866bf0bf2d60f46","5fef55e628823a0076ec12ee","602014db8bce735864f10eb9","Mozilla/5.0 (Windows NT 10.0; Win64; x64) AppleWebKit/537.36 (KHTML, like Gecko) Chrome/88.0.4324.146 Safari/537.36","v1-up-stims","","","","","","","","","","","","","","","","",""
"html-keyboard-response","1","1215","0.0-1.0","5f99dc8aa866bf0bf2d60f46","5fef55e628823a0076ec12ee","602014db8bce735864f10eb9","Mozilla/5.0 (Windows NT 10.0; Win64; x64) AppleWebKit/537.36 (KHTML, like Gecko) Chrome/88.0.4324.146 Safari/537.36","v1-up-stims","1211.1450000084005","<div><h1>Welcome!</h1><p>Press any key to continue.</p></div>","77","","","","","","","","","","","","","",""
"consent-form","2","5003","0.0-2.0","5f99dc8aa866bf0bf2d60f46","5fef55e628823a0076ec12ee","602014db8bce735864f10eb9","Mozilla/5.0 (Windows NT 10.0; Win64; x64) AppleWebKit/537.36 (KHTML, like Gecko) Chrome/88.0.4324.146 Safari/537.36","v1-up-stims","","","","","","","","","","","","","","","","",""
"keyset-select","3","6498","0.0-3.0","5f99dc8aa866bf0bf2d60f46","5fef55e628823a0076ec12ee","602014db8bce735864f10eb9","Mozilla/5.0 (Windows NT 10.0; Win64; x64) AppleWebKit/537.36 (KHTML, like Gecko) Chrome/88.0.4324.146 Safari/537.36","v1-up-stims","","","","left-hand","","","","","","","","","","","","",""
"headphone-check","4","40285","0.0-4.0","5f99dc8aa866bf0bf2d60f46","5fef55e628823a0076ec12ee","602014db8bce735864f10eb9","Mozilla/5.0 (Windows NT 10.0; Win64; x64) AppleWebKit/537.36 (KHTML, like Gecko) Chrome/88.0.4324.146 Safari/537.36","v1-up-stims","","","","","0","6","0.3","","","","","","","","","",""
"headphone-backwards-check","5","46899","0.0-5.0","5f99dc8aa866bf0bf2d60f46","5fef55e628823a0076ec12ee","602014db8bce735864f10eb9","Mozilla/5.0 (Windows NT 10.0; Win64; x64) AppleWebKit/537.36 (KHTML, like Gecko) Chrome/88.0.4324.146 Safari/537.36","v1-up-stims","","","","","0","","","","","","","","","","","",""
"training","6","178892","0.0-6.0","5f99dc8aa866bf0bf2d60f46","5fef55e628823a0076ec12ee","602014db8bce735864f10eb9","Mozilla/5.0 (Windows NT 10.0; Win64; x64) AppleWebKit/537.36 (KHTML, like Gecko) Chrome/88.0.4324.146 Safari/537.36","v1-up-stims","","","","","","","","","","","","","","","","",""
"block-bookend","7","227796","0.0-7.0","5f99dc8aa866bf0bf2d60f46","5fef55e628823a0076ec12ee","602014db8bce735864f10eb9","Mozilla/5.0 (Windows NT 10.0; Win64; x64) AppleWebKit/537.36 (KHTML, like Gecko) Chrome/88.0.4324.146 Safari/537.36","v1-up-stims","","","","","","","","","","","","","","","","",""
"echo-presentation","8","234233","0.0-8.0","5f99dc8aa866bf0bf2d60f46","5fef55e628823a0076ec12ee","602014db8bce735864f10eb9","Mozilla/5.0 (Windows NT 10.0; Win64; x64) AppleWebKit/537.36 (KHTML, like Gecko) Chrome/88.0.4324.146 Safari/537.36","v1-up-stims","","","","","","","","40,50,60,70,80","media/audio/stims/spherical_300cm_s20_c20_cd-full_matched_a80.wav","spherical","20","20","full","matched","80","50","3707"
"echo-presentation","9","237871","0.0-9.0","5f99dc8aa866bf0bf2d60f46","5fef55e628823a0076ec12ee","602014db8bce735864f10eb9","Mozilla/5.0 (Windows NT 10.0; Win64; x64) AppleWebKit/537.36 (KHTML, like Gecko) Chrome/88.0.4324.146 Safari/537.36","v1-up-stims","","","","","","","","40,50,60,70,80","media/audio/stims/spherical_300cm_s20_c20_cd-full_matched_a60.wav","spherical","20","20","full","matched","60","50","1898"
"echo-presentation","10","241448","0.0-10.0","5f99dc8aa866bf0bf2d60f46","5fef55e628823a0076ec12ee","602014db8bce735864f10eb9","Mozilla/5.0 (Windows NT 10.0; Win64; x64) AppleWebKit/537.36 (KHTML, like Gecko) Chrome/88.0.4324.146 Safari/537.36","v1-up-stims","","","","","","","","40,50,60,70,80","media/audio/stims/spherical_300cm_s20_c20_cd-full_matched_a70.wav","spherical","20","20","full","matched","70","40","2326"
"echo-presentation","11","244619","0.0-11.0","5f99dc8aa866bf0bf2d60f46","5fef55e628823a0076ec12ee","602014db8bce735864f10eb9","Mozilla/5.0 (Windows NT 10.0; Win64; x64) AppleWebKit/537.36 (KHTML, like Gecko) Chrome/88.0.4324.146 Safari/537.36","v1-up-stims","","","","","","","","40,50,60,70,80","media/audio/stims/spherical_300cm_s20_c20_cd-full_matched_a50.wav","spherical","20","20","full","matched","50","60","1944"
"echo-presentation","12","247380","0.0-12.0","5f99dc8aa866bf0bf2d60f46","5fef55e628823a0076ec12ee","602014db8bce735864f10eb9","Mozilla/5.0 (Windows NT 10.0; Win64; x64) AppleWebKit/537.36 (KHTML, like Gecko) Chrome/88.0.4324.146 Safari/537.36","v1-up-stims","","","","","","","","40,50,60,70,80","media/audio/stims/spherical_300cm_s20_c20_cd-full_matched_a40.wav","spherical","20","20","full","matched","40","80","1577"
"echo-presentation","13","251271","0.0-13.0","5f99dc8aa866bf0bf2d60f46","5fef55e628823a0076ec12ee","602014db8bce735864f10eb9","Mozilla/5.0 (Windows NT 10.0; Win64; x64) AppleWebKit/537.36 (KHTML, like Gecko) Chrome/88.0.4324.146 Safari/537.36","v1-up-stims","","","","","","","","40,50,60,70,80","media/audio/stims/spherical_300cm_s20_c20_cd-full_matched_a80.wav","spherical","20","20","full","matched","80","80","2739"
"echo-presentation","14","253859","0.0-14.0","5f99dc8aa866bf0bf2d60f46","5fef55e628823a0076ec12ee","602014db8bce735864f10eb9","Mozilla/5.0 (Windows NT 10.0; Win64; x64) AppleWebKit/537.36 (KHTML, like Gecko) Chrome/88.0.4324.146 Safari/537.36","v1-up-stims","","","","","","","","40,50,60,70,80","media/audio/stims/spherical_300cm_s20_c20_cd-full_matched_a60.wav","spherical","20","20","full","matched","60","70","1567"
"echo-presentation","15","256184","0.0-15.0","5f99dc8aa866bf0bf2d60f46","5fef55e628823a0076ec12ee","602014db8bce735864f10eb9","Mozilla/5.0 (Windows NT 10.0; Win64; x64) AppleWebKit/537.36 (KHTML, like Gecko) Chrome/88.0.4324.146 Safari/537.36","v1-up-stims","","","","","","","","40,50,60,70,80","media/audio/stims/spherical_300cm_s20_c20_cd-full_matched_a80.wav","spherical","20","20","full","matched","80","80","1277"
"echo-presentation","16","258594","0.0-16.0","5f99dc8aa866bf0bf2d60f46","5fef55e628823a0076ec12ee","602014db8bce735864f10eb9","Mozilla/5.0 (Windows NT 10.0; Win64; x64) AppleWebKit/537.36 (KHTML, like Gecko) Chrome/88.0.4324.146 Safari/537.36","v1-up-stims","","","","","","","","40,50,60,70,80","media/audio/stims/spherical_300cm_s20_c20_cd-full_matched_a40.wav","spherical","20","20","full","matched","40","50","1370"
"echo-presentation","17","261261","0.0-17.0","5f99dc8aa866bf0bf2d60f46","5fef55e628823a0076ec12ee","602014db8bce735864f10eb9","Mozilla/5.0 (Windows NT 10.0; Win64; x64) AppleWebKit/537.36 (KHTML, like Gecko) Chrome/88.0.4324.146 Safari/537.36","v1-up-stims","","","","","","","","40,50,60,70,80","media/audio/stims/spherical_300cm_s20_c20_cd-full_matched_a70.wav","spherical","20","20","full","matched","70","70","1608"
"echo-presentation","18","264128","0.0-18.0","5f99dc8aa866bf0bf2d60f46","5fef55e628823a0076ec12ee","602014db8bce735864f10eb9","Mozilla/5.0 (Windows NT 10.0; Win64; x64) AppleWebKit/537.36 (KHTML, like Gecko) Chrome/88.0.4324.146 Safari/537.36","v1-up-stims","","","","","","","","40,50,60,70,80","media/audio/stims/spherical_300cm_s20_c20_cd-full_matched_a40.wav","spherical","20","20","full","matched","40","70","1790"
"echo-presentation","19","267133","0.0-19.0","5f99dc8aa866bf0bf2d60f46","5fef55e628823a0076ec12ee","602014db8bce735864f10eb9","Mozilla/5.0 (Windows NT 10.0; Win64; x64) AppleWebKit/537.36 (KHTML, like Gecko) Chrome/88.0.4324.146 Safari/537.36","v1-up-stims","","","","","","","","40,50,60,70,80","media/audio/stims/spherical_300cm_s20_c20_cd-full_matched_a80.wav","spherical","20","20","full","matched","80","80","1981"
"echo-presentation","20","269786","0.0-20.0","5f99dc8aa866bf0bf2d60f46","5fef55e628823a0076ec12ee","602014db8bce735864f10eb9","Mozilla/5.0 (Windows NT 10.0; Win64; x64) AppleWebKit/537.36 (KHTML, like Gecko) Chrome/88.0.4324.146 Safari/537.36","v1-up-stims","","","","","","","","40,50,60,70,80","media/audio/stims/spherical_300cm_s20_c20_cd-full_matched_a50.wav","spherical","20","20","full","matched","50","70","1589"
"echo-presentation","21","272215","0.0-21.0","5f99dc8aa866bf0bf2d60f46","5fef55e628823a0076ec12ee","602014db8bce735864f10eb9","Mozilla/5.0 (Windows NT 10.0; Win64; x64) AppleWebKit/537.36 (KHTML, like Gecko) Chrome/88.0.4324.146 Safari/537.36","v1-up-stims","","","","","","","","40,50,60,70,80","media/audio/stims/spherical_300cm_s20_c20_cd-full_matched_a50.wav","spherical","20","20","full","matched","50","50","1287"
"echo-presentation","22","275319","0.0-22.0","5f99dc8aa866bf0bf2d60f46","5fef55e628823a0076ec12ee","602014db8bce735864f10eb9","Mozilla/5.0 (Windows NT 10.0; Win64; x64) AppleWebKit/537.36 (KHTML, like Gecko) Chrome/88.0.4324.146 Safari/537.36","v1-up-stims","","","","","","","","40,50,60,70,80","media/audio/stims/spherical_300cm_s20_c20_cd-full_matched_a50.wav","spherical","20","20","full","matched","50","60","1320"
"echo-presentation","23","277644","0.0-23.0","5f99dc8aa866bf0bf2d60f46","5fef55e628823a0076ec12ee","602014db8bce735864f10eb9","Mozilla/5.0 (Windows NT 10.0; Win64; x64) AppleWebKit/537.36 (KHTML, like Gecko) Chrome/88.0.4324.146 Safari/537.36","v1-up-stims","","","","","","","","40,50,60,70,80","media/audio/stims/spherical_300cm_s20_c20_cd-full_matched_a70.wav","spherical","20","20","full","matched","70","80","1168"
"echo-presentation","24","280255","0.0-24.0","5f99dc8aa866bf0bf2d60f46","5fef55e628823a0076ec12ee","602014db8bce735864f10eb9","Mozilla/5.0 (Windows NT 10.0; Win64; x64) AppleWebKit/537.36 (KHTML, like Gecko) Chrome/88.0.4324.146 Safari/537.36","v1-up-stims","","","","","","","","40,50,60,70,80","media/audio/stims/spherical_300cm_s20_c20_cd-full_matched_a40.wav","spherical","20","20","full","matched","40","60","1447"
"echo-presentation","25","282593","0.0-25.0","5f99dc8aa866bf0bf2d60f46","5fef55e628823a0076ec12ee","602014db8bce735864f10eb9","Mozilla/5.0 (Windows NT 10.0; Win64; x64) AppleWebKit/537.36 (KHTML, like Gecko) Chrome/88.0.4324.146 Safari/537.36","v1-up-stims","","","","","","","","40,50,60,70,80","media/audio/stims/spherical_300cm_s20_c20_cd-full_matched_a60.wav","spherical","20","20","full","matched","60","70","1208"
"echo-presentation","26","285018","0.0-26.0","5f99dc8aa866bf0bf2d60f46","5fef55e628823a0076ec12ee","602014db8bce735864f10eb9","Mozilla/5.0 (Windows NT 10.0; Win64; x64) AppleWebKit/537.36 (KHTML, like Gecko) Chrome/88.0.4324.146 Safari/537.36","v1-up-stims","","","","","","","","40,50,60,70,80","media/audio/stims/spherical_300cm_s20_c20_cd-full_matched_a60.wav","spherical","20","20","full","matched","60","70","1408"
"echo-presentation","27","287339","0.0-27.0","5f99dc8aa866bf0bf2d60f46","5fef55e628823a0076ec12ee","602014db8bce735864f10eb9","Mozilla/5.0 (Windows NT 10.0; Win64; x64) AppleWebKit/537.36 (KHTML, like Gecko) Chrome/88.0.4324.146 Safari/537.36","v1-up-stims","","","","","","","","40,50,60,70,80","media/audio/stims/spherical_300cm_s20_c20_cd-full_matched_a70.wav","spherical","20","20","full","matched","70","80","1375"
"block-bookend","28","292051","0.0-28.0","5f99dc8aa866bf0bf2d60f46","5fef55e628823a0076ec12ee","602014db8bce735864f10eb9","Mozilla/5.0 (Windows NT 10.0; Win64; x64) AppleWebKit/537.36 (KHTML, like Gecko) Chrome/88.0.4324.146 Safari/537.36","v1-up-stims","","","","","","","","","","","","","","","","",""
"block-bookend","29","303428","0.0-29.0","5f99dc8aa866bf0bf2d60f46","5fef55e628823a0076ec12ee","602014db8bce735864f10eb9","Mozilla/5.0 (Windows NT 10.0; Win64; x64) AppleWebKit/537.36 (KHTML, like Gecko) Chrome/88.0.4324.146 Safari/537.36","v1-up-stims","","","","","","","","","","","","","","","","",""
"echo-presentation","30","306923","0.0-30.0","5f99dc8aa866bf0bf2d60f46","5fef55e628823a0076ec12ee","602014db8bce735864f10eb9","Mozilla/5.0 (Windows NT 10.0; Win64; x64) AppleWebKit/537.36 (KHTML, like Gecko) Chrome/88.0.4324.146 Safari/537.36","v1-up-stims","","","","","","","","40,50,60,70,80","media/audio/stims/spherical_300cm_s20_c20_cd-full_matched_a70.wav","spherical","20","20","full","matched","70","70","2176"
"echo-presentation","31","310085","0.0-31.0","5f99dc8aa866bf0bf2d60f46","5fef55e628823a0076ec12ee","602014db8bce735864f10eb9","Mozilla/5.0 (Windows NT 10.0; Win64; x64) AppleWebKit/537.36 (KHTML, like Gecko) Chrome/88.0.4324.146 Safari/537.36","v1-up-stims","","","","","","","","40,50,60,70,80","media/audio/stims/spherical_300cm_s20_c20_cd-full_matched_a50.wav","spherical","20","20","full","matched","50","50","1912"
"echo-presentation","32","312159","0.0-32.0","5f99dc8aa866bf0bf2d60f46","5fef55e628823a0076ec12ee","602014db8bce735864f10eb9","Mozilla/5.0 (Windows NT 10.0; Win64; x64) AppleWebKit/537.36 (KHTML, like Gecko) Chrome/88.0.4324.146 Safari/537.36","v1-up-stims","","","","","","","","40,50,60,70,80","media/audio/stims/spherical_300cm_s20_c20_cd-full_matched_a40.wav","spherical","20","20","full","matched","40","70","1132"
"echo-presentation","33","315026","0.0-33.0","5f99dc8aa866bf0bf2d60f46","5fef55e628823a0076ec12ee","602014db8bce735864f10eb9","Mozilla/5.0 (Windows NT 10.0; Win64; x64) AppleWebKit/537.36 (KHTML, like Gecko) Chrome/88.0.4324.146 Safari/537.36","v1-up-stims","","","","","","","","40,50,60,70,80","media/audio/stims/spherical_300cm_s20_c20_cd-full_matched_a40.wav","spherical","20","20","full","matched","40","50","1878"
"echo-presentation","34","317202","0.0-34.0","5f99dc8aa866bf0bf2d60f46","5fef55e628823a0076ec12ee","602014db8bce735864f10eb9","Mozilla/5.0 (Windows NT 10.0; Win64; x64) AppleWebKit/537.36 (KHTML, like Gecko) Chrome/88.0.4324.146 Safari/537.36","v1-up-stims","","","","","","","","40,50,60,70,80","media/audio/stims/spherical_300cm_s20_c20_cd-full_matched_a80.wav","spherical","20","20","full","matched","80","70","1219"
"echo-presentation","35","319398","0.0-35.0","5f99dc8aa866bf0bf2d60f46","5fef55e628823a0076ec12ee","602014db8bce735864f10eb9","Mozilla/5.0 (Windows NT 10.0; Win64; x64) AppleWebKit/537.36 (KHTML, like Gecko) Chrome/88.0.4324.146 Safari/537.36","v1-up-stims","","","","","","","","40,50,60,70,80","media/audio/stims/spherical_300cm_s20_c20_cd-full_matched_a60.wav","spherical","20","20","full","matched","60","60","1135"
"echo-presentation","36","321597","0.0-36.0","5f99dc8aa866bf0bf2d60f46","5fef55e628823a0076ec12ee","602014db8bce735864f10eb9","Mozilla/5.0 (Windows NT 10.0; Win64; x64) AppleWebKit/537.36 (KHTML, like Gecko) Chrome/88.0.4324.146 Safari/537.36","v1-up-stims","","","","","","","","40,50,60,70,80","media/audio/stims/spherical_300cm_s20_c20_cd-full_matched_a60.wav","spherical","20","20","full","matched","60","70","1098"
"echo-presentation","37","323987","0.0-37.0","5f99dc8aa866bf0bf2d60f46","5fef55e628823a0076ec12ee","602014db8bce735864f10eb9","Mozilla/5.0 (Windows NT 10.0; Win64; x64) AppleWebKit/537.36 (KHTML, like Gecko) Chrome/88.0.4324.146 Safari/537.36","v1-up-stims","","","","","","","","40,50,60,70,80","media/audio/stims/spherical_300cm_s20_c20_cd-full_matched_a80.wav","spherical","20","20","full","matched","80","80","1330"
"echo-presentation","38","325964","0.0-38.0","5f99dc8aa866bf0bf2d60f46","5fef55e628823a0076ec12ee","602014db8bce735864f10eb9","Mozilla/5.0 (Windows NT 10.0; Win64; x64) AppleWebKit/537.36 (KHTML, like Gecko) Chrome/88.0.4324.146 Safari/537.36","v1-up-stims","","","","","","","","40,50,60,70,80","media/audio/stims/spherical_300cm_s20_c20_cd-full_matched_a80.wav","spherical","20","20","full","matched","80","80","1042"
"echo-presentation","39","327954","0.0-39.0","5f99dc8aa866bf0bf2d60f46","5fef55e628823a0076ec12ee","602014db8bce735864f10eb9","Mozilla/5.0 (Windows NT 10.0; Win64; x64) AppleWebKit/537.36 (KHTML, like Gecko) Chrome/88.0.4324.146 Safari/537.36","v1-up-stims","","","","","","","","40,50,60,70,80","media/audio/stims/spherical_300cm_s20_c20_cd-full_matched_a70.wav","spherical","20","20","full","matched","70","80","1026"
"echo-presentation","40","330634","0.0-40.0","5f99dc8aa866bf0bf2d60f46","5fef55e628823a0076ec12ee","602014db8bce735864f10eb9","Mozilla/5.0 (Windows NT 10.0; Win64; x64) AppleWebKit/537.36 (KHTML, like Gecko) Chrome/88.0.4324.146 Safari/537.36","v1-up-stims","","","","","","","","40,50,60,70,80","media/audio/stims/spherical_300cm_s20_c20_cd-full_matched_a50.wav","spherical","20","20","full","matched","50","70","1670"
"echo-presentation","41","332615","0.0-41.0","5f99dc8aa866bf0bf2d60f46","5fef55e628823a0076ec12ee","602014db8bce735864f10eb9","Mozilla/5.0 (Windows NT 10.0; Win64; x64) AppleWebKit/537.36 (KHTML, like Gecko) Chrome/88.0.4324.146 Safari/537.36","v1-up-stims","","","","","","","","40,50,60,70,80","media/audio/stims/spherical_300cm_s20_c20_cd-full_matched_a60.wav","spherical","20","20","full","matched","60","70","1039"
"echo-presentation","42","334863","0.0-42.0","5f99dc8aa866bf0bf2d60f46","5fef55e628823a0076ec12ee","602014db8bce735864f10eb9","Mozilla/5.0 (Windows NT 10.0; Win64; x64) AppleWebKit/537.36 (KHTML, like Gecko) Chrome/88.0.4324.146 Safari/537.36","v1-up-stims","","","","","","","","40,50,60,70,80","media/audio/stims/spherical_300cm_s20_c20_cd-full_matched_a40.wav","spherical","20","20","full","matched","40","80","1251"
"echo-presentation","43","336892","0.0-43.0","5f99dc8aa866bf0bf2d60f46","5fef55e628823a0076ec12ee","602014db8bce735864f10eb9","Mozilla/5.0 (Windows NT 10.0; Win64; x64) AppleWebKit/537.36 (KHTML, like Gecko) Chrome/88.0.4324.146 Safari/537.36","v1-up-stims","","","","","","","","40,50,60,70,80","media/audio/stims/spherical_300cm_s20_c20_cd-full_matched_a50.wav","spherical","20","20","full","matched","50","80","1083"
"echo-presentation","44","340240","0.0-44.0","5f99dc8aa866bf0bf2d60f46","5fef55e628823a0076ec12ee","602014db8bce735864f10eb9","Mozilla/5.0 (Windows NT 10.0; Win64; x64) AppleWebKit/537.36 (KHTML, like Gecko) Chrome/88.0.4324.146 Safari/537.36","v1-up-stims","","","","","","","","40,50,60,70,80","media/audio/stims/spherical_300cm_s20_c20_cd-full_matched_a40.wav","spherical","20","20","full","matched","40","60","2275"
"echo-presentation","45","342285","0.0-45.0","5f99dc8aa866bf0bf2d60f46","5fef55e628823a0076ec12ee","602014db8bce735864f10eb9","Mozilla/5.0 (Windows NT 10.0; Win64; x64) AppleWebKit/537.36 (KHTML, like Gecko) Chrome/88.0.4324.146 Safari/537.36","v1-up-stims","","","","","","","","40,50,60,70,80","media/audio/stims/spherical_300cm_s20_c20_cd-full_matched_a70.wav","spherical","20","20","full","matched","70","80","1099"
"echo-presentation","46","345195","0.0-46.0","5f99dc8aa866bf0bf2d60f46","5fef55e628823a0076ec12ee","602014db8bce735864f10eb9","Mozilla/5.0 (Windows NT 10.0; Win64; x64) AppleWebKit/537.36 (KHTML, like Gecko) Chrome/88.0.4324.146 Safari/537.36","v1-up-stims","","","","","","","","40,50,60,70,80","media/audio/stims/spherical_300cm_s20_c20_cd-full_matched_a50.wav","spherical","20","20","full","matched","50","50","1796"
"echo-presentation","47","347353","0.0-47.0","5f99dc8aa866bf0bf2d60f46","5fef55e628823a0076ec12ee","602014db8bce735864f10eb9","Mozilla/5.0 (Windows NT 10.0; Win64; x64) AppleWebKit/537.36 (KHTML, like Gecko) Chrome/88.0.4324.146 Safari/537.36","v1-up-stims","","","","","","","","40,50,60,70,80","media/audio/stims/spherical_300cm_s20_c20_cd-full_matched_a80.wav","spherical","20","20","full","matched","80","70","1263"
"echo-presentation","48","349711","0.0-48.0","5f99dc8aa866bf0bf2d60f46","5fef55e628823a0076ec12ee","602014db8bce735864f10eb9","Mozilla/5.0 (Windows NT 10.0; Win64; x64) AppleWebKit/537.36 (KHTML, like Gecko) Chrome/88.0.4324.146 Safari/537.36","v1-up-stims","","","","","","","","40,50,60,70,80","media/audio/stims/spherical_300cm_s20_c20_cd-full_matched_a70.wav","spherical","20","20","full","matched","70","70","1130"
"echo-presentation","49","352062","0.0-49.0","5f99dc8aa866bf0bf2d60f46","5fef55e628823a0076ec12ee","602014db8bce735864f10eb9","Mozilla/5.0 (Windows NT 10.0; Win64; x64) AppleWebKit/537.36 (KHTML, like Gecko) Chrome/88.0.4324.146 Safari/537.36","v1-up-stims","","","","","","","","40,50,60,70,80","media/audio/stims/spherical_300cm_s20_c20_cd-full_matched_a60.wav","spherical","20","20","full","matched","60","70","1227"
"block-bookend","50","352754","0.0-50.0","5f99dc8aa866bf0bf2d60f46","5fef55e628823a0076ec12ee","602014db8bce735864f10eb9","Mozilla/5.0 (Windows NT 10.0; Win64; x64) AppleWebKit/537.36 (KHTML, like Gecko) Chrome/88.0.4324.146 Safari/537.36","v1-up-stims","","","","","","","","","","","","","","","","",""
"block-bookend","51","360187","0.0-51.0","5f99dc8aa866bf0bf2d60f46","5fef55e628823a0076ec12ee","602014db8bce735864f10eb9","Mozilla/5.0 (Windows NT 10.0; Win64; x64) AppleWebKit/537.36 (KHTML, like Gecko) Chrome/88.0.4324.146 Safari/537.36","v1-up-stims","","","","","","","","","","","","","","","","",""
"echo-presentation","52","367118","0.0-52.0","5f99dc8aa866bf0bf2d60f46","5fef55e628823a0076ec12ee","602014db8bce735864f10eb9","Mozilla/5.0 (Windows NT 10.0; Win64; x64) AppleWebKit/537.36 (KHTML, like Gecko) Chrome/88.0.4324.146 Safari/537.36","v1-up-stims","","","","","","","","-80,-70,-60,-50,-40","media/audio/stims/spherical_300cm_s20_c20_cd-full_matched_a-60.wav","spherical","20","20","full","matched","-60","-80","3977"
"echo-presentation","53","369308","0.0-53.0","5f99dc8aa866bf0bf2d60f46","5fef55e628823a0076ec12ee","602014db8bce735864f10eb9","Mozilla/5.0 (Windows NT 10.0; Win64; x64) AppleWebKit/537.36 (KHTML, like Gecko) Chrome/88.0.4324.146 Safari/537.36","v1-up-stims","","","","","","","","-80,-70,-60,-50,-40","media/audio/stims/spherical_300cm_s20_c20_cd-full_matched_a-70.wav","spherical","20","20","full","matched","-70","-80","1103"
"echo-presentation","54","371785","0.0-54.0","5f99dc8aa866bf0bf2d60f46","5fef55e628823a0076ec12ee","602014db8bce735864f10eb9","Mozilla/5.0 (Windows NT 10.0; Win64; x64) AppleWebKit/537.36 (KHTML, like Gecko) Chrome/88.0.4324.146 Safari/537.36","v1-up-stims","","","","","","","","-80,-70,-60,-50,-40","media/audio/stims/spherical_300cm_s20_c20_cd-full_matched_a-60.wav","spherical","20","20","full","matched","-60","-60","1459"
"echo-presentation","55","374143","0.0-55.0","5f99dc8aa866bf0bf2d60f46","5fef55e628823a0076ec12ee","602014db8bce735864f10eb9","Mozilla/5.0 (Windows NT 10.0; Win64; x64) AppleWebKit/537.36 (KHTML, like Gecko) Chrome/88.0.4324.146 Safari/537.36","v1-up-stims","","","","","","","","-80,-70,-60,-50,-40","media/audio/stims/spherical_300cm_s20_c20_cd-full_matched_a-70.wav","spherical","20","20","full","matched","-70","-70","1419"
"echo-presentation","56","376096","0.0-56.0","5f99dc8aa866bf0bf2d60f46","5fef55e628823a0076ec12ee","602014db8bce735864f10eb9","Mozilla/5.0 (Windows NT 10.0; Win64; x64) AppleWebKit/537.36 (KHTML, like Gecko) Chrome/88.0.4324.146 Safari/537.36","v1-up-stims","","","","","","","","-80,-70,-60,-50,-40","media/audio/stims/spherical_300cm_s20_c20_cd-full_matched_a-40.wav","spherical","20","20","full","matched","-40","-50","1079"
"echo-presentation","57","378306","0.0-57.0","5f99dc8aa866bf0bf2d60f46","5fef55e628823a0076ec12ee","602014db8bce735864f10eb9","Mozilla/5.0 (Windows NT 10.0; Win64; x64) AppleWebKit/537.36 (KHTML, like Gecko) Chrome/88.0.4324.146 Safari/537.36","v1-up-stims","","","","","","","","-80,-70,-60,-50,-40","media/audio/stims/spherical_300cm_s20_c20_cd-full_matched_a-70.wav","spherical","20","20","full","matched","-70","-60","1186"
"echo-presentation","58","380680","0.0-58.0","5f99dc8aa866bf0bf2d60f46","5fef55e628823a0076ec12ee","602014db8bce735864f10eb9","Mozilla/5.0 (Windows NT 10.0; Win64; x64) AppleWebKit/537.36 (KHTML, like Gecko) Chrome/88.0.4324.146 Safari/537.36","v1-up-stims","","","","","","","","-80,-70,-60,-50,-40","media/audio/stims/spherical_300cm_s20_c20_cd-full_matched_a-80.wav","spherical","20","20","full","matched","-80","-70","1501"
"echo-presentation","59","382602","0.0-59.0","5f99dc8aa866bf0bf2d60f46","5fef55e628823a0076ec12ee","602014db8bce735864f10eb9","Mozilla/5.0 (Windows NT 10.0; Win64; x64) AppleWebKit/537.36 (KHTML, like Gecko) Chrome/88.0.4324.146 Safari/537.36","v1-up-stims","","","","","","","","-80,-70,-60,-50,-40","media/audio/stims/spherical_300cm_s20_c20_cd-full_matched_a-80.wav","spherical","20","20","full","matched","-80","-80","1009"
"echo-presentation","60","384523","0.0-60.0","5f99dc8aa866bf0bf2d60f46","5fef55e628823a0076ec12ee","602014db8bce735864f10eb9","Mozilla/5.0 (Windows NT 10.0; Win64; x64) AppleWebKit/537.36 (KHTML, like Gecko) Chrome/88.0.4324.146 Safari/537.36","v1-up-stims","","","","","","","","-80,-70,-60,-50,-40","media/audio/stims/spherical_300cm_s20_c20_cd-full_matched_a-50.wav","spherical","20","20","full","matched","-50","-40","1063"
"echo-presentation","61","386678","0.0-61.0","5f99dc8aa866bf0bf2d60f46","5fef55e628823a0076ec12ee","602014db8bce735864f10eb9","Mozilla/5.0 (Windows NT 10.0; Win64; x64) AppleWebKit/537.36 (KHTML, like Gecko) Chrome/88.0.4324.146 Safari/537.36","v1-up-stims","","","","","","","","-80,-70,-60,-50,-40","media/audio/stims/spherical_300cm_s20_c20_cd-full_matched_a-60.wav","spherical","20","20","full","matched","-60","-50","1188"
"echo-presentation","62","388660","0.0-62.0","5f99dc8aa866bf0bf2d60f46","5fef55e628823a0076ec12ee","602014db8bce735864f10eb9","Mozilla/5.0 (Windows NT 10.0; Win64; x64) AppleWebKit/537.36 (KHTML, like Gecko) Chrome/88.0.4324.146 Safari/537.36","v1-up-stims","","","","","","","","-80,-70,-60,-50,-40","media/audio/stims/spherical_300cm_s20_c20_cd-full_matched_a-80.wav","spherical","20","20","full","matched","-80","-70","1112"
"echo-presentation","63","390567","0.0-63.0","5f99dc8aa866bf0bf2d60f46","5fef55e628823a0076ec12ee","602014db8bce735864f10eb9","Mozilla/5.0 (Windows NT 10.0; Win64; x64) AppleWebKit/537.36 (KHTML, like Gecko) Chrome/88.0.4324.146 Safari/537.36","v1-up-stims","","","","","","","","-80,-70,-60,-50,-40","media/audio/stims/spherical_300cm_s20_c20_cd-full_matched_a-50.wav","spherical","20","20","full","matched","-50","-50","1107"
"echo-presentation","64","392834","0.0-64.0","5f99dc8aa866bf0bf2d60f46","5fef55e628823a0076ec12ee","602014db8bce735864f10eb9","Mozilla/5.0 (Windows NT 10.0; Win64; x64) AppleWebKit/537.36 (KHTML, like Gecko) Chrome/88.0.4324.146 Safari/537.36","v1-up-stims","","","","","","","","-80,-70,-60,-50,-40","media/audio/stims/spherical_300cm_s20_c20_cd-full_matched_a-60.wav","spherical","20","20","full","matched","-60","-50","1393"
"echo-presentation","65","394987","0.0-65.0","5f99dc8aa866bf0bf2d60f46","5fef55e628823a0076ec12ee","602014db8bce735864f10eb9","Mozilla/5.0 (Windows NT 10.0; Win64; x64) AppleWebKit/537.36 (KHTML, like Gecko) Chrome/88.0.4324.146 Safari/537.36","v1-up-stims","","","","","","","","-80,-70,-60,-50,-40","media/audio/stims/spherical_300cm_s20_c20_cd-full_matched_a-40.wav","spherical","20","20","full","matched","-40","-50","1364"
"echo-presentation","66","397071","0.0-66.0","5f99dc8aa866bf0bf2d60f46","5fef55e628823a0076ec12ee","602014db8bce735864f10eb9","Mozilla/5.0 (Windows NT 10.0; Win64; x64) AppleWebKit/537.36 (KHTML, like Gecko) Chrome/88.0.4324.146 Safari/537.36","v1-up-stims","","","","","","","","-80,-70,-60,-50,-40","media/audio/stims/spherical_300cm_s20_c20_cd-full_matched_a-50.wav","spherical","20","20","full","matched","-50","-40","1266"
"echo-presentation","67","399492","0.0-67.0","5f99dc8aa866bf0bf2d60f46","5fef55e628823a0076ec12ee","602014db8bce735864f10eb9","Mozilla/5.0 (Windows NT 10.0; Win64; x64) AppleWebKit/537.36 (KHTML, like Gecko) Chrome/88.0.4324.146 Safari/537.36","v1-up-stims","","","","","","","","-80,-70,-60,-50,-40","media/audio/stims/spherical_300cm_s20_c20_cd-full_matched_a-40.wav","spherical","20","20","full","matched","-40","-40","1597"
"echo-presentation","68","401401","0.0-68.0","5f99dc8aa866bf0bf2d60f46","5fef55e628823a0076ec12ee","602014db8bce735864f10eb9","Mozilla/5.0 (Windows NT 10.0; Win64; x64) AppleWebKit/537.36 (KHTML, like Gecko) Chrome/88.0.4324.146 Safari/537.36","v1-up-stims","","","","","","","","-80,-70,-60,-50,-40","media/audio/stims/spherical_300cm_s20_c20_cd-full_matched_a-80.wav","spherical","20","20","full","matched","-80","-70","1066"
"echo-presentation","69","403481","0.0-69.0","5f99dc8aa866bf0bf2d60f46","5fef55e628823a0076ec12ee","602014db8bce735864f10eb9","Mozilla/5.0 (Windows NT 10.0; Win64; x64) AppleWebKit/537.36 (KHTML, like Gecko) Chrome/88.0.4324.146 Safari/537.36","v1-up-stims","","","","","","","","-80,-70,-60,-50,-40","media/audio/stims/spherical_300cm_s20_c20_cd-full_matched_a-50.wav","spherical","20","20","full","matched","-50","-50","1180"
"echo-presentation","70","405574","0.0-70.0","5f99dc8aa866bf0bf2d60f46","5fef55e628823a0076ec12ee","602014db8bce735864f10eb9","Mozilla/5.0 (Windows NT 10.0; Win64; x64) AppleWebKit/537.36 (KHTML, like Gecko) Chrome/88.0.4324.146 Safari/537.36","v1-up-stims","","","","","","","","-80,-70,-60,-50,-40","media/audio/stims/spherical_300cm_s20_c20_cd-full_matched_a-40.wav","spherical","20","20","full","matched","-40","-50","1075"
"echo-presentation","71","407803","0.0-71.0","5f99dc8aa866bf0bf2d60f46","5fef55e628823a0076ec12ee","602014db8bce735864f10eb9","Mozilla/5.0 (Windows NT 10.0; Win64; x64) AppleWebKit/537.36 (KHTML, like Gecko) Chrome/88.0.4324.146 Safari/537.36","v1-up-stims","","","","","","","","-80,-70,-60,-50,-40","media/audio/stims/spherical_300cm_s20_c20_cd-full_matched_a-70.wav","spherical","20","20","full","matched","-70","-70","1097"
"block-bookend","72","408843","0.0-72.0","5f99dc8aa866bf0bf2d60f46","5fef55e628823a0076ec12ee","602014db8bce735864f10eb9","Mozilla/5.0 (Windows NT 10.0; Win64; x64) AppleWebKit/537.36 (KHTML, like Gecko) Chrome/88.0.4324.146 Safari/537.36","v1-up-stims","","","","","","","","","","","","","","","","",""
"block-bookend","73","415531","0.0-73.0","5f99dc8aa866bf0bf2d60f46","5fef55e628823a0076ec12ee","602014db8bce735864f10eb9","Mozilla/5.0 (Windows NT 10.0; Win64; x64) AppleWebKit/537.36 (KHTML, like Gecko) Chrome/88.0.4324.146 Safari/537.36","v1-up-stims","","","","","","","","","","","","","","","","",""
"echo-presentation","74","417605","0.0-74.0","5f99dc8aa866bf0bf2d60f46","5fef55e628823a0076ec12ee","602014db8bce735864f10eb9","Mozilla/5.0 (Windows NT 10.0; Win64; x64) AppleWebKit/537.36 (KHTML, like Gecko) Chrome/88.0.4324.146 Safari/537.36","v1-up-stims","","","","","","","","-80,-70,-60,-50,-40","media/audio/stims/spherical_300cm_s20_c20_cd-full_matched_a-80.wav","spherical","20","20","full","matched","-80","-80","1130"
"echo-presentation","75","419680","0.0-75.0","5f99dc8aa866bf0bf2d60f46","5fef55e628823a0076ec12ee","602014db8bce735864f10eb9","Mozilla/5.0 (Windows NT 10.0; Win64; x64) AppleWebKit/537.36 (KHTML, like Gecko) Chrome/88.0.4324.146 Safari/537.36","v1-up-stims","","","","","","","","-80,-70,-60,-50,-40","media/audio/stims/spherical_300cm_s20_c20_cd-full_matched_a-70.wav","spherical","20","20","full","matched","-70","-80","1234"
"echo-presentation","76","421674","0.0-76.0","5f99dc8aa866bf0bf2d60f46","5fef55e628823a0076ec12ee","602014db8bce735864f10eb9","Mozilla/5.0 (Windows NT 10.0; Win64; x64) AppleWebKit/537.36 (KHTML, like Gecko) Chrome/88.0.4324.146 Safari/537.36","v1-up-stims","","","","","","","","-80,-70,-60,-50,-40","media/audio/stims/spherical_300cm_s20_c20_cd-full_matched_a-40.wav","spherical","20","20","full","matched","-40","-60","1153"
"echo-presentation","77","423644","0.0-77.0","5f99dc8aa866bf0bf2d60f46","5fef55e628823a0076ec12ee","602014db8bce735864f10eb9","Mozilla/5.0 (Windows NT 10.0; Win64; x64) AppleWebKit/537.36 (KHTML, like Gecko) Chrome/88.0.4324.146 Safari/537.36","v1-up-stims","","","","","","","","-80,-70,-60,-50,-40","media/audio/stims/spherical_300cm_s20_c20_cd-full_matched_a-60.wav","spherical","20","20","full","matched","-60","-60","1075"
"echo-presentation","78","426815","0.0-78.0","5f99dc8aa866bf0bf2d60f46","5fef55e628823a0076ec12ee","602014db8bce735864f10eb9","Mozilla/5.0 (Windows NT 10.0; Win64; x64) AppleWebKit/537.36 (KHTML, like Gecko) Chrome/88.0.4324.146 Safari/537.36","v1-up-stims","","","","","","","","-80,-70,-60,-50,-40","media/audio/stims/spherical_300cm_s20_c20_cd-full_matched_a-80.wav","spherical","20","20","full","matched","-80","-70","2106"
"echo-presentation","79","429118","0.0-79.0","5f99dc8aa866bf0bf2d60f46","5fef55e628823a0076ec12ee","602014db8bce735864f10eb9","Mozilla/5.0 (Windows NT 10.0; Win64; x64) AppleWebKit/537.36 (KHTML, like Gecko) Chrome/88.0.4324.146 Safari/537.36","v1-up-stims","","","","","","","","-80,-70,-60,-50,-40","media/audio/stims/spherical_300cm_s20_c20_cd-full_matched_a-60.wav","spherical","20","20","full","matched","-60","-60","1659"
"echo-presentation","80","431073","0.0-80.0","5f99dc8aa866bf0bf2d60f46","5fef55e628823a0076ec12ee","602014db8bce735864f10eb9","Mozilla/5.0 (Windows NT 10.0; Win64; x64) AppleWebKit/537.36 (KHTML, like Gecko) Chrome/88.0.4324.146 Safari/537.36","v1-up-stims","","","","","","","","-80,-70,-60,-50,-40","media/audio/stims/spherical_300cm_s20_c20_cd-full_matched_a-70.wav","spherical","20","20","full","matched","-70","-70","1217"
"echo-presentation","81","433044","0.0-81.0","5f99dc8aa866bf0bf2d60f46","5fef55e628823a0076ec12ee","602014db8bce735864f10eb9","Mozilla/5.0 (Windows NT 10.0; Win64; x64) AppleWebKit/537.36 (KHTML, like Gecko) Chrome/88.0.4324.146 Safari/537.36","v1-up-stims","","","","","","","","-80,-70,-60,-50,-40","media/audio/stims/spherical_300cm_s20_c20_cd-full_matched_a-60.wav","spherical","20","20","full","matched","-60","-60","1166"
"echo-presentation","82","435016","0.0-82.0","5f99dc8aa866bf0bf2d60f46","5fef55e628823a0076ec12ee","602014db8bce735864f10eb9","Mozilla/5.0 (Windows NT 10.0; Win64; x64) AppleWebKit/537.36 (KHTML, like Gecko) Chrome/88.0.4324.146 Safari/537.36","v1-up-stims","","","","","","","","-80,-70,-60,-50,-40","media/audio/stims/spherical_300cm_s20_c20_cd-full_matched_a-50.wav","spherical","20","20","full","matched","-50","-50","1158"
"echo-presentation","83","437131","0.0-83.0","5f99dc8aa866bf0bf2d60f46","5fef55e628823a0076ec12ee","602014db8bce735864f10eb9","Mozilla/5.0 (Windows NT 10.0; Win64; x64) AppleWebKit/537.36 (KHTML, like Gecko) Chrome/88.0.4324.146 Safari/537.36","v1-up-stims","","","","","","","","-80,-70,-60,-50,-40","media/audio/stims/spherical_300cm_s20_c20_cd-full_matched_a-70.wav","spherical","20","20","full","matched","-70","-70","1314"
"echo-presentation","84","439009","0.0-84.0","5f99dc8aa866bf0bf2d60f46","5fef55e628823a0076ec12ee","602014db8bce735864f10eb9","Mozilla/5.0 (Windows NT 10.0; Win64; x64) AppleWebKit/537.36 (KHTML, like Gecko) Chrome/88.0.4324.146 Safari/537.36","v1-up-stims","","","","","","","","-80,-70,-60,-50,-40","media/audio/stims/spherical_300cm_s20_c20_cd-full_matched_a-40.wav","spherical","20","20","full","matched","-40","-50","1096"
"echo-presentation","85","441330","0.0-85.0","5f99dc8aa866bf0bf2d60f46","5fef55e628823a0076ec12ee","602014db8bce735864f10eb9","Mozilla/5.0 (Windows NT 10.0; Win64; x64) AppleWebKit/537.36 (KHTML, like Gecko) Chrome/88.0.4324.146 Safari/537.36","v1-up-stims","","","","","","","","-80,-70,-60,-50,-40","media/audio/stims/spherical_300cm_s20_c20_cd-full_matched_a-40.wav","spherical","20","20","full","matched","-40","-50","1428"
"echo-presentation","86","443286","0.0-86.0","5f99dc8aa866bf0bf2d60f46","5fef55e628823a0076ec12ee","602014db8bce735864f10eb9","Mozilla/5.0 (Windows NT 10.0; Win64; x64) AppleWebKit/537.36 (KHTML, like Gecko) Chrome/88.0.4324.146 Safari/537.36","v1-up-stims","","","","","","","","-80,-70,-60,-50,-40","media/audio/stims/spherical_300cm_s20_c20_cd-full_matched_a-70.wav","spherical","20","20","full","matched","-70","-60","1241"
"echo-presentation","87","445080","0.0-87.0","5f99dc8aa866bf0bf2d60f46","5fef55e628823a0076ec12ee","602014db8bce735864f10eb9","Mozilla/5.0 (Windows NT 10.0; Win64; x64) AppleWebKit/537.36 (KHTML, like Gecko) Chrome/88.0.4324.146 Safari/537.36","v1-up-stims","","","","","","","","-80,-70,-60,-50,-40","media/audio/stims/spherical_300cm_s20_c20_cd-full_matched_a-80.wav","spherical","20","20","full","matched","-80","-70","1051"
"echo-presentation","88","446955","0.0-88.0","5f99dc8aa866bf0bf2d60f46","5fef55e628823a0076ec12ee","602014db8bce735864f10eb9","Mozilla/5.0 (Windows NT 10.0; Win64; x64) AppleWebKit/537.36 (KHTML, like Gecko) Chrome/88.0.4324.146 Safari/537.36","v1-up-stims","","","","","","","","-80,-70,-60,-50,-40","media/audio/stims/spherical_300cm_s20_c20_cd-full_matched_a-50.wav","spherical","20","20","full","matched","-50","-60","1129"
"echo-presentation","89","449040","0.0-89.0","5f99dc8aa866bf0bf2d60f46","5fef55e628823a0076ec12ee","602014db8bce735864f10eb9","Mozilla/5.0 (Windows NT 10.0; Win64; x64) AppleWebKit/537.36 (KHTML, like Gecko) Chrome/88.0.4324.146 Safari/537.36","v1-up-stims","","","","","","","","-80,-70,-60,-50,-40","media/audio/stims/spherical_300cm_s20_c20_cd-full_matched_a-40.wav","spherical","20","20","full","matched","-40","-50","1274"
"echo-presentation","90","451302","0.0-90.0","5f99dc8aa866bf0bf2d60f46","5fef55e628823a0076ec12ee","602014db8bce735864f10eb9","Mozilla/5.0 (Windows NT 10.0; Win64; x64) AppleWebKit/537.36 (KHTML, like Gecko) Chrome/88.0.4324.146 Safari/537.36","v1-up-stims","","","","","","","","-80,-70,-60,-50,-40","media/audio/stims/spherical_300cm_s20_c20_cd-full_matched_a-80.wav","spherical","20","20","full","matched","-80","-60","1506"
"echo-presentation","91","453162","0.0-91.0","5f99dc8aa866bf0bf2d60f46","5fef55e628823a0076ec12ee","602014db8bce735864f10eb9","Mozilla/5.0 (Windows NT 10.0; Win64; x64) AppleWebKit/537.36 (KHTML, like Gecko) Chrome/88.0.4324.146 Safari/537.36","v1-up-stims","","","","","","","","-80,-70,-60,-50,-40","media/audio/stims/spherical_300cm_s20_c20_cd-full_matched_a-50.wav","spherical","20","20","full","matched","-50","-40","1112"
"echo-presentation","92","455048","0.0-92.0","5f99dc8aa866bf0bf2d60f46","5fef55e628823a0076ec12ee","602014db8bce735864f10eb9","Mozilla/5.0 (Windows NT 10.0; Win64; x64) AppleWebKit/537.36 (KHTML, like Gecko) Chrome/88.0.4324.146 Safari/537.36","v1-up-stims","","","","","","","","-80,-70,-60,-50,-40","media/audio/stims/spherical_300cm_s20_c20_cd-full_matched_a-60.wav","spherical","20","20","full","matched","-60","-50","1058"
"echo-presentation","93","457473","0.0-93.0","5f99dc8aa866bf0bf2d60f46","5fef55e628823a0076ec12ee","602014db8bce735864f10eb9","Mozilla/5.0 (Windows NT 10.0; Win64; x64) AppleWebKit/537.36 (KHTML, like Gecko) Chrome/88.0.4324.146 Safari/537.36","v1-up-stims","","","","","","","","-80,-70,-60,-50,-40","media/audio/stims/spherical_300cm_s20_c20_cd-full_matched_a-50.wav","spherical","20","20","full","matched","-50","-60","1529"
"block-bookend","94","458292","0.0-94.0","5f99dc8aa866bf0bf2d60f46","5fef55e628823a0076ec12ee","602014db8bce735864f10eb9","Mozilla/5.0 (Windows NT 10.0; Win64; x64) AppleWebKit/537.36 (KHTML, like Gecko) Chrome/88.0.4324.146 Safari/537.36","v1-up-stims","","","","","","","","","","","","","","","","",""
"block-bookend","95","464875","0.0-95.0","5f99dc8aa866bf0bf2d60f46","5fef55e628823a0076ec12ee","602014db8bce735864f10eb9","Mozilla/5.0 (Windows NT 10.0; Win64; x64) AppleWebKit/537.36 (KHTML, like Gecko) Chrome/88.0.4324.146 Safari/537.36","v1-up-stims","","","","","","","","","","","","","","","","",""
"echo-presentation","96","468760","0.0-96.0","5f99dc8aa866bf0bf2d60f46","5fef55e628823a0076ec12ee","602014db8bce735864f10eb9","Mozilla/5.0 (Windows NT 10.0; Win64; x64) AppleWebKit/537.36 (KHTML, like Gecko) Chrome/88.0.4324.146 Safari/537.36","v1-up-stims","","","","","","","","-20,-10,0,10,20","media/audio/stims/spherical_300cm_s20_c20_cd-full_matched_a-10.wav","spherical","20","20","full","matched","-10","-10","1482"
"echo-presentation","97","471309","0.0-97.0","5f99dc8aa866bf0bf2d60f46","5fef55e628823a0076ec12ee","602014db8bce735864f10eb9","Mozilla/5.0 (Windows NT 10.0; Win64; x64) AppleWebKit/537.36 (KHTML, like Gecko) Chrome/88.0.4324.146 Safari/537.36","v1-up-stims","","","","","","","","-20,-10,0,10,20","media/audio/stims/spherical_300cm_s20_c20_cd-full_matched_a20.wav","spherical","20","20","full","matched","20","10","1392"
"echo-presentation","98","473342","0.0-98.0","5f99dc8aa866bf0bf2d60f46","5fef55e628823a0076ec12ee","602014db8bce735864f10eb9","Mozilla/5.0 (Windows NT 10.0; Win64; x64) AppleWebKit/537.36 (KHTML, like Gecko) Chrome/88.0.4324.146 Safari/537.36","v1-up-stims","","","","","","","","-20,-10,0,10,20","media/audio/stims/spherical_300cm_s20_c20_cd-full_matched_a-20.wav","spherical","20","20","full","matched","-20","-10","1067"
"echo-presentation","99","475444","0.0-99.0","5f99dc8aa866bf0bf2d60f46","5fef55e628823a0076ec12ee","602014db8bce735864f10eb9","Mozilla/5.0 (Windows NT 10.0; Win64; x64) AppleWebKit/537.36 (KHTML, like Gecko) Chrome/88.0.4324.146 Safari/537.36","v1-up-stims","","","","","","","","-20,-10,0,10,20","media/audio/stims/spherical_300cm_s20_c20_cd-full_matched_a10.wav","spherical","20","20","full","matched","10","20","1154"
"echo-presentation","100","477608","0.0-100.0","5f99dc8aa866bf0bf2d60f46","5fef55e628823a0076ec12ee","602014db8bce735864f10eb9","Mozilla/5.0 (Windows NT 10.0; Win64; x64) AppleWebKit/537.36 (KHTML, like Gecko) Chrome/88.0.4324.146 Safari/537.36","v1-up-stims","","","","","","","","-20,-10,0,10,20","media/audio/stims/spherical_300cm_s20_c20_cd-full_matched_a10.wav","spherical","20","20","full","matched","10","20","1254"
"echo-presentation","101","479618","0.0-101.0","5f99dc8aa866bf0bf2d60f46","5fef55e628823a0076ec12ee","602014db8bce735864f10eb9","Mozilla/5.0 (Windows NT 10.0; Win64; x64) AppleWebKit/537.36 (KHTML, like Gecko) Chrome/88.0.4324.146 Safari/537.36","v1-up-stims","","","","","","","","-20,-10,0,10,20","media/audio/stims/spherical_300cm_s20_c20_cd-full_matched_a-10.wav","spherical","20","20","full","matched","-10","-10","1193"
"echo-presentation","102","481522","0.0-102.0","5f99dc8aa866bf0bf2d60f46","5fef55e628823a0076ec12ee","602014db8bce735864f10eb9","Mozilla/5.0 (Windows NT 10.0; Win64; x64) AppleWebKit/537.36 (KHTML, like Gecko) Chrome/88.0.4324.146 Safari/537.36","v1-up-stims","","","","","","","","-20,-10,0,10,20","media/audio/stims/spherical_300cm_s20_c20_cd-full_matched_a20.wav","spherical","20","20","full","matched","20","20","1029"
"echo-presentation","103","483586","0.0-103.0","5f99dc8aa866bf0bf2d60f46","5fef55e628823a0076ec12ee","602014db8bce735864f10eb9","Mozilla/5.0 (Windows NT 10.0; Win64; x64) AppleWebKit/537.36 (KHTML, like Gecko) Chrome/88.0.4324.146 Safari/537.36","v1-up-stims","","","","","","","","-20,-10,0,10,20","media/audio/stims/spherical_300cm_s20_c20_cd-full_matched_a0.wav","spherical","20","20","full","matched","0","10","1217"
"echo-presentation","104","485472","0.0-104.0","5f99dc8aa866bf0bf2d60f46","5fef55e628823a0076ec12ee","602014db8bce735864f10eb9","Mozilla/5.0 (Windows NT 10.0; Win64; x64) AppleWebKit/537.36 (KHTML, like Gecko) Chrome/88.0.4324.146 Safari/537.36","v1-up-stims","","","","","","","","-20,-10,0,10,20","media/audio/stims/spherical_300cm_s20_c20_cd-full_matched_a0.wav","spherical","20","20","full","matched","0","10","1001"
"echo-presentation","105","487704","0.0-105.0","5f99dc8aa866bf0bf2d60f46","5fef55e628823a0076ec12ee","602014db8bce735864f10eb9","Mozilla/5.0 (Windows NT 10.0; Win64; x64) AppleWebKit/537.36 (KHTML, like Gecko) Chrome/88.0.4324.146 Safari/537.36","v1-up-stims","","","","","","","","-20,-10,0,10,20","media/audio/stims/spherical_300cm_s20_c20_cd-full_matched_a-10.wav","spherical","20","20","full","matched","-10","-10","1241"
"echo-presentation","106","489756","0.0-106.0","5f99dc8aa866bf0bf2d60f46","5fef55e628823a0076ec12ee","602014db8bce735864f10eb9","Mozilla/5.0 (Windows NT 10.0; Win64; x64) AppleWebKit/537.36 (KHTML, like Gecko) Chrome/88.0.4324.146 Safari/537.36","v1-up-stims","","","","","","","","-20,-10,0,10,20","media/audio/stims/spherical_300cm_s20_c20_cd-full_matched_a-20.wav","spherical","20","20","full","matched","-20","-10","1135"
"echo-presentation","107","491729","0.0-107.0","5f99dc8aa866bf0bf2d60f46","5fef55e628823a0076ec12ee","602014db8bce735864f10eb9","Mozilla/5.0 (Windows NT 10.0; Win64; x64) AppleWebKit/537.36 (KHTML, like Gecko) Chrome/88.0.4324.146 Safari/537.36","v1-up-stims","","","","","","","","-20,-10,0,10,20","media/audio/stims/spherical_300cm_s20_c20_cd-full_matched_a0.wav","spherical","20","20","full","matched","0","0","1084"
"echo-presentation","108","493732","0.0-108.0","5f99dc8aa866bf0bf2d60f46","5fef55e628823a0076ec12ee","602014db8bce735864f10eb9","Mozilla/5.0 (Windows NT 10.0; Win64; x64) AppleWebKit/537.36 (KHTML, like Gecko) Chrome/88.0.4324.146 Safari/537.36","v1-up-stims","","","","","","","","-20,-10,0,10,20","media/audio/stims/spherical_300cm_s20_c20_cd-full_matched_a10.wav","spherical","20","20","full","matched","10","10","1091"
"echo-presentation","109","495556","0.0-109.0","5f99dc8aa866bf0bf2d60f46","5fef55e628823a0076ec12ee","602014db8bce735864f10eb9","Mozilla/5.0 (Windows NT 10.0; Win64; x64) AppleWebKit/537.36 (KHTML, like Gecko) Chrome/88.0.4324.146 Safari/537.36","v1-up-stims","","","","","","","","-20,-10,0,10,20","media/audio/stims/spherical_300cm_s20_c20_cd-full_matched_a20.wav","spherical","20","20","full","matched","20","20","1010"
"echo-presentation","110","497632","0.0-110.0","5f99dc8aa866bf0bf2d60f46","5fef55e628823a0076ec12ee","602014db8bce735864f10eb9","Mozilla/5.0 (Windows NT 10.0; Win64; x64) AppleWebKit/537.36 (KHTML, like Gecko) Chrome/88.0.4324.146 Safari/537.36","v1-up-stims","","","","","","","","-20,-10,0,10,20","media/audio/stims/spherical_300cm_s20_c20_cd-full_matched_a-10.wav","spherical","20","20","full","matched","-10","-10","1274"
"echo-presentation","111","499849","0.0-111.0","5f99dc8aa866bf0bf2d60f46","5fef55e628823a0076ec12ee","602014db8bce735864f10eb9","Mozilla/5.0 (Windows NT 10.0; Win64; x64) AppleWebKit/537.36 (KHTML, like Gecko) Chrome/88.0.4324.146 Safari/537.36","v1-up-stims","","","","","","","","-20,-10,0,10,20","media/audio/stims/spherical_300cm_s20_c20_cd-full_matched_a-20.wav","spherical","20","20","full","matched","-20","-10","1362"
"echo-presentation","112","501634","0.0-112.0","5f99dc8aa866bf0bf2d60f46","5fef55e628823a0076ec12ee","602014db8bce735864f10eb9","Mozilla/5.0 (Windows NT 10.0; Win64; x64) AppleWebKit/537.36 (KHTML, like Gecko) Chrome/88.0.4324.146 Safari/537.36","v1-up-stims","","","","","","","","-20,-10,0,10,20","media/audio/stims/spherical_300cm_s20_c20_cd-full_matched_a20.wav","spherical","20","20","full","matched","20","10","1105"
"echo-presentation","113","503442","0.0-113.0","5f99dc8aa866bf0bf2d60f46","5fef55e628823a0076ec12ee","602014db8bce735864f10eb9","Mozilla/5.0 (Windows NT 10.0; Win64; x64) AppleWebKit/537.36 (KHTML, like Gecko) Chrome/88.0.4324.146 Safari/537.36","v1-up-stims","","","","","","","","-20,-10,0,10,20","media/audio/stims/spherical_300cm_s20_c20_cd-full_matched_a10.wav","spherical","20","20","full","matched","10","10","1066"
"echo-presentation","114","505577","0.0-114.0","5f99dc8aa866bf0bf2d60f46","5fef55e628823a0076ec12ee","602014db8bce735864f10eb9","Mozilla/5.0 (Windows NT 10.0; Win64; x64) AppleWebKit/537.36 (KHTML, like Gecko) Chrome/88.0.4324.146 Safari/537.36","v1-up-stims","","","","","","","","-20,-10,0,10,20","media/audio/stims/spherical_300cm_s20_c20_cd-full_matched_a-20.wav","spherical","20","20","full","matched","-20","-10","1218"
"echo-presentation","115","507658","0.0-115.0","5f99dc8aa866bf0bf2d60f46","5fef55e628823a0076ec12ee","602014db8bce735864f10eb9","Mozilla/5.0 (Windows NT 10.0; Win64; x64) AppleWebKit/537.36 (KHTML, like Gecko) Chrome/88.0.4324.146 Safari/537.36","v1-up-stims","","","","","","","","-20,-10,0,10,20","media/audio/stims/spherical_300cm_s20_c20_cd-full_matched_a0.wav","spherical","20","20","full","matched","0","10","1210"
"block-bookend","116","508771","0.0-116.0","5f99dc8aa866bf0bf2d60f46","5fef55e628823a0076ec12ee","602014db8bce735864f10eb9","Mozilla/5.0 (Windows NT 10.0; Win64; x64) AppleWebKit/537.36 (KHTML, like Gecko) Chrome/88.0.4324.146 Safari/537.36","v1-up-stims","","","","","","","","","","","","","","","","",""
"block-bookend","117","513172","0.0-117.0","5f99dc8aa866bf0bf2d60f46","5fef55e628823a0076ec12ee","602014db8bce735864f10eb9","Mozilla/5.0 (Windows NT 10.0; Win64; x64) AppleWebKit/537.36 (KHTML, like Gecko) Chrome/88.0.4324.146 Safari/537.36","v1-up-stims","","","","","","","","","","","","","","","","",""
"echo-presentation","118","515038","0.0-118.0","5f99dc8aa866bf0bf2d60f46","5fef55e628823a0076ec12ee","602014db8bce735864f10eb9","Mozilla/5.0 (Windows NT 10.0; Win64; x64) AppleWebKit/537.36 (KHTML, like Gecko) Chrome/88.0.4324.146 Safari/537.36","v1-up-stims","","","","","","","","-20,-10,0,10,20","media/audio/stims/spherical_300cm_s20_c20_cd-full_matched_a10.wav","spherical","20","20","full","matched","10","10","993"
"echo-presentation","119","516927","0.0-119.0","5f99dc8aa866bf0bf2d60f46","5fef55e628823a0076ec12ee","602014db8bce735864f10eb9","Mozilla/5.0 (Windows NT 10.0; Win64; x64) AppleWebKit/537.36 (KHTML, like Gecko) Chrome/88.0.4324.146 Safari/537.36","v1-up-stims","","","","","","","","-20,-10,0,10,20","media/audio/stims/spherical_300cm_s20_c20_cd-full_matched_a10.wav","spherical","20","20","full","matched","10","10","1018"
"echo-presentation","120","519328","0.0-120.0","5f99dc8aa866bf0bf2d60f46","5fef55e628823a0076ec12ee","602014db8bce735864f10eb9","Mozilla/5.0 (Windows NT 10.0; Win64; x64) AppleWebKit/537.36 (KHTML, like Gecko) Chrome/88.0.4324.146 Safari/537.36","v1-up-stims","","","","","","","","-20,-10,0,10,20","media/audio/stims/spherical_300cm_s20_c20_cd-full_matched_a0.wav","spherical","20","20","full","matched","0","10","1521"
"echo-presentation","121","521506","0.0-121.0","5f99dc8aa866bf0bf2d60f46","5fef55e628823a0076ec12ee","602014db8bce735864f10eb9","Mozilla/5.0 (Windows NT 10.0; Win64; x64) AppleWebKit/537.36 (KHTML, like Gecko) Chrome/88.0.4324.146 Safari/537.36","v1-up-stims","","","","","","","","-20,-10,0,10,20","media/audio/stims/spherical_300cm_s20_c20_cd-full_matched_a-20.wav","spherical","20","20","full","matched","-20","-20","1334"
"echo-presentation","122","523233","0.0-122.0","5f99dc8aa866bf0bf2d60f46","5fef55e628823a0076ec12ee","602014db8bce735864f10eb9","Mozilla/5.0 (Windows NT 10.0; Win64; x64) AppleWebKit/537.36 (KHTML, like Gecko) Chrome/88.0.4324.146 Safari/537.36","v1-up-stims","","","","","","","","-20,-10,0,10,20","media/audio/stims/spherical_300cm_s20_c20_cd-full_matched_a-20.wav","spherical","20","20","full","matched","-20","-20","931"
"echo-presentation","123","525206","0.0-123.0","5f99dc8aa866bf0bf2d60f46","5fef55e628823a0076ec12ee","602014db8bce735864f10eb9","Mozilla/5.0 (Windows NT 10.0; Win64; x64) AppleWebKit/537.36 (KHTML, like Gecko) Chrome/88.0.4324.146 Safari/537.36","v1-up-stims","","","","","","","","-20,-10,0,10,20","media/audio/stims/spherical_300cm_s20_c20_cd-full_matched_a20.wav","spherical","20","20","full","matched","20","20","1254"
"echo-presentation","124","526826","0.0-124.0","5f99dc8aa866bf0bf2d60f46","5fef55e628823a0076ec12ee","602014db8bce735864f10eb9","Mozilla/5.0 (Windows NT 10.0; Win64; x64) AppleWebKit/537.36 (KHTML, like Gecko) Chrome/88.0.4324.146 Safari/537.36","v1-up-stims","","","","","","","","-20,-10,0,10,20","media/audio/stims/spherical_300cm_s20_c20_cd-full_matched_a-20.wav","spherical","20","20","full","matched","-20","-20","905"
"echo-presentation","125","528503","0.0-125.0","5f99dc8aa866bf0bf2d60f46","5fef55e628823a0076ec12ee","602014db8bce735864f10eb9","Mozilla/5.0 (Windows NT 10.0; Win64; x64) AppleWebKit/537.36 (KHTML, like Gecko) Chrome/88.0.4324.146 Safari/537.36","v1-up-stims","","","","","","","","-20,-10,0,10,20","media/audio/stims/spherical_300cm_s20_c20_cd-full_matched_a-10.wav","spherical","20","20","full","matched","-10","-10","936"
"echo-presentation","126","530291","0.0-126.0","5f99dc8aa866bf0bf2d60f46","5fef55e628823a0076ec12ee","602014db8bce735864f10eb9","Mozilla/5.0 (Windows NT 10.0; Win64; x64) AppleWebKit/537.36 (KHTML, like Gecko) Chrome/88.0.4324.146 Safari/537.36","v1-up-stims","","","","","","","","-20,-10,0,10,20","media/audio/stims/spherical_300cm_s20_c20_cd-full_matched_a0.wav","spherical","20","20","full","matched","0","10","1011"
"echo-presentation","127","531966","0.0-127.0","5f99dc8aa866bf0bf2d60f46","5fef55e628823a0076ec12ee","602014db8bce735864f10eb9","Mozilla/5.0 (Windows NT 10.0; Win64; x64) AppleWebKit/537.36 (KHTML, like Gecko) Chrome/88.0.4324.146 Safari/537.36","v1-up-stims","","","","","","","","-20,-10,0,10,20","media/audio/stims/spherical_300cm_s20_c20_cd-full_matched_a20.wav","spherical","20","20","full","matched","20","20","953"
"echo-presentation","128","533713","0.0-128.0","5f99dc8aa866bf0bf2d60f46","5fef55e628823a0076ec12ee","602014db8bce735864f10eb9","Mozilla/5.0 (Windows NT 10.0; Win64; x64) AppleWebKit/537.36 (KHTML, like Gecko) Chrome/88.0.4324.146 Safari/537.36","v1-up-stims","","","","","","","","-20,-10,0,10,20","media/audio/stims/spherical_300cm_s20_c20_cd-full_matched_a20.wav","spherical","20","20","full","matched","20","20","970"
"echo-presentation","129","535492","0.0-129.0","5f99dc8aa866bf0bf2d60f46","5fef55e628823a0076ec12ee","602014db8bce735864f10eb9","Mozilla/5.0 (Windows NT 10.0; Win64; x64) AppleWebKit/537.36 (KHTML, like Gecko) Chrome/88.0.4324.146 Safari/537.36","v1-up-stims","","","","","","","","-20,-10,0,10,20","media/audio/stims/spherical_300cm_s20_c20_cd-full_matched_a-10.wav","spherical","20","20","full","matched","-10","-10","984"
"echo-presentation","130","537172","0.0-130.0","5f99dc8aa866bf0bf2d60f46","5fef55e628823a0076ec12ee","602014db8bce735864f10eb9","Mozilla/5.0 (Windows NT 10.0; Win64; x64) AppleWebKit/537.36 (KHTML, like Gecko) Chrome/88.0.4324.146 Safari/537.36","v1-up-stims","","","","","","","","-20,-10,0,10,20","media/audio/stims/spherical_300cm_s20_c20_cd-full_matched_a-10.wav","spherical","20","20","full","matched","-10","-10","1034"
"echo-presentation","131","538945","0.0-131.0","5f99dc8aa866bf0bf2d60f46","5fef55e628823a0076ec12ee","602014db8bce735864f10eb9","Mozilla/5.0 (Windows NT 10.0; Win64; x64) AppleWebKit/537.36 (KHTML, like Gecko) Chrome/88.0.4324.146 Safari/537.36","v1-up-stims","","","","","","","","-20,-10,0,10,20","media/audio/stims/spherical_300cm_s20_c20_cd-full_matched_a-20.wav","spherical","20","20","full","matched","-20","-10","1058"
"echo-presentation","132","540798","0.0-132.0","5f99dc8aa866bf0bf2d60f46","5fef55e628823a0076ec12ee","602014db8bce735864f10eb9","Mozilla/5.0 (Windows NT 10.0; Win64; x64) AppleWebKit/537.36 (KHTML, like Gecko) Chrome/88.0.4324.146 Safari/537.36","v1-up-stims","","","","","","","","-20,-10,0,10,20","media/audio/stims/spherical_300cm_s20_c20_cd-full_matched_a-10.wav","spherical","20","20","full","matched","-10","-10","1014"
"echo-presentation","133","542765","0.0-133.0","5f99dc8aa866bf0bf2d60f46","5fef55e628823a0076ec12ee","602014db8bce735864f10eb9","Mozilla/5.0 (Windows NT 10.0; Win64; x64) AppleWebKit/537.36 (KHTML, like Gecko) Chrome/88.0.4324.146 Safari/537.36","v1-up-stims","","","","","","","","-20,-10,0,10,20","media/audio/stims/spherical_300cm_s20_c20_cd-full_matched_a0.wav","spherical","20","20","full","matched","0","0","1059"
"echo-presentation","134","544552","0.0-134.0","5f99dc8aa866bf0bf2d60f46","5fef55e628823a0076ec12ee","602014db8bce735864f10eb9","Mozilla/5.0 (Windows NT 10.0; Win64; x64) AppleWebKit/537.36 (KHTML, like Gecko) Chrome/88.0.4324.146 Safari/537.36","v1-up-stims","","","","","","","","-20,-10,0,10,20","media/audio/stims/spherical_300cm_s20_c20_cd-full_matched_a10.wav","spherical","20","20","full","matched","10","20","1003"
"echo-presentation","135","546372","0.0-135.0","5f99dc8aa866bf0bf2d60f46","5fef55e628823a0076ec12ee","602014db8bce735864f10eb9","Mozilla/5.0 (Windows NT 10.0; Win64; x64) AppleWebKit/537.36 (KHTML, like Gecko) Chrome/88.0.4324.146 Safari/537.36","v1-up-stims","","","","","","","","-20,-10,0,10,20","media/audio/stims/spherical_300cm_s20_c20_cd-full_matched_a0.wav","spherical","20","20","full","matched","0","0","1121"
"echo-presentation","136","548034","0.0-136.0","5f99dc8aa866bf0bf2d60f46","5fef55e628823a0076ec12ee","602014db8bce735864f10eb9","Mozilla/5.0 (Windows NT 10.0; Win64; x64) AppleWebKit/537.36 (KHTML, like Gecko) Chrome/88.0.4324.146 Safari/537.36","v1-up-stims","","","","","","","","-20,-10,0,10,20","media/audio/stims/spherical_300cm_s20_c20_cd-full_matched_a10.wav","spherical","20","20","full","matched","10","20","893"
"echo-presentation","137","550682","0.0-137.0","5f99dc8aa866bf0bf2d60f46","5fef55e628823a0076ec12ee","602014db8bce735864f10eb9","Mozilla/5.0 (Windows NT 10.0; Win64; x64) AppleWebKit/537.36 (KHTML, like Gecko) Chrome/88.0.4324.146 Safari/537.36","v1-up-stims","","","","","","","","-20,-10,0,10,20","media/audio/stims/spherical_300cm_s20_c20_cd-full_matched_a20.wav","spherical","20","20","full","matched","20","10","1158"
"block-bookend","138","551643","0.0-138.0","5f99dc8aa866bf0bf2d60f46","5fef55e628823a0076ec12ee","602014db8bce735864f10eb9","Mozilla/5.0 (Windows NT 10.0; Win64; x64) AppleWebKit/537.36 (KHTML, like Gecko) Chrome/88.0.4324.146 Safari/537.36","v1-up-stims","","","","","","","","","","","","","","","","",""
