"trial_type","trial_index","time_elapsed","internal_node_id","prolificPid","studyId","sessionId","userAgent","version","rt","stimulus","key_press","chosenKeyset","failureCount","testIndex","globalVolume","choices","filename","modelName","slowdown","compensation","compensationDescriptor","receiverOrientationType","azimuth","responseAzimuth","responseDelay"
"pavlovia","0","6","0.0-0.0","5f463b6fff834e000b9d679c","60201dea606b8d5e5aa9e528","6020226372486e5ea98a62d9","Mozilla/5.0 (Macintosh; Intel Mac OS X 11_0_1) AppleWebKit/537.36 (KHTML, like Gecko) Chrome/88.0.4324.150 Safari/537.36","v1-up-stims","","","","","","","","","","","","","","","","",""
"html-keyboard-response","1","1461","0.0-1.0","5f463b6fff834e000b9d679c","60201dea606b8d5e5aa9e528","6020226372486e5ea98a62d9","Mozilla/5.0 (Macintosh; Intel Mac OS X 11_0_1) AppleWebKit/537.36 (KHTML, like Gecko) Chrome/88.0.4324.150 Safari/537.36","v1-up-stims","1454.2649999493733","<div><h1>Welcome!</h1><p>Press any key to continue.</p></div>","32","","","","","","","","","","","","","",""
"consent-form","2","61707","0.0-2.0","5f463b6fff834e000b9d679c","60201dea606b8d5e5aa9e528","6020226372486e5ea98a62d9","Mozilla/5.0 (Macintosh; Intel Mac OS X 11_0_1) AppleWebKit/537.36 (KHTML, like Gecko) Chrome/88.0.4324.150 Safari/537.36","v1-up-stims","","","","","","","","","","","","","","","","",""
"keyset-select","3","93074","0.0-3.0","5f463b6fff834e000b9d679c","60201dea606b8d5e5aa9e528","6020226372486e5ea98a62d9","Mozilla/5.0 (Macintosh; Intel Mac OS X 11_0_1) AppleWebKit/537.36 (KHTML, like Gecko) Chrome/88.0.4324.150 Safari/537.36","v1-up-stims","","","","left-hand","","","","","","","","","","","","",""
"headphone-check","4","181726","0.0-4.0","5f463b6fff834e000b9d679c","60201dea606b8d5e5aa9e528","6020226372486e5ea98a62d9","Mozilla/5.0 (Macintosh; Intel Mac OS X 11_0_1) AppleWebKit/537.36 (KHTML, like Gecko) Chrome/88.0.4324.150 Safari/537.36","v1-up-stims","","","","","1","6","0.3","","","","","","","","","",""
"headphone-backwards-check","5","190810","0.0-5.0","5f463b6fff834e000b9d679c","60201dea606b8d5e5aa9e528","6020226372486e5ea98a62d9","Mozilla/5.0 (Macintosh; Intel Mac OS X 11_0_1) AppleWebKit/537.36 (KHTML, like Gecko) Chrome/88.0.4324.150 Safari/537.36","v1-up-stims","","","","","0","","","","","","","","","","","",""
"training","6","274501","0.0-6.0","5f463b6fff834e000b9d679c","60201dea606b8d5e5aa9e528","6020226372486e5ea98a62d9","Mozilla/5.0 (Macintosh; Intel Mac OS X 11_0_1) AppleWebKit/537.36 (KHTML, like Gecko) Chrome/88.0.4324.150 Safari/537.36","v1-up-stims","","","","","","","","","","","","","","","","",""
"block-bookend","7","283734","0.0-7.0","5f463b6fff834e000b9d679c","60201dea606b8d5e5aa9e528","6020226372486e5ea98a62d9","Mozilla/5.0 (Macintosh; Intel Mac OS X 11_0_1) AppleWebKit/537.36 (KHTML, like Gecko) Chrome/88.0.4324.150 Safari/537.36","v1-up-stims","","","","","","","","","","","","","","","","",""
"echo-presentation","8","291751","0.0-8.0","5f463b6fff834e000b9d679c","60201dea606b8d5e5aa9e528","6020226372486e5ea98a62d9","Mozilla/5.0 (Macintosh; Intel Mac OS X 11_0_1) AppleWebKit/537.36 (KHTML, like Gecko) Chrome/88.0.4324.150 Safari/537.36","v1-up-stims","","","","","","","","-20,-10,0,10,20","media/audio/stims/spherical_300cm_s20_c1_cd-1_matched_a0.wav","spherical","20","1","1","matched","0","0","5949"
"echo-presentation","9","295927","0.0-9.0","5f463b6fff834e000b9d679c","60201dea606b8d5e5aa9e528","6020226372486e5ea98a62d9","Mozilla/5.0 (Macintosh; Intel Mac OS X 11_0_1) AppleWebKit/537.36 (KHTML, like Gecko) Chrome/88.0.4324.150 Safari/537.36","v1-up-stims","","","","","","","","-20,-10,0,10,20","media/audio/stims/spherical_300cm_s20_c1_cd-1_matched_a-10.wav","spherical","20","1","1","matched","-10","-20","1651"
"echo-presentation","10","300304","0.0-10.0","5f463b6fff834e000b9d679c","60201dea606b8d5e5aa9e528","6020226372486e5ea98a62d9","Mozilla/5.0 (Macintosh; Intel Mac OS X 11_0_1) AppleWebKit/537.36 (KHTML, like Gecko) Chrome/88.0.4324.150 Safari/537.36","v1-up-stims","","","","","","","","-20,-10,0,10,20","media/audio/stims/spherical_300cm_s20_c1_cd-1_matched_a10.wav","spherical","20","1","1","matched","10","20","2819"
"echo-presentation","11","303992","0.0-11.0","5f463b6fff834e000b9d679c","60201dea606b8d5e5aa9e528","6020226372486e5ea98a62d9","Mozilla/5.0 (Macintosh; Intel Mac OS X 11_0_1) AppleWebKit/537.36 (KHTML, like Gecko) Chrome/88.0.4324.150 Safari/537.36","v1-up-stims","","","","","","","","-20,-10,0,10,20","media/audio/stims/spherical_300cm_s20_c1_cd-1_matched_a20.wav","spherical","20","1","1","matched","20","10","2428"
"echo-presentation","12","306986","0.0-12.0","5f463b6fff834e000b9d679c","60201dea606b8d5e5aa9e528","6020226372486e5ea98a62d9","Mozilla/5.0 (Macintosh; Intel Mac OS X 11_0_1) AppleWebKit/537.36 (KHTML, like Gecko) Chrome/88.0.4324.150 Safari/537.36","v1-up-stims","","","","","","","","-20,-10,0,10,20","media/audio/stims/spherical_300cm_s20_c1_cd-1_matched_a-10.wav","spherical","20","1","1","matched","-10","-10","1768"
"echo-presentation","13","309280","0.0-13.0","5f463b6fff834e000b9d679c","60201dea606b8d5e5aa9e528","6020226372486e5ea98a62d9","Mozilla/5.0 (Macintosh; Intel Mac OS X 11_0_1) AppleWebKit/537.36 (KHTML, like Gecko) Chrome/88.0.4324.150 Safari/537.36","v1-up-stims","","","","","","","","-20,-10,0,10,20","media/audio/stims/spherical_300cm_s20_c1_cd-1_matched_a0.wav","spherical","20","1","1","matched","0","0","1148"
"echo-presentation","14","312362","0.0-14.0","5f463b6fff834e000b9d679c","60201dea606b8d5e5aa9e528","6020226372486e5ea98a62d9","Mozilla/5.0 (Macintosh; Intel Mac OS X 11_0_1) AppleWebKit/537.36 (KHTML, like Gecko) Chrome/88.0.4324.150 Safari/537.36","v1-up-stims","","","","","","","","-20,-10,0,10,20","media/audio/stims/spherical_300cm_s20_c1_cd-1_matched_a20.wav","spherical","20","1","1","matched","20","10","1953"
"echo-presentation","15","314608","0.0-15.0","5f463b6fff834e000b9d679c","60201dea606b8d5e5aa9e528","6020226372486e5ea98a62d9","Mozilla/5.0 (Macintosh; Intel Mac OS X 11_0_1) AppleWebKit/537.36 (KHTML, like Gecko) Chrome/88.0.4324.150 Safari/537.36","v1-up-stims","","","","","","","","-20,-10,0,10,20","media/audio/stims/spherical_300cm_s20_c1_cd-1_matched_a-20.wav","spherical","20","1","1","matched","-20","-20","1123"
"echo-presentation","16","317500","0.0-16.0","5f463b6fff834e000b9d679c","60201dea606b8d5e5aa9e528","6020226372486e5ea98a62d9","Mozilla/5.0 (Macintosh; Intel Mac OS X 11_0_1) AppleWebKit/537.36 (KHTML, like Gecko) Chrome/88.0.4324.150 Safari/537.36","v1-up-stims","","","","","","","","-20,-10,0,10,20","media/audio/stims/spherical_300cm_s20_c1_cd-1_matched_a10.wav","spherical","20","1","1","matched","10","20","1191"
"echo-presentation","17","320547","0.0-17.0","5f463b6fff834e000b9d679c","60201dea606b8d5e5aa9e528","6020226372486e5ea98a62d9","Mozilla/5.0 (Macintosh; Intel Mac OS X 11_0_1) AppleWebKit/537.36 (KHTML, like Gecko) Chrome/88.0.4324.150 Safari/537.36","v1-up-stims","","","","","","","","-20,-10,0,10,20","media/audio/stims/spherical_300cm_s20_c1_cd-1_matched_a10.wav","spherical","20","1","1","matched","10","20","1655"
"echo-presentation","18","324245","0.0-18.0","5f463b6fff834e000b9d679c","60201dea606b8d5e5aa9e528","6020226372486e5ea98a62d9","Mozilla/5.0 (Macintosh; Intel Mac OS X 11_0_1) AppleWebKit/537.36 (KHTML, like Gecko) Chrome/88.0.4324.150 Safari/537.36","v1-up-stims","","","","","","","","-20,-10,0,10,20","media/audio/stims/spherical_300cm_s20_c1_cd-1_matched_a20.wav","spherical","20","1","1","matched","20","10","1599"
"echo-presentation","19","326561","0.0-19.0","5f463b6fff834e000b9d679c","60201dea606b8d5e5aa9e528","6020226372486e5ea98a62d9","Mozilla/5.0 (Macintosh; Intel Mac OS X 11_0_1) AppleWebKit/537.36 (KHTML, like Gecko) Chrome/88.0.4324.150 Safari/537.36","v1-up-stims","","","","","","","","-20,-10,0,10,20","media/audio/stims/spherical_300cm_s20_c1_cd-1_matched_a0.wav","spherical","20","1","1","matched","0","-10","1345"
"echo-presentation","20","329127","0.0-20.0","5f463b6fff834e000b9d679c","60201dea606b8d5e5aa9e528","6020226372486e5ea98a62d9","Mozilla/5.0 (Macintosh; Intel Mac OS X 11_0_1) AppleWebKit/537.36 (KHTML, like Gecko) Chrome/88.0.4324.150 Safari/537.36","v1-up-stims","","","","","","","","-20,-10,0,10,20","media/audio/stims/spherical_300cm_s20_c1_cd-1_matched_a-10.wav","spherical","20","1","1","matched","-10","-20","1176"
"echo-presentation","21","332020","0.0-21.0","5f463b6fff834e000b9d679c","60201dea606b8d5e5aa9e528","6020226372486e5ea98a62d9","Mozilla/5.0 (Macintosh; Intel Mac OS X 11_0_1) AppleWebKit/537.36 (KHTML, like Gecko) Chrome/88.0.4324.150 Safari/537.36","v1-up-stims","","","","","","","","-20,-10,0,10,20","media/audio/stims/spherical_300cm_s20_c1_cd-1_matched_a-20.wav","spherical","20","1","1","matched","-20","-10","1660"
"echo-presentation","22","334531","0.0-22.0","5f463b6fff834e000b9d679c","60201dea606b8d5e5aa9e528","6020226372486e5ea98a62d9","Mozilla/5.0 (Macintosh; Intel Mac OS X 11_0_1) AppleWebKit/537.36 (KHTML, like Gecko) Chrome/88.0.4324.150 Safari/537.36","v1-up-stims","","","","","","","","-20,-10,0,10,20","media/audio/stims/spherical_300cm_s20_c1_cd-1_matched_a10.wav","spherical","20","1","1","matched","10","10","1162"
"echo-presentation","23","336627","0.0-23.0","5f463b6fff834e000b9d679c","60201dea606b8d5e5aa9e528","6020226372486e5ea98a62d9","Mozilla/5.0 (Macintosh; Intel Mac OS X 11_0_1) AppleWebKit/537.36 (KHTML, like Gecko) Chrome/88.0.4324.150 Safari/537.36","v1-up-stims","","","","","","","","-20,-10,0,10,20","media/audio/stims/spherical_300cm_s20_c1_cd-1_matched_a-20.wav","spherical","20","1","1","matched","-20","0","1274"
"echo-presentation","24","338543","0.0-24.0","5f463b6fff834e000b9d679c","60201dea606b8d5e5aa9e528","6020226372486e5ea98a62d9","Mozilla/5.0 (Macintosh; Intel Mac OS X 11_0_1) AppleWebKit/537.36 (KHTML, like Gecko) Chrome/88.0.4324.150 Safari/537.36","v1-up-stims","","","","","","","","-20,-10,0,10,20","media/audio/stims/spherical_300cm_s20_c1_cd-1_matched_a20.wav","spherical","20","1","1","matched","20","20","1151"
"echo-presentation","25","342351","0.0-25.0","5f463b6fff834e000b9d679c","60201dea606b8d5e5aa9e528","6020226372486e5ea98a62d9","Mozilla/5.0 (Macintosh; Intel Mac OS X 11_0_1) AppleWebKit/537.36 (KHTML, like Gecko) Chrome/88.0.4324.150 Safari/537.36","v1-up-stims","","","","","","","","-20,-10,0,10,20","media/audio/stims/spherical_300cm_s20_c1_cd-1_matched_a-20.wav","spherical","20","1","1","matched","-20","-20","2821"
"echo-presentation","26","345080","0.0-26.0","5f463b6fff834e000b9d679c","60201dea606b8d5e5aa9e528","6020226372486e5ea98a62d9","Mozilla/5.0 (Macintosh; Intel Mac OS X 11_0_1) AppleWebKit/537.36 (KHTML, like Gecko) Chrome/88.0.4324.150 Safari/537.36","v1-up-stims","","","","","","","","-20,-10,0,10,20","media/audio/stims/spherical_300cm_s20_c1_cd-1_matched_a-10.wav","spherical","20","1","1","matched","-10","-10","1060"
"echo-presentation","27","347472","0.0-27.0","5f463b6fff834e000b9d679c","60201dea606b8d5e5aa9e528","6020226372486e5ea98a62d9","Mozilla/5.0 (Macintosh; Intel Mac OS X 11_0_1) AppleWebKit/537.36 (KHTML, like Gecko) Chrome/88.0.4324.150 Safari/537.36","v1-up-stims","","","","","","","","-20,-10,0,10,20","media/audio/stims/spherical_300cm_s20_c1_cd-1_matched_a0.wav","spherical","20","1","1","matched","0","0","1108"
"block-bookend","28","350107","0.0-28.0","5f463b6fff834e000b9d679c","60201dea606b8d5e5aa9e528","6020226372486e5ea98a62d9","Mozilla/5.0 (Macintosh; Intel Mac OS X 11_0_1) AppleWebKit/537.36 (KHTML, like Gecko) Chrome/88.0.4324.150 Safari/537.36","v1-up-stims","","","","","","","","","","","","","","","","",""
"block-bookend","29","362281","0.0-29.0","5f463b6fff834e000b9d679c","60201dea606b8d5e5aa9e528","6020226372486e5ea98a62d9","Mozilla/5.0 (Macintosh; Intel Mac OS X 11_0_1) AppleWebKit/537.36 (KHTML, like Gecko) Chrome/88.0.4324.150 Safari/537.36","v1-up-stims","","","","","","","","","","","","","","","","",""
"echo-presentation","30","365397","0.0-30.0","5f463b6fff834e000b9d679c","60201dea606b8d5e5aa9e528","6020226372486e5ea98a62d9","Mozilla/5.0 (Macintosh; Intel Mac OS X 11_0_1) AppleWebKit/537.36 (KHTML, like Gecko) Chrome/88.0.4324.150 Safari/537.36","v1-up-stims","","","","","","","","-20,-10,0,10,20","media/audio/stims/spherical_300cm_s20_c1_cd-1_matched_a0.wav","spherical","20","1","1","matched","0","0","1407"
"echo-presentation","31","368207","0.0-31.0","5f463b6fff834e000b9d679c","60201dea606b8d5e5aa9e528","6020226372486e5ea98a62d9","Mozilla/5.0 (Macintosh; Intel Mac OS X 11_0_1) AppleWebKit/537.36 (KHTML, like Gecko) Chrome/88.0.4324.150 Safari/537.36","v1-up-stims","","","","","","","","-20,-10,0,10,20","media/audio/stims/spherical_300cm_s20_c1_cd-1_matched_a0.wav","spherical","20","1","1","matched","0","-10","1145"
"echo-presentation","32","370895","0.0-32.0","5f463b6fff834e000b9d679c","60201dea606b8d5e5aa9e528","6020226372486e5ea98a62d9","Mozilla/5.0 (Macintosh; Intel Mac OS X 11_0_1) AppleWebKit/537.36 (KHTML, like Gecko) Chrome/88.0.4324.150 Safari/537.36","v1-up-stims","","","","","","","","-20,-10,0,10,20","media/audio/stims/spherical_300cm_s20_c1_cd-1_matched_a-20.wav","spherical","20","1","1","matched","-20","-20","1620"
"echo-presentation","33","373084","0.0-33.0","5f463b6fff834e000b9d679c","60201dea606b8d5e5aa9e528","6020226372486e5ea98a62d9","Mozilla/5.0 (Macintosh; Intel Mac OS X 11_0_1) AppleWebKit/537.36 (KHTML, like Gecko) Chrome/88.0.4324.150 Safari/537.36","v1-up-stims","","","","","","","","-20,-10,0,10,20","media/audio/stims/spherical_300cm_s20_c1_cd-1_matched_a10.wav","spherical","20","1","1","matched","10","10","1113"
"echo-presentation","34","375667","0.0-34.0","5f463b6fff834e000b9d679c","60201dea606b8d5e5aa9e528","6020226372486e5ea98a62d9","Mozilla/5.0 (Macintosh; Intel Mac OS X 11_0_1) AppleWebKit/537.36 (KHTML, like Gecko) Chrome/88.0.4324.150 Safari/537.36","v1-up-stims","","","","","","","","-20,-10,0,10,20","media/audio/stims/spherical_300cm_s20_c1_cd-1_matched_a20.wav","spherical","20","1","1","matched","20","20","1726"
"echo-presentation","35","377467","0.0-35.0","5f463b6fff834e000b9d679c","60201dea606b8d5e5aa9e528","6020226372486e5ea98a62d9","Mozilla/5.0 (Macintosh; Intel Mac OS X 11_0_1) AppleWebKit/537.36 (KHTML, like Gecko) Chrome/88.0.4324.150 Safari/537.36","v1-up-stims","","","","","","","","-20,-10,0,10,20","media/audio/stims/spherical_300cm_s20_c1_cd-1_matched_a-20.wav","spherical","20","1","1","matched","-20","-20","910"
"echo-presentation","36","379986","0.0-36.0","5f463b6fff834e000b9d679c","60201dea606b8d5e5aa9e528","6020226372486e5ea98a62d9","Mozilla/5.0 (Macintosh; Intel Mac OS X 11_0_1) AppleWebKit/537.36 (KHTML, like Gecko) Chrome/88.0.4324.150 Safari/537.36","v1-up-stims","","","","","","","","-20,-10,0,10,20","media/audio/stims/spherical_300cm_s20_c1_cd-1_matched_a-20.wav","spherical","20","1","1","matched","-20","0","1383"
"echo-presentation","37","381927","0.0-37.0","5f463b6fff834e000b9d679c","60201dea606b8d5e5aa9e528","6020226372486e5ea98a62d9","Mozilla/5.0 (Macintosh; Intel Mac OS X 11_0_1) AppleWebKit/537.36 (KHTML, like Gecko) Chrome/88.0.4324.150 Safari/537.36","v1-up-stims","","","","","","","","-20,-10,0,10,20","media/audio/stims/spherical_300cm_s20_c1_cd-1_matched_a-10.wav","spherical","20","1","1","matched","-10","10","1149"
"echo-presentation","38","384032","0.0-38.0","5f463b6fff834e000b9d679c","60201dea606b8d5e5aa9e528","6020226372486e5ea98a62d9","Mozilla/5.0 (Macintosh; Intel Mac OS X 11_0_1) AppleWebKit/537.36 (KHTML, like Gecko) Chrome/88.0.4324.150 Safari/537.36","v1-up-stims","","","","","","","","-20,-10,0,10,20","media/audio/stims/spherical_300cm_s20_c1_cd-1_matched_a-10.wav","spherical","20","1","1","matched","-10","-10","1060"
"echo-presentation","39","386050","0.0-39.0","5f463b6fff834e000b9d679c","60201dea606b8d5e5aa9e528","6020226372486e5ea98a62d9","Mozilla/5.0 (Macintosh; Intel Mac OS X 11_0_1) AppleWebKit/537.36 (KHTML, like Gecko) Chrome/88.0.4324.150 Safari/537.36","v1-up-stims","","","","","","","","-20,-10,0,10,20","media/audio/stims/spherical_300cm_s20_c1_cd-1_matched_a20.wav","spherical","20","1","1","matched","20","10","1226"
"echo-presentation","40","387877","0.0-40.0","5f463b6fff834e000b9d679c","60201dea606b8d5e5aa9e528","6020226372486e5ea98a62d9","Mozilla/5.0 (Macintosh; Intel Mac OS X 11_0_1) AppleWebKit/537.36 (KHTML, like Gecko) Chrome/88.0.4324.150 Safari/537.36","v1-up-stims","","","","","","","","-20,-10,0,10,20","media/audio/stims/spherical_300cm_s20_c1_cd-1_matched_a-10.wav","spherical","20","1","1","matched","-10","-20","1044"
"echo-presentation","41","389866","0.0-41.0","5f463b6fff834e000b9d679c","60201dea606b8d5e5aa9e528","6020226372486e5ea98a62d9","Mozilla/5.0 (Macintosh; Intel Mac OS X 11_0_1) AppleWebKit/537.36 (KHTML, like Gecko) Chrome/88.0.4324.150 Safari/537.36","v1-up-stims","","","","","","","","-20,-10,0,10,20","media/audio/stims/spherical_300cm_s20_c1_cd-1_matched_a20.wav","spherical","20","1","1","matched","20","20","1202"
"echo-presentation","42","391981","0.0-42.0","5f463b6fff834e000b9d679c","60201dea606b8d5e5aa9e528","6020226372486e5ea98a62d9","Mozilla/5.0 (Macintosh; Intel Mac OS X 11_0_1) AppleWebKit/537.36 (KHTML, like Gecko) Chrome/88.0.4324.150 Safari/537.36","v1-up-stims","","","","","","","","-20,-10,0,10,20","media/audio/stims/spherical_300cm_s20_c1_cd-1_matched_a-20.wav","spherical","20","1","1","matched","-20","-10","1308"
"echo-presentation","43","394150","0.0-43.0","5f463b6fff834e000b9d679c","60201dea606b8d5e5aa9e528","6020226372486e5ea98a62d9","Mozilla/5.0 (Macintosh; Intel Mac OS X 11_0_1) AppleWebKit/537.36 (KHTML, like Gecko) Chrome/88.0.4324.150 Safari/537.36","v1-up-stims","","","","","","","","-20,-10,0,10,20","media/audio/stims/spherical_300cm_s20_c1_cd-1_matched_a10.wav","spherical","20","1","1","matched","10","10","1320"
"echo-presentation","44","396293","0.0-44.0","5f463b6fff834e000b9d679c","60201dea606b8d5e5aa9e528","6020226372486e5ea98a62d9","Mozilla/5.0 (Macintosh; Intel Mac OS X 11_0_1) AppleWebKit/537.36 (KHTML, like Gecko) Chrome/88.0.4324.150 Safari/537.36","v1-up-stims","","","","","","","","-20,-10,0,10,20","media/audio/stims/spherical_300cm_s20_c1_cd-1_matched_a20.wav","spherical","20","1","1","matched","20","10","1286"
"echo-presentation","45","398104","0.0-45.0","5f463b6fff834e000b9d679c","60201dea606b8d5e5aa9e528","6020226372486e5ea98a62d9","Mozilla/5.0 (Macintosh; Intel Mac OS X 11_0_1) AppleWebKit/537.36 (KHTML, like Gecko) Chrome/88.0.4324.150 Safari/537.36","v1-up-stims","","","","","","","","-20,-10,0,10,20","media/audio/stims/spherical_300cm_s20_c1_cd-1_matched_a-10.wav","spherical","20","1","1","matched","-10","-20","948"
"echo-presentation","46","400934","0.0-46.0","5f463b6fff834e000b9d679c","60201dea606b8d5e5aa9e528","6020226372486e5ea98a62d9","Mozilla/5.0 (Macintosh; Intel Mac OS X 11_0_1) AppleWebKit/537.36 (KHTML, like Gecko) Chrome/88.0.4324.150 Safari/537.36","v1-up-stims","","","","","","","","-20,-10,0,10,20","media/audio/stims/spherical_300cm_s20_c1_cd-1_matched_a10.wav","spherical","20","1","1","matched","10","20","2000"
"echo-presentation","47","402966","0.0-47.0","5f463b6fff834e000b9d679c","60201dea606b8d5e5aa9e528","6020226372486e5ea98a62d9","Mozilla/5.0 (Macintosh; Intel Mac OS X 11_0_1) AppleWebKit/537.36 (KHTML, like Gecko) Chrome/88.0.4324.150 Safari/537.36","v1-up-stims","","","","","","","","-20,-10,0,10,20","media/audio/stims/spherical_300cm_s20_c1_cd-1_matched_a10.wav","spherical","20","1","1","matched","10","10","1205"
"echo-presentation","48","405126","0.0-48.0","5f463b6fff834e000b9d679c","60201dea606b8d5e5aa9e528","6020226372486e5ea98a62d9","Mozilla/5.0 (Macintosh; Intel Mac OS X 11_0_1) AppleWebKit/537.36 (KHTML, like Gecko) Chrome/88.0.4324.150 Safari/537.36","v1-up-stims","","","","","","","","-20,-10,0,10,20","media/audio/stims/spherical_300cm_s20_c1_cd-1_matched_a0.wav","spherical","20","1","1","matched","0","0","1166"
"echo-presentation","49","407090","0.0-49.0","5f463b6fff834e000b9d679c","60201dea606b8d5e5aa9e528","6020226372486e5ea98a62d9","Mozilla/5.0 (Macintosh; Intel Mac OS X 11_0_1) AppleWebKit/537.36 (KHTML, like Gecko) Chrome/88.0.4324.150 Safari/537.36","v1-up-stims","","","","","","","","-20,-10,0,10,20","media/audio/stims/spherical_300cm_s20_c1_cd-1_matched_a0.wav","spherical","20","1","1","matched","0","0","914"
"block-bookend","50","409657","0.0-50.0","5f463b6fff834e000b9d679c","60201dea606b8d5e5aa9e528","6020226372486e5ea98a62d9","Mozilla/5.0 (Macintosh; Intel Mac OS X 11_0_1) AppleWebKit/537.36 (KHTML, like Gecko) Chrome/88.0.4324.150 Safari/537.36","v1-up-stims","","","","","","","","","","","","","","","","",""
"block-bookend","51","418231","0.0-51.0","5f463b6fff834e000b9d679c","60201dea606b8d5e5aa9e528","6020226372486e5ea98a62d9","Mozilla/5.0 (Macintosh; Intel Mac OS X 11_0_1) AppleWebKit/537.36 (KHTML, like Gecko) Chrome/88.0.4324.150 Safari/537.36","v1-up-stims","","","","","","","","","","","","","","","","",""
"echo-presentation","52","422541","0.0-52.0","5f463b6fff834e000b9d679c","60201dea606b8d5e5aa9e528","6020226372486e5ea98a62d9","Mozilla/5.0 (Macintosh; Intel Mac OS X 11_0_1) AppleWebKit/537.36 (KHTML, like Gecko) Chrome/88.0.4324.150 Safari/537.36","v1-up-stims","","","","","","","","40,50,60,70,80","media/audio/stims/spherical_300cm_s20_c1_cd-1_matched_a60.wav","spherical","20","1","1","matched","60","70","2737"
"echo-presentation","53","425492","0.0-53.0","5f463b6fff834e000b9d679c","60201dea606b8d5e5aa9e528","6020226372486e5ea98a62d9","Mozilla/5.0 (Macintosh; Intel Mac OS X 11_0_1) AppleWebKit/537.36 (KHTML, like Gecko) Chrome/88.0.4324.150 Safari/537.36","v1-up-stims","","","","","","","","40,50,60,70,80","media/audio/stims/spherical_300cm_s20_c1_cd-1_matched_a70.wav","spherical","20","1","1","matched","70","80","1871"
"echo-presentation","54","427833","0.0-54.0","5f463b6fff834e000b9d679c","60201dea606b8d5e5aa9e528","6020226372486e5ea98a62d9","Mozilla/5.0 (Macintosh; Intel Mac OS X 11_0_1) AppleWebKit/537.36 (KHTML, like Gecko) Chrome/88.0.4324.150 Safari/537.36","v1-up-stims","","","","","","","","40,50,60,70,80","media/audio/stims/spherical_300cm_s20_c1_cd-1_matched_a40.wav","spherical","20","1","1","matched","40","80","1421"
"echo-presentation","55","429701","0.0-55.0","5f463b6fff834e000b9d679c","60201dea606b8d5e5aa9e528","6020226372486e5ea98a62d9","Mozilla/5.0 (Macintosh; Intel Mac OS X 11_0_1) AppleWebKit/537.36 (KHTML, like Gecko) Chrome/88.0.4324.150 Safari/537.36","v1-up-stims","","","","","","","","40,50,60,70,80","media/audio/stims/spherical_300cm_s20_c1_cd-1_matched_a80.wav","spherical","20","1","1","matched","80","80","1085"
"echo-presentation","56","431535","0.0-56.0","5f463b6fff834e000b9d679c","60201dea606b8d5e5aa9e528","6020226372486e5ea98a62d9","Mozilla/5.0 (Macintosh; Intel Mac OS X 11_0_1) AppleWebKit/537.36 (KHTML, like Gecko) Chrome/88.0.4324.150 Safari/537.36","v1-up-stims","","","","","","","","40,50,60,70,80","media/audio/stims/spherical_300cm_s20_c1_cd-1_matched_a50.wav","spherical","20","1","1","matched","50","80","1035"
"echo-presentation","57","433331","0.0-57.0","5f463b6fff834e000b9d679c","60201dea606b8d5e5aa9e528","6020226372486e5ea98a62d9","Mozilla/5.0 (Macintosh; Intel Mac OS X 11_0_1) AppleWebKit/537.36 (KHTML, like Gecko) Chrome/88.0.4324.150 Safari/537.36","v1-up-stims","","","","","","","","40,50,60,70,80","media/audio/stims/spherical_300cm_s20_c1_cd-1_matched_a80.wav","spherical","20","1","1","matched","80","80","965"
"echo-presentation","58","435355","0.0-58.0","5f463b6fff834e000b9d679c","60201dea606b8d5e5aa9e528","6020226372486e5ea98a62d9","Mozilla/5.0 (Macintosh; Intel Mac OS X 11_0_1) AppleWebKit/537.36 (KHTML, like Gecko) Chrome/88.0.4324.150 Safari/537.36","v1-up-stims","","","","","","","","40,50,60,70,80","media/audio/stims/spherical_300cm_s20_c1_cd-1_matched_a50.wav","spherical","20","1","1","matched","50","80","1226"
"echo-presentation","59","437255","0.0-59.0","5f463b6fff834e000b9d679c","60201dea606b8d5e5aa9e528","6020226372486e5ea98a62d9","Mozilla/5.0 (Macintosh; Intel Mac OS X 11_0_1) AppleWebKit/537.36 (KHTML, like Gecko) Chrome/88.0.4324.150 Safari/537.36","v1-up-stims","","","","","","","","40,50,60,70,80","media/audio/stims/spherical_300cm_s20_c1_cd-1_matched_a50.wav","spherical","20","1","1","matched","50","80","972"
"echo-presentation","60","439378","0.0-60.0","5f463b6fff834e000b9d679c","60201dea606b8d5e5aa9e528","6020226372486e5ea98a62d9","Mozilla/5.0 (Macintosh; Intel Mac OS X 11_0_1) AppleWebKit/537.36 (KHTML, like Gecko) Chrome/88.0.4324.150 Safari/537.36","v1-up-stims","","","","","","","","40,50,60,70,80","media/audio/stims/spherical_300cm_s20_c1_cd-1_matched_a40.wav","spherical","20","1","1","matched","40","80","1190"
"echo-presentation","61","442275","0.0-61.0","5f463b6fff834e000b9d679c","60201dea606b8d5e5aa9e528","6020226372486e5ea98a62d9","Mozilla/5.0 (Macintosh; Intel Mac OS X 11_0_1) AppleWebKit/537.36 (KHTML, like Gecko) Chrome/88.0.4324.150 Safari/537.36","v1-up-stims","","","","","","","","40,50,60,70,80","media/audio/stims/spherical_300cm_s20_c1_cd-1_matched_a70.wav","spherical","20","1","1","matched","70","80","2094"
"echo-presentation","62","445503","0.0-62.0","5f463b6fff834e000b9d679c","60201dea606b8d5e5aa9e528","6020226372486e5ea98a62d9","Mozilla/5.0 (Macintosh; Intel Mac OS X 11_0_1) AppleWebKit/537.36 (KHTML, like Gecko) Chrome/88.0.4324.150 Safari/537.36","v1-up-stims","","","","","","","","40,50,60,70,80","media/audio/stims/spherical_300cm_s20_c1_cd-1_matched_a80.wav","spherical","20","1","1","matched","80","80","2313"
"echo-presentation","63","447476","0.0-63.0","5f463b6fff834e000b9d679c","60201dea606b8d5e5aa9e528","6020226372486e5ea98a62d9","Mozilla/5.0 (Macintosh; Intel Mac OS X 11_0_1) AppleWebKit/537.36 (KHTML, like Gecko) Chrome/88.0.4324.150 Safari/537.36","v1-up-stims","","","","","","","","40,50,60,70,80","media/audio/stims/spherical_300cm_s20_c1_cd-1_matched_a50.wav","spherical","20","1","1","matched","50","80","1069"
"echo-presentation","64","449340","0.0-64.0","5f463b6fff834e000b9d679c","60201dea606b8d5e5aa9e528","6020226372486e5ea98a62d9","Mozilla/5.0 (Macintosh; Intel Mac OS X 11_0_1) AppleWebKit/537.36 (KHTML, like Gecko) Chrome/88.0.4324.150 Safari/537.36","v1-up-stims","","","","","","","","40,50,60,70,80","media/audio/stims/spherical_300cm_s20_c1_cd-1_matched_a80.wav","spherical","20","1","1","matched","80","80","1008"
"echo-presentation","65","451105","0.0-65.0","5f463b6fff834e000b9d679c","60201dea606b8d5e5aa9e528","6020226372486e5ea98a62d9","Mozilla/5.0 (Macintosh; Intel Mac OS X 11_0_1) AppleWebKit/537.36 (KHTML, like Gecko) Chrome/88.0.4324.150 Safari/537.36","v1-up-stims","","","","","","","","40,50,60,70,80","media/audio/stims/spherical_300cm_s20_c1_cd-1_matched_a70.wav","spherical","20","1","1","matched","70","80","902"
"echo-presentation","66","452649","0.0-66.0","5f463b6fff834e000b9d679c","60201dea606b8d5e5aa9e528","6020226372486e5ea98a62d9","Mozilla/5.0 (Macintosh; Intel Mac OS X 11_0_1) AppleWebKit/537.36 (KHTML, like Gecko) Chrome/88.0.4324.150 Safari/537.36","v1-up-stims","","","","","","","","40,50,60,70,80","media/audio/stims/spherical_300cm_s20_c1_cd-1_matched_a60.wav","spherical","20","1","1","matched","60","80","911"
"echo-presentation","67","454307","0.0-67.0","5f463b6fff834e000b9d679c","60201dea606b8d5e5aa9e528","6020226372486e5ea98a62d9","Mozilla/5.0 (Macintosh; Intel Mac OS X 11_0_1) AppleWebKit/537.36 (KHTML, like Gecko) Chrome/88.0.4324.150 Safari/537.36","v1-up-stims","","","","","","","","40,50,60,70,80","media/audio/stims/spherical_300cm_s20_c1_cd-1_matched_a40.wav","spherical","20","1","1","matched","40","80","944"
"echo-presentation","68","456022","0.0-68.0","5f463b6fff834e000b9d679c","60201dea606b8d5e5aa9e528","6020226372486e5ea98a62d9","Mozilla/5.0 (Macintosh; Intel Mac OS X 11_0_1) AppleWebKit/537.36 (KHTML, like Gecko) Chrome/88.0.4324.150 Safari/537.36","v1-up-stims","","","","","","","","40,50,60,70,80","media/audio/stims/spherical_300cm_s20_c1_cd-1_matched_a70.wav","spherical","20","1","1","matched","70","80","903"
"echo-presentation","69","457677","0.0-69.0","5f463b6fff834e000b9d679c","60201dea606b8d5e5aa9e528","6020226372486e5ea98a62d9","Mozilla/5.0 (Macintosh; Intel Mac OS X 11_0_1) AppleWebKit/537.36 (KHTML, like Gecko) Chrome/88.0.4324.150 Safari/537.36","v1-up-stims","","","","","","","","40,50,60,70,80","media/audio/stims/spherical_300cm_s20_c1_cd-1_matched_a60.wav","spherical","20","1","1","matched","60","80","901"
"echo-presentation","70","459348","0.0-70.0","5f463b6fff834e000b9d679c","60201dea606b8d5e5aa9e528","6020226372486e5ea98a62d9","Mozilla/5.0 (Macintosh; Intel Mac OS X 11_0_1) AppleWebKit/537.36 (KHTML, like Gecko) Chrome/88.0.4324.150 Safari/537.36","v1-up-stims","","","","","","","","40,50,60,70,80","media/audio/stims/spherical_300cm_s20_c1_cd-1_matched_a40.wav","spherical","20","1","1","matched","40","80","891"
"echo-presentation","71","461084","0.0-71.0","5f463b6fff834e000b9d679c","60201dea606b8d5e5aa9e528","6020226372486e5ea98a62d9","Mozilla/5.0 (Macintosh; Intel Mac OS X 11_0_1) AppleWebKit/537.36 (KHTML, like Gecko) Chrome/88.0.4324.150 Safari/537.36","v1-up-stims","","","","","","","","40,50,60,70,80","media/audio/stims/spherical_300cm_s20_c1_cd-1_matched_a60.wav","spherical","20","1","1","matched","60","80","904"
"block-bookend","72","462555","0.0-72.0","5f463b6fff834e000b9d679c","60201dea606b8d5e5aa9e528","6020226372486e5ea98a62d9","Mozilla/5.0 (Macintosh; Intel Mac OS X 11_0_1) AppleWebKit/537.36 (KHTML, like Gecko) Chrome/88.0.4324.150 Safari/537.36","v1-up-stims","","","","","","","","","","","","","","","","",""
"block-bookend","73","468489","0.0-73.0","5f463b6fff834e000b9d679c","60201dea606b8d5e5aa9e528","6020226372486e5ea98a62d9","Mozilla/5.0 (Macintosh; Intel Mac OS X 11_0_1) AppleWebKit/537.36 (KHTML, like Gecko) Chrome/88.0.4324.150 Safari/537.36","v1-up-stims","","","","","","","","","","","","","","","","",""
"echo-presentation","74","471219","0.0-74.0","5f463b6fff834e000b9d679c","60201dea606b8d5e5aa9e528","6020226372486e5ea98a62d9","Mozilla/5.0 (Macintosh; Intel Mac OS X 11_0_1) AppleWebKit/537.36 (KHTML, like Gecko) Chrome/88.0.4324.150 Safari/537.36","v1-up-stims","","","","","","","","40,50,60,70,80","media/audio/stims/spherical_300cm_s20_c1_cd-1_matched_a70.wav","spherical","20","1","1","matched","70","80","1244"
"echo-presentation","75","472973","0.0-75.0","5f463b6fff834e000b9d679c","60201dea606b8d5e5aa9e528","6020226372486e5ea98a62d9","Mozilla/5.0 (Macintosh; Intel Mac OS X 11_0_1) AppleWebKit/537.36 (KHTML, like Gecko) Chrome/88.0.4324.150 Safari/537.36","v1-up-stims","","","","","","","","40,50,60,70,80","media/audio/stims/spherical_300cm_s20_c1_cd-1_matched_a80.wav","spherical","20","1","1","matched","80","80","886"
"echo-presentation","76","474569","0.0-76.0","5f463b6fff834e000b9d679c","60201dea606b8d5e5aa9e528","6020226372486e5ea98a62d9","Mozilla/5.0 (Macintosh; Intel Mac OS X 11_0_1) AppleWebKit/537.36 (KHTML, like Gecko) Chrome/88.0.4324.150 Safari/537.36","v1-up-stims","","","","","","","","40,50,60,70,80","media/audio/stims/spherical_300cm_s20_c1_cd-1_matched_a60.wav","spherical","20","1","1","matched","60","80","812"
"echo-presentation","77","476067","0.0-77.0","5f463b6fff834e000b9d679c","60201dea606b8d5e5aa9e528","6020226372486e5ea98a62d9","Mozilla/5.0 (Macintosh; Intel Mac OS X 11_0_1) AppleWebKit/537.36 (KHTML, like Gecko) Chrome/88.0.4324.150 Safari/537.36","v1-up-stims","","","","","","","","40,50,60,70,80","media/audio/stims/spherical_300cm_s20_c1_cd-1_matched_a80.wav","spherical","20","1","1","matched","80","80","759"
"echo-presentation","78","477582","0.0-78.0","5f463b6fff834e000b9d679c","60201dea606b8d5e5aa9e528","6020226372486e5ea98a62d9","Mozilla/5.0 (Macintosh; Intel Mac OS X 11_0_1) AppleWebKit/537.36 (KHTML, like Gecko) Chrome/88.0.4324.150 Safari/537.36","v1-up-stims","","","","","","","","40,50,60,70,80","media/audio/stims/spherical_300cm_s20_c1_cd-1_matched_a70.wav","spherical","20","1","1","matched","70","80","768"
"echo-presentation","79","479190","0.0-79.0","5f463b6fff834e000b9d679c","60201dea606b8d5e5aa9e528","6020226372486e5ea98a62d9","Mozilla/5.0 (Macintosh; Intel Mac OS X 11_0_1) AppleWebKit/537.36 (KHTML, like Gecko) Chrome/88.0.4324.150 Safari/537.36","v1-up-stims","","","","","","","","40,50,60,70,80","media/audio/stims/spherical_300cm_s20_c1_cd-1_matched_a70.wav","spherical","20","1","1","matched","70","80","888"
"echo-presentation","80","480583","0.0-80.0","5f463b6fff834e000b9d679c","60201dea606b8d5e5aa9e528","6020226372486e5ea98a62d9","Mozilla/5.0 (Macintosh; Intel Mac OS X 11_0_1) AppleWebKit/537.36 (KHTML, like Gecko) Chrome/88.0.4324.150 Safari/537.36","v1-up-stims","","","","","","","","40,50,60,70,80","media/audio/stims/spherical_300cm_s20_c1_cd-1_matched_a60.wav","spherical","20","1","1","matched","60","80","737"
"echo-presentation","81","482069","0.0-81.0","5f463b6fff834e000b9d679c","60201dea606b8d5e5aa9e528","6020226372486e5ea98a62d9","Mozilla/5.0 (Macintosh; Intel Mac OS X 11_0_1) AppleWebKit/537.36 (KHTML, like Gecko) Chrome/88.0.4324.150 Safari/537.36","v1-up-stims","","","","","","","","40,50,60,70,80","media/audio/stims/spherical_300cm_s20_c1_cd-1_matched_a50.wav","spherical","20","1","1","matched","50","80","773"
"echo-presentation","82","483544","0.0-82.0","5f463b6fff834e000b9d679c","60201dea606b8d5e5aa9e528","6020226372486e5ea98a62d9","Mozilla/5.0 (Macintosh; Intel Mac OS X 11_0_1) AppleWebKit/537.36 (KHTML, like Gecko) Chrome/88.0.4324.150 Safari/537.36","v1-up-stims","","","","","","","","40,50,60,70,80","media/audio/stims/spherical_300cm_s20_c1_cd-1_matched_a60.wav","spherical","20","1","1","matched","60","80","725"
"echo-presentation","83","484995","0.0-83.0","5f463b6fff834e000b9d679c","60201dea606b8d5e5aa9e528","6020226372486e5ea98a62d9","Mozilla/5.0 (Macintosh; Intel Mac OS X 11_0_1) AppleWebKit/537.36 (KHTML, like Gecko) Chrome/88.0.4324.150 Safari/537.36","v1-up-stims","","","","","","","","40,50,60,70,80","media/audio/stims/spherical_300cm_s20_c1_cd-1_matched_a50.wav","spherical","20","1","1","matched","50","80","704"
"echo-presentation","84","486487","0.0-84.0","5f463b6fff834e000b9d679c","60201dea606b8d5e5aa9e528","6020226372486e5ea98a62d9","Mozilla/5.0 (Macintosh; Intel Mac OS X 11_0_1) AppleWebKit/537.36 (KHTML, like Gecko) Chrome/88.0.4324.150 Safari/537.36","v1-up-stims","","","","","","","","40,50,60,70,80","media/audio/stims/spherical_300cm_s20_c1_cd-1_matched_a40.wav","spherical","20","1","1","matched","40","80","791"
"echo-presentation","85","487957","0.0-85.0","5f463b6fff834e000b9d679c","60201dea606b8d5e5aa9e528","6020226372486e5ea98a62d9","Mozilla/5.0 (Macintosh; Intel Mac OS X 11_0_1) AppleWebKit/537.36 (KHTML, like Gecko) Chrome/88.0.4324.150 Safari/537.36","v1-up-stims","","","","","","","","40,50,60,70,80","media/audio/stims/spherical_300cm_s20_c1_cd-1_matched_a50.wav","spherical","20","1","1","matched","50","80","723"
"echo-presentation","86","489482","0.0-86.0","5f463b6fff834e000b9d679c","60201dea606b8d5e5aa9e528","6020226372486e5ea98a62d9","Mozilla/5.0 (Macintosh; Intel Mac OS X 11_0_1) AppleWebKit/537.36 (KHTML, like Gecko) Chrome/88.0.4324.150 Safari/537.36","v1-up-stims","","","","","","","","40,50,60,70,80","media/audio/stims/spherical_300cm_s20_c1_cd-1_matched_a70.wav","spherical","20","1","1","matched","70","80","765"
"echo-presentation","87","490974","0.0-87.0","5f463b6fff834e000b9d679c","60201dea606b8d5e5aa9e528","6020226372486e5ea98a62d9","Mozilla/5.0 (Macintosh; Intel Mac OS X 11_0_1) AppleWebKit/537.36 (KHTML, like Gecko) Chrome/88.0.4324.150 Safari/537.36","v1-up-stims","","","","","","","","40,50,60,70,80","media/audio/stims/spherical_300cm_s20_c1_cd-1_matched_a80.wav","spherical","20","1","1","matched","80","80","751"
"echo-presentation","88","492445","0.0-88.0","5f463b6fff834e000b9d679c","60201dea606b8d5e5aa9e528","6020226372486e5ea98a62d9","Mozilla/5.0 (Macintosh; Intel Mac OS X 11_0_1) AppleWebKit/537.36 (KHTML, like Gecko) Chrome/88.0.4324.150 Safari/537.36","v1-up-stims","","","","","","","","40,50,60,70,80","media/audio/stims/spherical_300cm_s20_c1_cd-1_matched_a40.wav","spherical","20","1","1","matched","40","80","740"
"echo-presentation","89","493976","0.0-89.0","5f463b6fff834e000b9d679c","60201dea606b8d5e5aa9e528","6020226372486e5ea98a62d9","Mozilla/5.0 (Macintosh; Intel Mac OS X 11_0_1) AppleWebKit/537.36 (KHTML, like Gecko) Chrome/88.0.4324.150 Safari/537.36","v1-up-stims","","","","","","","","40,50,60,70,80","media/audio/stims/spherical_300cm_s20_c1_cd-1_matched_a40.wav","spherical","20","1","1","matched","40","80","761"
"echo-presentation","90","495526","0.0-90.0","5f463b6fff834e000b9d679c","60201dea606b8d5e5aa9e528","6020226372486e5ea98a62d9","Mozilla/5.0 (Macintosh; Intel Mac OS X 11_0_1) AppleWebKit/537.36 (KHTML, like Gecko) Chrome/88.0.4324.150 Safari/537.36","v1-up-stims","","","","","","","","40,50,60,70,80","media/audio/stims/spherical_300cm_s20_c1_cd-1_matched_a40.wav","spherical","20","1","1","matched","40","80","772"
"echo-presentation","91","497090","0.0-91.0","5f463b6fff834e000b9d679c","60201dea606b8d5e5aa9e528","6020226372486e5ea98a62d9","Mozilla/5.0 (Macintosh; Intel Mac OS X 11_0_1) AppleWebKit/537.36 (KHTML, like Gecko) Chrome/88.0.4324.150 Safari/537.36","v1-up-stims","","","","","","","","40,50,60,70,80","media/audio/stims/spherical_300cm_s20_c1_cd-1_matched_a60.wav","spherical","20","1","1","matched","60","80","737"
"echo-presentation","92","498707","0.0-92.0","5f463b6fff834e000b9d679c","60201dea606b8d5e5aa9e528","6020226372486e5ea98a62d9","Mozilla/5.0 (Macintosh; Intel Mac OS X 11_0_1) AppleWebKit/537.36 (KHTML, like Gecko) Chrome/88.0.4324.150 Safari/537.36","v1-up-stims","","","","","","","","40,50,60,70,80","media/audio/stims/spherical_300cm_s20_c1_cd-1_matched_a50.wav","spherical","20","1","1","matched","50","80","827"
"echo-presentation","93","500506","0.0-93.0","5f463b6fff834e000b9d679c","60201dea606b8d5e5aa9e528","6020226372486e5ea98a62d9","Mozilla/5.0 (Macintosh; Intel Mac OS X 11_0_1) AppleWebKit/537.36 (KHTML, like Gecko) Chrome/88.0.4324.150 Safari/537.36","v1-up-stims","","","","","","","","40,50,60,70,80","media/audio/stims/spherical_300cm_s20_c1_cd-1_matched_a80.wav","spherical","20","1","1","matched","80","80","804"
"block-bookend","94","501484","0.0-94.0","5f463b6fff834e000b9d679c","60201dea606b8d5e5aa9e528","6020226372486e5ea98a62d9","Mozilla/5.0 (Macintosh; Intel Mac OS X 11_0_1) AppleWebKit/537.36 (KHTML, like Gecko) Chrome/88.0.4324.150 Safari/537.36","v1-up-stims","","","","","","","","","","","","","","","","",""
"block-bookend","95","507428","0.0-95.0","5f463b6fff834e000b9d679c","60201dea606b8d5e5aa9e528","6020226372486e5ea98a62d9","Mozilla/5.0 (Macintosh; Intel Mac OS X 11_0_1) AppleWebKit/537.36 (KHTML, like Gecko) Chrome/88.0.4324.150 Safari/537.36","v1-up-stims","","","","","","","","","","","","","","","","",""
"echo-presentation","96","510207","0.0-96.0","5f463b6fff834e000b9d679c","60201dea606b8d5e5aa9e528","6020226372486e5ea98a62d9","Mozilla/5.0 (Macintosh; Intel Mac OS X 11_0_1) AppleWebKit/537.36 (KHTML, like Gecko) Chrome/88.0.4324.150 Safari/537.36","v1-up-stims","","","","","","","","-80,-70,-60,-50,-40","media/audio/stims/spherical_300cm_s20_c1_cd-1_matched_a-60.wav","spherical","20","1","1","matched","-60","-80","1486"
"echo-presentation","97","511891","0.0-97.0","5f463b6fff834e000b9d679c","60201dea606b8d5e5aa9e528","6020226372486e5ea98a62d9","Mozilla/5.0 (Macintosh; Intel Mac OS X 11_0_1) AppleWebKit/537.36 (KHTML, like Gecko) Chrome/88.0.4324.150 Safari/537.36","v1-up-stims","","","","","","","","-80,-70,-60,-50,-40","media/audio/stims/spherical_300cm_s20_c1_cd-1_matched_a-80.wav","spherical","20","1","1","matched","-80","-80","789"
"echo-presentation","98","513411","0.0-98.0","5f463b6fff834e000b9d679c","60201dea606b8d5e5aa9e528","6020226372486e5ea98a62d9","Mozilla/5.0 (Macintosh; Intel Mac OS X 11_0_1) AppleWebKit/537.36 (KHTML, like Gecko) Chrome/88.0.4324.150 Safari/537.36","v1-up-stims","","","","","","","","-80,-70,-60,-50,-40","media/audio/stims/spherical_300cm_s20_c1_cd-1_matched_a-60.wav","spherical","20","1","1","matched","-60","-80","775"
"echo-presentation","99","514868","0.0-99.0","5f463b6fff834e000b9d679c","60201dea606b8d5e5aa9e528","6020226372486e5ea98a62d9","Mozilla/5.0 (Macintosh; Intel Mac OS X 11_0_1) AppleWebKit/537.36 (KHTML, like Gecko) Chrome/88.0.4324.150 Safari/537.36","v1-up-stims","","","","","","","","-80,-70,-60,-50,-40","media/audio/stims/spherical_300cm_s20_c1_cd-1_matched_a-70.wav","spherical","20","1","1","matched","-70","-80","729"
"echo-presentation","100","516442","0.0-100.0","5f463b6fff834e000b9d679c","60201dea606b8d5e5aa9e528","6020226372486e5ea98a62d9","Mozilla/5.0 (Macintosh; Intel Mac OS X 11_0_1) AppleWebKit/537.36 (KHTML, like Gecko) Chrome/88.0.4324.150 Safari/537.36","v1-up-stims","","","","","","","","-80,-70,-60,-50,-40","media/audio/stims/spherical_300cm_s20_c1_cd-1_matched_a-70.wav","spherical","20","1","1","matched","-70","-80","779"
"echo-presentation","101","517963","0.0-101.0","5f463b6fff834e000b9d679c","60201dea606b8d5e5aa9e528","6020226372486e5ea98a62d9","Mozilla/5.0 (Macintosh; Intel Mac OS X 11_0_1) AppleWebKit/537.36 (KHTML, like Gecko) Chrome/88.0.4324.150 Safari/537.36","v1-up-stims","","","","","","","","-80,-70,-60,-50,-40","media/audio/stims/spherical_300cm_s20_c1_cd-1_matched_a-50.wav","spherical","20","1","1","matched","-50","-80","851"
"echo-presentation","102","519414","0.0-102.0","5f463b6fff834e000b9d679c","60201dea606b8d5e5aa9e528","6020226372486e5ea98a62d9","Mozilla/5.0 (Macintosh; Intel Mac OS X 11_0_1) AppleWebKit/537.36 (KHTML, like Gecko) Chrome/88.0.4324.150 Safari/537.36","v1-up-stims","","","","","","","","-80,-70,-60,-50,-40","media/audio/stims/spherical_300cm_s20_c1_cd-1_matched_a-50.wav","spherical","20","1","1","matched","-50","-80","770"
"echo-presentation","103","520842","0.0-103.0","5f463b6fff834e000b9d679c","60201dea606b8d5e5aa9e528","6020226372486e5ea98a62d9","Mozilla/5.0 (Macintosh; Intel Mac OS X 11_0_1) AppleWebKit/537.36 (KHTML, like Gecko) Chrome/88.0.4324.150 Safari/537.36","v1-up-stims","","","","","","","","-80,-70,-60,-50,-40","media/audio/stims/spherical_300cm_s20_c1_cd-1_matched_a-80.wav","spherical","20","1","1","matched","-80","-80","803"
"echo-presentation","104","522268","0.0-104.0","5f463b6fff834e000b9d679c","60201dea606b8d5e5aa9e528","6020226372486e5ea98a62d9","Mozilla/5.0 (Macintosh; Intel Mac OS X 11_0_1) AppleWebKit/537.36 (KHTML, like Gecko) Chrome/88.0.4324.150 Safari/537.36","v1-up-stims","","","","","","","","-80,-70,-60,-50,-40","media/audio/stims/spherical_300cm_s20_c1_cd-1_matched_a-50.wav","spherical","20","1","1","matched","-50","-80","629"
"echo-presentation","105","523776","0.0-105.0","5f463b6fff834e000b9d679c","60201dea606b8d5e5aa9e528","6020226372486e5ea98a62d9","Mozilla/5.0 (Macintosh; Intel Mac OS X 11_0_1) AppleWebKit/537.36 (KHTML, like Gecko) Chrome/88.0.4324.150 Safari/537.36","v1-up-stims","","","","","","","","-80,-70,-60,-50,-40","media/audio/stims/spherical_300cm_s20_c1_cd-1_matched_a-40.wav","spherical","20","1","1","matched","-40","-80","772"
"echo-presentation","106","525324","0.0-106.0","5f463b6fff834e000b9d679c","60201dea606b8d5e5aa9e528","6020226372486e5ea98a62d9","Mozilla/5.0 (Macintosh; Intel Mac OS X 11_0_1) AppleWebKit/537.36 (KHTML, like Gecko) Chrome/88.0.4324.150 Safari/537.36","v1-up-stims","","","","","","","","-80,-70,-60,-50,-40","media/audio/stims/spherical_300cm_s20_c1_cd-1_matched_a-50.wav","spherical","20","1","1","matched","-50","-80","771"
"echo-presentation","107","526837","0.0-107.0","5f463b6fff834e000b9d679c","60201dea606b8d5e5aa9e528","6020226372486e5ea98a62d9","Mozilla/5.0 (Macintosh; Intel Mac OS X 11_0_1) AppleWebKit/537.36 (KHTML, like Gecko) Chrome/88.0.4324.150 Safari/537.36","v1-up-stims","","","","","","","","-80,-70,-60,-50,-40","media/audio/stims/spherical_300cm_s20_c1_cd-1_matched_a-60.wav","spherical","20","1","1","matched","-60","-80","766"
"echo-presentation","108","528267","0.0-108.0","5f463b6fff834e000b9d679c","60201dea606b8d5e5aa9e528","6020226372486e5ea98a62d9","Mozilla/5.0 (Macintosh; Intel Mac OS X 11_0_1) AppleWebKit/537.36 (KHTML, like Gecko) Chrome/88.0.4324.150 Safari/537.36","v1-up-stims","","","","","","","","-80,-70,-60,-50,-40","media/audio/stims/spherical_300cm_s20_c1_cd-1_matched_a-80.wav","spherical","20","1","1","matched","-80","-80","799"
"echo-presentation","109","529666","0.0-109.0","5f463b6fff834e000b9d679c","60201dea606b8d5e5aa9e528","6020226372486e5ea98a62d9","Mozilla/5.0 (Macintosh; Intel Mac OS X 11_0_1) AppleWebKit/537.36 (KHTML, like Gecko) Chrome/88.0.4324.150 Safari/537.36","v1-up-stims","","","","","","","","-80,-70,-60,-50,-40","media/audio/stims/spherical_300cm_s20_c1_cd-1_matched_a-80.wav","spherical","20","1","1","matched","-80","-80","736"
"echo-presentation","110","531129","0.0-110.0","5f463b6fff834e000b9d679c","60201dea606b8d5e5aa9e528","6020226372486e5ea98a62d9","Mozilla/5.0 (Macintosh; Intel Mac OS X 11_0_1) AppleWebKit/537.36 (KHTML, like Gecko) Chrome/88.0.4324.150 Safari/537.36","v1-up-stims","","","","","","","","-80,-70,-60,-50,-40","media/audio/stims/spherical_300cm_s20_c1_cd-1_matched_a-40.wav","spherical","20","1","1","matched","-40","-80","742"
"echo-presentation","111","532526","0.0-111.0","5f463b6fff834e000b9d679c","60201dea606b8d5e5aa9e528","6020226372486e5ea98a62d9","Mozilla/5.0 (Macintosh; Intel Mac OS X 11_0_1) AppleWebKit/537.36 (KHTML, like Gecko) Chrome/88.0.4324.150 Safari/537.36","v1-up-stims","","","","","","","","-80,-70,-60,-50,-40","media/audio/stims/spherical_300cm_s20_c1_cd-1_matched_a-70.wav","spherical","20","1","1","matched","-70","-80","747"
"echo-presentation","112","534351","0.0-112.0","5f463b6fff834e000b9d679c","60201dea606b8d5e5aa9e528","6020226372486e5ea98a62d9","Mozilla/5.0 (Macintosh; Intel Mac OS X 11_0_1) AppleWebKit/537.36 (KHTML, like Gecko) Chrome/88.0.4324.150 Safari/537.36","v1-up-stims","","","","","","","","-80,-70,-60,-50,-40","media/audio/stims/spherical_300cm_s20_c1_cd-1_matched_a-40.wav","spherical","20","1","1","matched","-40","-80","778"
"echo-presentation","113","535767","0.0-113.0","5f463b6fff834e000b9d679c","60201dea606b8d5e5aa9e528","6020226372486e5ea98a62d9","Mozilla/5.0 (Macintosh; Intel Mac OS X 11_0_1) AppleWebKit/537.36 (KHTML, like Gecko) Chrome/88.0.4324.150 Safari/537.36","v1-up-stims","","","","","","","","-80,-70,-60,-50,-40","media/audio/stims/spherical_300cm_s20_c1_cd-1_matched_a-70.wav","spherical","20","1","1","matched","-70","-80","754"
"echo-presentation","114","537108","0.0-114.0","5f463b6fff834e000b9d679c","60201dea606b8d5e5aa9e528","6020226372486e5ea98a62d9","Mozilla/5.0 (Macintosh; Intel Mac OS X 11_0_1) AppleWebKit/537.36 (KHTML, like Gecko) Chrome/88.0.4324.150 Safari/537.36","v1-up-stims","","","","","","","","-80,-70,-60,-50,-40","media/audio/stims/spherical_300cm_s20_c1_cd-1_matched_a-60.wav","spherical","20","1","1","matched","-60","-80","711"
"echo-presentation","115","538995","0.0-115.0","5f463b6fff834e000b9d679c","60201dea606b8d5e5aa9e528","6020226372486e5ea98a62d9","Mozilla/5.0 (Macintosh; Intel Mac OS X 11_0_1) AppleWebKit/537.36 (KHTML, like Gecko) Chrome/88.0.4324.150 Safari/537.36","v1-up-stims","","","","","","","","-80,-70,-60,-50,-40","media/audio/stims/spherical_300cm_s20_c1_cd-1_matched_a-40.wav","spherical","20","1","1","matched","-40","-80","728"
"block-bookend","116","539718","0.0-116.0","5f463b6fff834e000b9d679c","60201dea606b8d5e5aa9e528","6020226372486e5ea98a62d9","Mozilla/5.0 (Macintosh; Intel Mac OS X 11_0_1) AppleWebKit/537.36 (KHTML, like Gecko) Chrome/88.0.4324.150 Safari/537.36","v1-up-stims","","","","","","","","","","","","","","","","",""
"block-bookend","117","543466","0.0-117.0","5f463b6fff834e000b9d679c","60201dea606b8d5e5aa9e528","6020226372486e5ea98a62d9","Mozilla/5.0 (Macintosh; Intel Mac OS X 11_0_1) AppleWebKit/537.36 (KHTML, like Gecko) Chrome/88.0.4324.150 Safari/537.36","v1-up-stims","","","","","","","","","","","","","","","","",""
"echo-presentation","118","546129","0.0-118.0","5f463b6fff834e000b9d679c","60201dea606b8d5e5aa9e528","6020226372486e5ea98a62d9","Mozilla/5.0 (Macintosh; Intel Mac OS X 11_0_1) AppleWebKit/537.36 (KHTML, like Gecko) Chrome/88.0.4324.150 Safari/537.36","v1-up-stims","","","","","","","","-80,-70,-60,-50,-40","media/audio/stims/spherical_300cm_s20_c1_cd-1_matched_a-70.wav","spherical","20","1","1","matched","-70","-80","909"
"echo-presentation","119","547609","0.0-119.0","5f463b6fff834e000b9d679c","60201dea606b8d5e5aa9e528","6020226372486e5ea98a62d9","Mozilla/5.0 (Macintosh; Intel Mac OS X 11_0_1) AppleWebKit/537.36 (KHTML, like Gecko) Chrome/88.0.4324.150 Safari/537.36","v1-up-stims","","","","","","","","-80,-70,-60,-50,-40","media/audio/stims/spherical_300cm_s20_c1_cd-1_matched_a-70.wav","spherical","20","1","1","matched","-70","-80","788"
"echo-presentation","120","549072","0.0-120.0","5f463b6fff834e000b9d679c","60201dea606b8d5e5aa9e528","6020226372486e5ea98a62d9","Mozilla/5.0 (Macintosh; Intel Mac OS X 11_0_1) AppleWebKit/537.36 (KHTML, like Gecko) Chrome/88.0.4324.150 Safari/537.36","v1-up-stims","","","","","","","","-80,-70,-60,-50,-40","media/audio/stims/spherical_300cm_s20_c1_cd-1_matched_a-60.wav","spherical","20","1","1","matched","-60","-80","726"
"echo-presentation","121","550621","0.0-121.0","5f463b6fff834e000b9d679c","60201dea606b8d5e5aa9e528","6020226372486e5ea98a62d9","Mozilla/5.0 (Macintosh; Intel Mac OS X 11_0_1) AppleWebKit/537.36 (KHTML, like Gecko) Chrome/88.0.4324.150 Safari/537.36","v1-up-stims","","","","","","","","-80,-70,-60,-50,-40","media/audio/stims/spherical_300cm_s20_c1_cd-1_matched_a-60.wav","spherical","20","1","1","matched","-60","-80","777"
"echo-presentation","122","552039","0.0-122.0","5f463b6fff834e000b9d679c","60201dea606b8d5e5aa9e528","6020226372486e5ea98a62d9","Mozilla/5.0 (Macintosh; Intel Mac OS X 11_0_1) AppleWebKit/537.36 (KHTML, like Gecko) Chrome/88.0.4324.150 Safari/537.36","v1-up-stims","","","","","","","","-80,-70,-60,-50,-40","media/audio/stims/spherical_300cm_s20_c1_cd-1_matched_a-60.wav","spherical","20","1","1","matched","-60","-80","727"
"echo-presentation","123","553833","0.0-123.0","5f463b6fff834e000b9d679c","60201dea606b8d5e5aa9e528","6020226372486e5ea98a62d9","Mozilla/5.0 (Macintosh; Intel Mac OS X 11_0_1) AppleWebKit/537.36 (KHTML, like Gecko) Chrome/88.0.4324.150 Safari/537.36","v1-up-stims","","","","","","","","-80,-70,-60,-50,-40","media/audio/stims/spherical_300cm_s20_c1_cd-1_matched_a-50.wav","spherical","20","1","1","matched","-50","-80","816"
"echo-presentation","124","555272","0.0-124.0","5f463b6fff834e000b9d679c","60201dea606b8d5e5aa9e528","6020226372486e5ea98a62d9","Mozilla/5.0 (Macintosh; Intel Mac OS X 11_0_1) AppleWebKit/537.36 (KHTML, like Gecko) Chrome/88.0.4324.150 Safari/537.36","v1-up-stims","","","","","","","","-80,-70,-60,-50,-40","media/audio/stims/spherical_300cm_s20_c1_cd-1_matched_a-80.wav","spherical","20","1","1","matched","-80","-80","758"
"echo-presentation","125","556579","0.0-125.0","5f463b6fff834e000b9d679c","60201dea606b8d5e5aa9e528","6020226372486e5ea98a62d9","Mozilla/5.0 (Macintosh; Intel Mac OS X 11_0_1) AppleWebKit/537.36 (KHTML, like Gecko) Chrome/88.0.4324.150 Safari/537.36","v1-up-stims","","","","","","","","-80,-70,-60,-50,-40","media/audio/stims/spherical_300cm_s20_c1_cd-1_matched_a-50.wav","spherical","20","1","1","matched","-50","-80","716"
"echo-presentation","126","557863","0.0-126.0","5f463b6fff834e000b9d679c","60201dea606b8d5e5aa9e528","6020226372486e5ea98a62d9","Mozilla/5.0 (Macintosh; Intel Mac OS X 11_0_1) AppleWebKit/537.36 (KHTML, like Gecko) Chrome/88.0.4324.150 Safari/537.36","v1-up-stims","","","","","","","","-80,-70,-60,-50,-40","media/audio/stims/spherical_300cm_s20_c1_cd-1_matched_a-50.wav","spherical","20","1","1","matched","-50","-80","681"
"echo-presentation","127","559208","0.0-127.0","5f463b6fff834e000b9d679c","60201dea606b8d5e5aa9e528","6020226372486e5ea98a62d9","Mozilla/5.0 (Macintosh; Intel Mac OS X 11_0_1) AppleWebKit/537.36 (KHTML, like Gecko) Chrome/88.0.4324.150 Safari/537.36","v1-up-stims","","","","","","","","-80,-70,-60,-50,-40","media/audio/stims/spherical_300cm_s20_c1_cd-1_matched_a-80.wav","spherical","20","1","1","matched","-80","-80","720"
"echo-presentation","128","560520","0.0-128.0","5f463b6fff834e000b9d679c","60201dea606b8d5e5aa9e528","6020226372486e5ea98a62d9","Mozilla/5.0 (Macintosh; Intel Mac OS X 11_0_1) AppleWebKit/537.36 (KHTML, like Gecko) Chrome/88.0.4324.150 Safari/537.36","v1-up-stims","","","","","","","","-80,-70,-60,-50,-40","media/audio/stims/spherical_300cm_s20_c1_cd-1_matched_a-40.wav","spherical","20","1","1","matched","-40","-80","683"
"echo-presentation","129","561798","0.0-129.0","5f463b6fff834e000b9d679c","60201dea606b8d5e5aa9e528","6020226372486e5ea98a62d9","Mozilla/5.0 (Macintosh; Intel Mac OS X 11_0_1) AppleWebKit/537.36 (KHTML, like Gecko) Chrome/88.0.4324.150 Safari/537.36","v1-up-stims","","","","","","","","-80,-70,-60,-50,-40","media/audio/stims/spherical_300cm_s20_c1_cd-1_matched_a-40.wav","spherical","20","1","1","matched","-40","-80","716"
"echo-presentation","130","563196","0.0-130.0","5f463b6fff834e000b9d679c","60201dea606b8d5e5aa9e528","6020226372486e5ea98a62d9","Mozilla/5.0 (Macintosh; Intel Mac OS X 11_0_1) AppleWebKit/537.36 (KHTML, like Gecko) Chrome/88.0.4324.150 Safari/537.36","v1-up-stims","","","","","","","","-80,-70,-60,-50,-40","media/audio/stims/spherical_300cm_s20_c1_cd-1_matched_a-40.wav","spherical","20","1","1","matched","-40","-80","709"
"echo-presentation","131","564505","0.0-131.0","5f463b6fff834e000b9d679c","60201dea606b8d5e5aa9e528","6020226372486e5ea98a62d9","Mozilla/5.0 (Macintosh; Intel Mac OS X 11_0_1) AppleWebKit/537.36 (KHTML, like Gecko) Chrome/88.0.4324.150 Safari/537.36","v1-up-stims","","","","","","","","-80,-70,-60,-50,-40","media/audio/stims/spherical_300cm_s20_c1_cd-1_matched_a-60.wav","spherical","20","1","1","matched","-60","-80","745"
"echo-presentation","132","565742","0.0-132.0","5f463b6fff834e000b9d679c","60201dea606b8d5e5aa9e528","6020226372486e5ea98a62d9","Mozilla/5.0 (Macintosh; Intel Mac OS X 11_0_1) AppleWebKit/537.36 (KHTML, like Gecko) Chrome/88.0.4324.150 Safari/537.36","v1-up-stims","","","","","","","","-80,-70,-60,-50,-40","media/audio/stims/spherical_300cm_s20_c1_cd-1_matched_a-40.wav","spherical","20","1","1","matched","-40","-80","658"
"echo-presentation","133","567155","0.0-133.0","5f463b6fff834e000b9d679c","60201dea606b8d5e5aa9e528","6020226372486e5ea98a62d9","Mozilla/5.0 (Macintosh; Intel Mac OS X 11_0_1) AppleWebKit/537.36 (KHTML, like Gecko) Chrome/88.0.4324.150 Safari/537.36","v1-up-stims","","","","","","","","-80,-70,-60,-50,-40","media/audio/stims/spherical_300cm_s20_c1_cd-1_matched_a-50.wav","spherical","20","1","1","matched","-50","-80","707"
"echo-presentation","134","568945","0.0-134.0","5f463b6fff834e000b9d679c","60201dea606b8d5e5aa9e528","6020226372486e5ea98a62d9","Mozilla/5.0 (Macintosh; Intel Mac OS X 11_0_1) AppleWebKit/537.36 (KHTML, like Gecko) Chrome/88.0.4324.150 Safari/537.36","v1-up-stims","","","","","","","","-80,-70,-60,-50,-40","media/audio/stims/spherical_300cm_s20_c1_cd-1_matched_a-80.wav","spherical","20","1","1","matched","-80","-80","696"
"echo-presentation","135","570305","0.0-135.0","5f463b6fff834e000b9d679c","60201dea606b8d5e5aa9e528","6020226372486e5ea98a62d9","Mozilla/5.0 (Macintosh; Intel Mac OS X 11_0_1) AppleWebKit/537.36 (KHTML, like Gecko) Chrome/88.0.4324.150 Safari/537.36","v1-up-stims","","","","","","","","-80,-70,-60,-50,-40","media/audio/stims/spherical_300cm_s20_c1_cd-1_matched_a-80.wav","spherical","20","1","1","matched","-80","-80","711"
"echo-presentation","136","571578","0.0-136.0","5f463b6fff834e000b9d679c","60201dea606b8d5e5aa9e528","6020226372486e5ea98a62d9","Mozilla/5.0 (Macintosh; Intel Mac OS X 11_0_1) AppleWebKit/537.36 (KHTML, like Gecko) Chrome/88.0.4324.150 Safari/537.36","v1-up-stims","","","","","","","","-80,-70,-60,-50,-40","media/audio/stims/spherical_300cm_s20_c1_cd-1_matched_a-70.wav","spherical","20","1","1","matched","-70","-80","704"
"echo-presentation","137","572926","0.0-137.0","5f463b6fff834e000b9d679c","60201dea606b8d5e5aa9e528","6020226372486e5ea98a62d9","Mozilla/5.0 (Macintosh; Intel Mac OS X 11_0_1) AppleWebKit/537.36 (KHTML, like Gecko) Chrome/88.0.4324.150 Safari/537.36","v1-up-stims","","","","","","","","-80,-70,-60,-50,-40","media/audio/stims/spherical_300cm_s20_c1_cd-1_matched_a-70.wav","spherical","20","1","1","matched","-70","-80","750"
"block-bookend","138","574340","0.0-138.0","5f463b6fff834e000b9d679c","60201dea606b8d5e5aa9e528","6020226372486e5ea98a62d9","Mozilla/5.0 (Macintosh; Intel Mac OS X 11_0_1) AppleWebKit/537.36 (KHTML, like Gecko) Chrome/88.0.4324.150 Safari/537.36","v1-up-stims","","","","","","","","","","","","","","","","",""
