"trial_type","trial_index","time_elapsed","internal_node_id","prolificPid","studyId","sessionId","userAgent","version","rt","stimulus","key_press","chosenKeyset","failureCount","testIndex","globalVolume","choices","filename","modelName","slowdown","compensation","compensationDescriptor","receiverOrientationType","azimuth","responseAzimuth","responseDelay"
"pavlovia","0","3","0.0-0.0","5f4d2135061bf00dc540271b","60201dea606b8d5e5aa9e528","60202722bc36895c7a4820e2","Mozilla/5.0 (Windows NT 10.0; Win64; x64) AppleWebKit/537.36 (KHTML, like Gecko) Chrome/88.0.4324.152 Safari/537.36","v1-up-stims","","","","","","","","","","","","","","","","",""
"html-keyboard-response","1","163293","0.0-1.0","5f4d2135061bf00dc540271b","60201dea606b8d5e5aa9e528","60202722bc36895c7a4820e2","Mozilla/5.0 (Windows NT 10.0; Win64; x64) AppleWebKit/537.36 (KHTML, like Gecko) Chrome/88.0.4324.152 Safari/537.36","v1-up-stims","163289.5950000002","<div><h1>Welcome!</h1><p>Press any key to continue.</p></div>","32","","","","","","","","","","","","","",""
"consent-form","2","217270","0.0-2.0","5f4d2135061bf00dc540271b","60201dea606b8d5e5aa9e528","60202722bc36895c7a4820e2","Mozilla/5.0 (Windows NT 10.0; Win64; x64) AppleWebKit/537.36 (KHTML, like Gecko) Chrome/88.0.4324.152 Safari/537.36","v1-up-stims","","","","","","","","","","","","","","","","",""
"keyset-select","3","246354","0.0-3.0","5f4d2135061bf00dc540271b","60201dea606b8d5e5aa9e528","60202722bc36895c7a4820e2","Mozilla/5.0 (Windows NT 10.0; Win64; x64) AppleWebKit/537.36 (KHTML, like Gecko) Chrome/88.0.4324.152 Safari/537.36","v1-up-stims","","","","right-hand","","","","","","","","","","","","",""
"headphone-check","4","299663","0.0-4.0","5f4d2135061bf00dc540271b","60201dea606b8d5e5aa9e528","60202722bc36895c7a4820e2","Mozilla/5.0 (Windows NT 10.0; Win64; x64) AppleWebKit/537.36 (KHTML, like Gecko) Chrome/88.0.4324.152 Safari/537.36","v1-up-stims","","","","","0","6","0.7","","","","","","","","","",""
"headphone-backwards-check","5","312708","0.0-5.0","5f4d2135061bf00dc540271b","60201dea606b8d5e5aa9e528","60202722bc36895c7a4820e2","Mozilla/5.0 (Windows NT 10.0; Win64; x64) AppleWebKit/537.36 (KHTML, like Gecko) Chrome/88.0.4324.152 Safari/537.36","v1-up-stims","","","","","0","","","","","","","","","","","",""
"training","6","405925","0.0-6.0","5f4d2135061bf00dc540271b","60201dea606b8d5e5aa9e528","60202722bc36895c7a4820e2","Mozilla/5.0 (Windows NT 10.0; Win64; x64) AppleWebKit/537.36 (KHTML, like Gecko) Chrome/88.0.4324.152 Safari/537.36","v1-up-stims","","","","","","","","","","","","","","","","",""
"block-bookend","7","419661","0.0-7.0","5f4d2135061bf00dc540271b","60201dea606b8d5e5aa9e528","60202722bc36895c7a4820e2","Mozilla/5.0 (Windows NT 10.0; Win64; x64) AppleWebKit/537.36 (KHTML, like Gecko) Chrome/88.0.4324.152 Safari/537.36","v1-up-stims","","","","","","","","","","","","","","","","",""
"echo-presentation","8","423099","0.0-8.0","5f4d2135061bf00dc540271b","60201dea606b8d5e5aa9e528","60202722bc36895c7a4820e2","Mozilla/5.0 (Windows NT 10.0; Win64; x64) AppleWebKit/537.36 (KHTML, like Gecko) Chrome/88.0.4324.152 Safari/537.36","v1-up-stims","","","","","","","","-80,-70,-60,-50,-40","media/audio/stims/spherical_300cm_s20_c1_cd-1_matched_a-50.wav","spherical","20","1","1","matched","-50","-70","1598"
"echo-presentation","9","427607","0.0-9.0","5f4d2135061bf00dc540271b","60201dea606b8d5e5aa9e528","60202722bc36895c7a4820e2","Mozilla/5.0 (Windows NT 10.0; Win64; x64) AppleWebKit/537.36 (KHTML, like Gecko) Chrome/88.0.4324.152 Safari/537.36","v1-up-stims","","","","","","","","-80,-70,-60,-50,-40","media/audio/stims/spherical_300cm_s20_c1_cd-1_matched_a-60.wav","spherical","20","1","1","matched","-60","-80","2069"
"echo-presentation","10","433451","0.0-10.0","5f4d2135061bf00dc540271b","60201dea606b8d5e5aa9e528","60202722bc36895c7a4820e2","Mozilla/5.0 (Windows NT 10.0; Win64; x64) AppleWebKit/537.36 (KHTML, like Gecko) Chrome/88.0.4324.152 Safari/537.36","v1-up-stims","","","","","","","","-80,-70,-60,-50,-40","media/audio/stims/spherical_300cm_s20_c1_cd-1_matched_a-60.wav","spherical","20","1","1","matched","-60","-80","4574"
"echo-presentation","11","438554","0.0-11.0","5f4d2135061bf00dc540271b","60201dea606b8d5e5aa9e528","60202722bc36895c7a4820e2","Mozilla/5.0 (Windows NT 10.0; Win64; x64) AppleWebKit/537.36 (KHTML, like Gecko) Chrome/88.0.4324.152 Safari/537.36","v1-up-stims","","","","","","","","-80,-70,-60,-50,-40","media/audio/stims/spherical_300cm_s20_c1_cd-1_matched_a-70.wav","spherical","20","1","1","matched","-70","-80","3919"
"echo-presentation","12","441931","0.0-12.0","5f4d2135061bf00dc540271b","60201dea606b8d5e5aa9e528","60202722bc36895c7a4820e2","Mozilla/5.0 (Windows NT 10.0; Win64; x64) AppleWebKit/537.36 (KHTML, like Gecko) Chrome/88.0.4324.152 Safari/537.36","v1-up-stims","","","","","","","","-80,-70,-60,-50,-40","media/audio/stims/spherical_300cm_s20_c1_cd-1_matched_a-80.wav","spherical","20","1","1","matched","-80","-80","1950"
"echo-presentation","13","443909","0.0-13.0","5f4d2135061bf00dc540271b","60201dea606b8d5e5aa9e528","60202722bc36895c7a4820e2","Mozilla/5.0 (Windows NT 10.0; Win64; x64) AppleWebKit/537.36 (KHTML, like Gecko) Chrome/88.0.4324.152 Safari/537.36","v1-up-stims","","","","","","","","-80,-70,-60,-50,-40","media/audio/stims/spherical_300cm_s20_c1_cd-1_matched_a-60.wav","spherical","20","1","1","matched","-60","-80","910"
"echo-presentation","14","447088","0.0-14.0","5f4d2135061bf00dc540271b","60201dea606b8d5e5aa9e528","60202722bc36895c7a4820e2","Mozilla/5.0 (Windows NT 10.0; Win64; x64) AppleWebKit/537.36 (KHTML, like Gecko) Chrome/88.0.4324.152 Safari/537.36","v1-up-stims","","","","","","","","-80,-70,-60,-50,-40","media/audio/stims/spherical_300cm_s20_c1_cd-1_matched_a-40.wav","spherical","20","1","1","matched","-40","-80","2222"
"echo-presentation","15","449477","0.0-15.0","5f4d2135061bf00dc540271b","60201dea606b8d5e5aa9e528","60202722bc36895c7a4820e2","Mozilla/5.0 (Windows NT 10.0; Win64; x64) AppleWebKit/537.36 (KHTML, like Gecko) Chrome/88.0.4324.152 Safari/537.36","v1-up-stims","","","","","","","","-80,-70,-60,-50,-40","media/audio/stims/spherical_300cm_s20_c1_cd-1_matched_a-50.wav","spherical","20","1","1","matched","-50","-80","1382"
"echo-presentation","16","453203","0.0-16.0","5f4d2135061bf00dc540271b","60201dea606b8d5e5aa9e528","60202722bc36895c7a4820e2","Mozilla/5.0 (Windows NT 10.0; Win64; x64) AppleWebKit/537.36 (KHTML, like Gecko) Chrome/88.0.4324.152 Safari/537.36","v1-up-stims","","","","","","","","-80,-70,-60,-50,-40","media/audio/stims/spherical_300cm_s20_c1_cd-1_matched_a-80.wav","spherical","20","1","1","matched","-80","-80","1734"
"echo-presentation","17","455305","0.0-17.0","5f4d2135061bf00dc540271b","60201dea606b8d5e5aa9e528","60202722bc36895c7a4820e2","Mozilla/5.0 (Windows NT 10.0; Win64; x64) AppleWebKit/537.36 (KHTML, like Gecko) Chrome/88.0.4324.152 Safari/537.36","v1-up-stims","","","","","","","","-80,-70,-60,-50,-40","media/audio/stims/spherical_300cm_s20_c1_cd-1_matched_a-40.wav","spherical","20","1","1","matched","-40","-80","1102"
"echo-presentation","18","457279","0.0-18.0","5f4d2135061bf00dc540271b","60201dea606b8d5e5aa9e528","60202722bc36895c7a4820e2","Mozilla/5.0 (Windows NT 10.0; Win64; x64) AppleWebKit/537.36 (KHTML, like Gecko) Chrome/88.0.4324.152 Safari/537.36","v1-up-stims","","","","","","","","-80,-70,-60,-50,-40","media/audio/stims/spherical_300cm_s20_c1_cd-1_matched_a-70.wav","spherical","20","1","1","matched","-70","-80","998"
"echo-presentation","19","459730","0.0-19.0","5f4d2135061bf00dc540271b","60201dea606b8d5e5aa9e528","60202722bc36895c7a4820e2","Mozilla/5.0 (Windows NT 10.0; Win64; x64) AppleWebKit/537.36 (KHTML, like Gecko) Chrome/88.0.4324.152 Safari/537.36","v1-up-stims","","","","","","","","-80,-70,-60,-50,-40","media/audio/stims/spherical_300cm_s20_c1_cd-1_matched_a-40.wav","spherical","20","1","1","matched","-40","-80","1102"
"echo-presentation","20","461740","0.0-20.0","5f4d2135061bf00dc540271b","60201dea606b8d5e5aa9e528","60202722bc36895c7a4820e2","Mozilla/5.0 (Windows NT 10.0; Win64; x64) AppleWebKit/537.36 (KHTML, like Gecko) Chrome/88.0.4324.152 Safari/537.36","v1-up-stims","","","","","","","","-80,-70,-60,-50,-40","media/audio/stims/spherical_300cm_s20_c1_cd-1_matched_a-70.wav","spherical","20","1","1","matched","-70","-80","1111"
"echo-presentation","21","464078","0.0-21.0","5f4d2135061bf00dc540271b","60201dea606b8d5e5aa9e528","60202722bc36895c7a4820e2","Mozilla/5.0 (Windows NT 10.0; Win64; x64) AppleWebKit/537.36 (KHTML, like Gecko) Chrome/88.0.4324.152 Safari/537.36","v1-up-stims","","","","","","","","-80,-70,-60,-50,-40","media/audio/stims/spherical_300cm_s20_c1_cd-1_matched_a-60.wav","spherical","20","1","1","matched","-60","-80","1173"
"echo-presentation","22","466611","0.0-22.0","5f4d2135061bf00dc540271b","60201dea606b8d5e5aa9e528","60202722bc36895c7a4820e2","Mozilla/5.0 (Windows NT 10.0; Win64; x64) AppleWebKit/537.36 (KHTML, like Gecko) Chrome/88.0.4324.152 Safari/537.36","v1-up-stims","","","","","","","","-80,-70,-60,-50,-40","media/audio/stims/spherical_300cm_s20_c1_cd-1_matched_a-70.wav","spherical","20","1","1","matched","-70","-80","1559"
"echo-presentation","23","469301","0.0-23.0","5f4d2135061bf00dc540271b","60201dea606b8d5e5aa9e528","60202722bc36895c7a4820e2","Mozilla/5.0 (Windows NT 10.0; Win64; x64) AppleWebKit/537.36 (KHTML, like Gecko) Chrome/88.0.4324.152 Safari/537.36","v1-up-stims","","","","","","","","-80,-70,-60,-50,-40","media/audio/stims/spherical_300cm_s20_c1_cd-1_matched_a-50.wav","spherical","20","1","1","matched","-50","-80","1077"
"echo-presentation","24","471469","0.0-24.0","5f4d2135061bf00dc540271b","60201dea606b8d5e5aa9e528","60202722bc36895c7a4820e2","Mozilla/5.0 (Windows NT 10.0; Win64; x64) AppleWebKit/537.36 (KHTML, like Gecko) Chrome/88.0.4324.152 Safari/537.36","v1-up-stims","","","","","","","","-80,-70,-60,-50,-40","media/audio/stims/spherical_300cm_s20_c1_cd-1_matched_a-80.wav","spherical","20","1","1","matched","-80","-80","1374"
"echo-presentation","25","474024","0.0-25.0","5f4d2135061bf00dc540271b","60201dea606b8d5e5aa9e528","60202722bc36895c7a4820e2","Mozilla/5.0 (Windows NT 10.0; Win64; x64) AppleWebKit/537.36 (KHTML, like Gecko) Chrome/88.0.4324.152 Safari/537.36","v1-up-stims","","","","","","","","-80,-70,-60,-50,-40","media/audio/stims/spherical_300cm_s20_c1_cd-1_matched_a-50.wav","spherical","20","1","1","matched","-50","-80","1054"
"echo-presentation","26","475956","0.0-26.0","5f4d2135061bf00dc540271b","60201dea606b8d5e5aa9e528","60202722bc36895c7a4820e2","Mozilla/5.0 (Windows NT 10.0; Win64; x64) AppleWebKit/537.36 (KHTML, like Gecko) Chrome/88.0.4324.152 Safari/537.36","v1-up-stims","","","","","","","","-80,-70,-60,-50,-40","media/audio/stims/spherical_300cm_s20_c1_cd-1_matched_a-40.wav","spherical","20","1","1","matched","-40","-80","886"
"echo-presentation","27","478281","0.0-27.0","5f4d2135061bf00dc540271b","60201dea606b8d5e5aa9e528","60202722bc36895c7a4820e2","Mozilla/5.0 (Windows NT 10.0; Win64; x64) AppleWebKit/537.36 (KHTML, like Gecko) Chrome/88.0.4324.152 Safari/537.36","v1-up-stims","","","","","","","","-80,-70,-60,-50,-40","media/audio/stims/spherical_300cm_s20_c1_cd-1_matched_a-80.wav","spherical","20","1","1","matched","-80","-80","1214"
"block-bookend","28","481510","0.0-28.0","5f4d2135061bf00dc540271b","60201dea606b8d5e5aa9e528","60202722bc36895c7a4820e2","Mozilla/5.0 (Windows NT 10.0; Win64; x64) AppleWebKit/537.36 (KHTML, like Gecko) Chrome/88.0.4324.152 Safari/537.36","v1-up-stims","","","","","","","","","","","","","","","","",""
"block-bookend","29","491286","0.0-29.0","5f4d2135061bf00dc540271b","60201dea606b8d5e5aa9e528","60202722bc36895c7a4820e2","Mozilla/5.0 (Windows NT 10.0; Win64; x64) AppleWebKit/537.36 (KHTML, like Gecko) Chrome/88.0.4324.152 Safari/537.36","v1-up-stims","","","","","","","","","","","","","","","","",""
"echo-presentation","30","495566","0.0-30.0","5f4d2135061bf00dc540271b","60201dea606b8d5e5aa9e528","60202722bc36895c7a4820e2","Mozilla/5.0 (Windows NT 10.0; Win64; x64) AppleWebKit/537.36 (KHTML, like Gecko) Chrome/88.0.4324.152 Safari/537.36","v1-up-stims","","","","","","","","-80,-70,-60,-50,-40","media/audio/stims/spherical_300cm_s20_c1_cd-1_matched_a-80.wav","spherical","20","1","1","matched","-80","-80","2605"
"echo-presentation","31","501136","0.0-31.0","5f4d2135061bf00dc540271b","60201dea606b8d5e5aa9e528","60202722bc36895c7a4820e2","Mozilla/5.0 (Windows NT 10.0; Win64; x64) AppleWebKit/537.36 (KHTML, like Gecko) Chrome/88.0.4324.152 Safari/537.36","v1-up-stims","","","","","","","","-80,-70,-60,-50,-40","media/audio/stims/spherical_300cm_s20_c1_cd-1_matched_a-50.wav","spherical","20","1","1","matched","-50","-70","2063"
"echo-presentation","32","503904","0.0-32.0","5f4d2135061bf00dc540271b","60201dea606b8d5e5aa9e528","60202722bc36895c7a4820e2","Mozilla/5.0 (Windows NT 10.0; Win64; x64) AppleWebKit/537.36 (KHTML, like Gecko) Chrome/88.0.4324.152 Safari/537.36","v1-up-stims","","","","","","","","-80,-70,-60,-50,-40","media/audio/stims/spherical_300cm_s20_c1_cd-1_matched_a-70.wav","spherical","20","1","1","matched","-70","-70","1431"
"echo-presentation","33","506387","0.0-33.0","5f4d2135061bf00dc540271b","60201dea606b8d5e5aa9e528","60202722bc36895c7a4820e2","Mozilla/5.0 (Windows NT 10.0; Win64; x64) AppleWebKit/537.36 (KHTML, like Gecko) Chrome/88.0.4324.152 Safari/537.36","v1-up-stims","","","","","","","","-80,-70,-60,-50,-40","media/audio/stims/spherical_300cm_s20_c1_cd-1_matched_a-60.wav","spherical","20","1","1","matched","-60","-70","1566"
"echo-presentation","34","508241","0.0-34.0","5f4d2135061bf00dc540271b","60201dea606b8d5e5aa9e528","60202722bc36895c7a4820e2","Mozilla/5.0 (Windows NT 10.0; Win64; x64) AppleWebKit/537.36 (KHTML, like Gecko) Chrome/88.0.4324.152 Safari/537.36","v1-up-stims","","","","","","","","-80,-70,-60,-50,-40","media/audio/stims/spherical_300cm_s20_c1_cd-1_matched_a-80.wav","spherical","20","1","1","matched","-80","-70","1006"
"echo-presentation","35","510733","0.0-35.0","5f4d2135061bf00dc540271b","60201dea606b8d5e5aa9e528","60202722bc36895c7a4820e2","Mozilla/5.0 (Windows NT 10.0; Win64; x64) AppleWebKit/537.36 (KHTML, like Gecko) Chrome/88.0.4324.152 Safari/537.36","v1-up-stims","","","","","","","","-80,-70,-60,-50,-40","media/audio/stims/spherical_300cm_s20_c1_cd-1_matched_a-70.wav","spherical","20","1","1","matched","-70","-70","1598"
"echo-presentation","36","513373","0.0-36.0","5f4d2135061bf00dc540271b","60201dea606b8d5e5aa9e528","60202722bc36895c7a4820e2","Mozilla/5.0 (Windows NT 10.0; Win64; x64) AppleWebKit/537.36 (KHTML, like Gecko) Chrome/88.0.4324.152 Safari/537.36","v1-up-stims","","","","","","","","-80,-70,-60,-50,-40","media/audio/stims/spherical_300cm_s20_c1_cd-1_matched_a-50.wav","spherical","20","1","1","matched","-50","-80","1878"
"echo-presentation","37","516289","0.0-37.0","5f4d2135061bf00dc540271b","60201dea606b8d5e5aa9e528","60202722bc36895c7a4820e2","Mozilla/5.0 (Windows NT 10.0; Win64; x64) AppleWebKit/537.36 (KHTML, like Gecko) Chrome/88.0.4324.152 Safari/537.36","v1-up-stims","","","","","","","","-80,-70,-60,-50,-40","media/audio/stims/spherical_300cm_s20_c1_cd-1_matched_a-40.wav","spherical","20","1","1","matched","-40","-60","1741"
"echo-presentation","38","519859","0.0-38.0","5f4d2135061bf00dc540271b","60201dea606b8d5e5aa9e528","60202722bc36895c7a4820e2","Mozilla/5.0 (Windows NT 10.0; Win64; x64) AppleWebKit/537.36 (KHTML, like Gecko) Chrome/88.0.4324.152 Safari/537.36","v1-up-stims","","","","","","","","-80,-70,-60,-50,-40","media/audio/stims/spherical_300cm_s20_c1_cd-1_matched_a-60.wav","spherical","20","1","1","matched","-60","-70","1597"
"echo-presentation","39","522821","0.0-39.0","5f4d2135061bf00dc540271b","60201dea606b8d5e5aa9e528","60202722bc36895c7a4820e2","Mozilla/5.0 (Windows NT 10.0; Win64; x64) AppleWebKit/537.36 (KHTML, like Gecko) Chrome/88.0.4324.152 Safari/537.36","v1-up-stims","","","","","","","","-80,-70,-60,-50,-40","media/audio/stims/spherical_300cm_s20_c1_cd-1_matched_a-50.wav","spherical","20","1","1","matched","-50","-70","1958"
"echo-presentation","40","525228","0.0-40.0","5f4d2135061bf00dc540271b","60201dea606b8d5e5aa9e528","60202722bc36895c7a4820e2","Mozilla/5.0 (Windows NT 10.0; Win64; x64) AppleWebKit/537.36 (KHTML, like Gecko) Chrome/88.0.4324.152 Safari/537.36","v1-up-stims","","","","","","","","-80,-70,-60,-50,-40","media/audio/stims/spherical_300cm_s20_c1_cd-1_matched_a-70.wav","spherical","20","1","1","matched","-70","-70","1367"
"echo-presentation","41","527298","0.0-41.0","5f4d2135061bf00dc540271b","60201dea606b8d5e5aa9e528","60202722bc36895c7a4820e2","Mozilla/5.0 (Windows NT 10.0; Win64; x64) AppleWebKit/537.36 (KHTML, like Gecko) Chrome/88.0.4324.152 Safari/537.36","v1-up-stims","","","","","","","","-80,-70,-60,-50,-40","media/audio/stims/spherical_300cm_s20_c1_cd-1_matched_a-60.wav","spherical","20","1","1","matched","-60","-80","1246"
"echo-presentation","42","529846","0.0-42.0","5f4d2135061bf00dc540271b","60201dea606b8d5e5aa9e528","60202722bc36895c7a4820e2","Mozilla/5.0 (Windows NT 10.0; Win64; x64) AppleWebKit/537.36 (KHTML, like Gecko) Chrome/88.0.4324.152 Safari/537.36","v1-up-stims","","","","","","","","-80,-70,-60,-50,-40","media/audio/stims/spherical_300cm_s20_c1_cd-1_matched_a-80.wav","spherical","20","1","1","matched","-80","-70","1982"
"echo-presentation","43","533056","0.0-43.0","5f4d2135061bf00dc540271b","60201dea606b8d5e5aa9e528","60202722bc36895c7a4820e2","Mozilla/5.0 (Windows NT 10.0; Win64; x64) AppleWebKit/537.36 (KHTML, like Gecko) Chrome/88.0.4324.152 Safari/537.36","v1-up-stims","","","","","","","","-80,-70,-60,-50,-40","media/audio/stims/spherical_300cm_s20_c1_cd-1_matched_a-40.wav","spherical","20","1","1","matched","-40","-70","1511"
"echo-presentation","44","535038","0.0-44.0","5f4d2135061bf00dc540271b","60201dea606b8d5e5aa9e528","60202722bc36895c7a4820e2","Mozilla/5.0 (Windows NT 10.0; Win64; x64) AppleWebKit/537.36 (KHTML, like Gecko) Chrome/88.0.4324.152 Safari/537.36","v1-up-stims","","","","","","","","-80,-70,-60,-50,-40","media/audio/stims/spherical_300cm_s20_c1_cd-1_matched_a-60.wav","spherical","20","1","1","matched","-60","-80","1110"
"echo-presentation","45","536921","0.0-45.0","5f4d2135061bf00dc540271b","60201dea606b8d5e5aa9e528","60202722bc36895c7a4820e2","Mozilla/5.0 (Windows NT 10.0; Win64; x64) AppleWebKit/537.36 (KHTML, like Gecko) Chrome/88.0.4324.152 Safari/537.36","v1-up-stims","","","","","","","","-80,-70,-60,-50,-40","media/audio/stims/spherical_300cm_s20_c1_cd-1_matched_a-50.wav","spherical","20","1","1","matched","-50","-80","1150"
"echo-presentation","46","539239","0.0-46.0","5f4d2135061bf00dc540271b","60201dea606b8d5e5aa9e528","60202722bc36895c7a4820e2","Mozilla/5.0 (Windows NT 10.0; Win64; x64) AppleWebKit/537.36 (KHTML, like Gecko) Chrome/88.0.4324.152 Safari/537.36","v1-up-stims","","","","","","","","-80,-70,-60,-50,-40","media/audio/stims/spherical_300cm_s20_c1_cd-1_matched_a-40.wav","spherical","20","1","1","matched","-40","-80","1454"
"echo-presentation","47","541059","0.0-47.0","5f4d2135061bf00dc540271b","60201dea606b8d5e5aa9e528","60202722bc36895c7a4820e2","Mozilla/5.0 (Windows NT 10.0; Win64; x64) AppleWebKit/537.36 (KHTML, like Gecko) Chrome/88.0.4324.152 Safari/537.36","v1-up-stims","","","","","","","","-80,-70,-60,-50,-40","media/audio/stims/spherical_300cm_s20_c1_cd-1_matched_a-40.wav","spherical","20","1","1","matched","-40","-80","1174"
"echo-presentation","48","542772","0.0-48.0","5f4d2135061bf00dc540271b","60201dea606b8d5e5aa9e528","60202722bc36895c7a4820e2","Mozilla/5.0 (Windows NT 10.0; Win64; x64) AppleWebKit/537.36 (KHTML, like Gecko) Chrome/88.0.4324.152 Safari/537.36","v1-up-stims","","","","","","","","-80,-70,-60,-50,-40","media/audio/stims/spherical_300cm_s20_c1_cd-1_matched_a-80.wav","spherical","20","1","1","matched","-80","-80","1086"
"echo-presentation","49","544639","0.0-49.0","5f4d2135061bf00dc540271b","60201dea606b8d5e5aa9e528","60202722bc36895c7a4820e2","Mozilla/5.0 (Windows NT 10.0; Win64; x64) AppleWebKit/537.36 (KHTML, like Gecko) Chrome/88.0.4324.152 Safari/537.36","v1-up-stims","","","","","","","","-80,-70,-60,-50,-40","media/audio/stims/spherical_300cm_s20_c1_cd-1_matched_a-70.wav","spherical","20","1","1","matched","-70","-80","1150"
"block-bookend","50","546398","0.0-50.0","5f4d2135061bf00dc540271b","60201dea606b8d5e5aa9e528","60202722bc36895c7a4820e2","Mozilla/5.0 (Windows NT 10.0; Win64; x64) AppleWebKit/537.36 (KHTML, like Gecko) Chrome/88.0.4324.152 Safari/537.36","v1-up-stims","","","","","","","","","","","","","","","","",""
"block-bookend","51","555541","0.0-51.0","5f4d2135061bf00dc540271b","60201dea606b8d5e5aa9e528","60202722bc36895c7a4820e2","Mozilla/5.0 (Windows NT 10.0; Win64; x64) AppleWebKit/537.36 (KHTML, like Gecko) Chrome/88.0.4324.152 Safari/537.36","v1-up-stims","","","","","","","","","","","","","","","","",""
"echo-presentation","52","558039","0.0-52.0","5f4d2135061bf00dc540271b","60201dea606b8d5e5aa9e528","60202722bc36895c7a4820e2","Mozilla/5.0 (Windows NT 10.0; Win64; x64) AppleWebKit/537.36 (KHTML, like Gecko) Chrome/88.0.4324.152 Safari/537.36","v1-up-stims","","","","","","","","-20,-10,0,10,20","media/audio/stims/spherical_300cm_s20_c1_cd-1_matched_a0.wav","spherical","20","1","1","matched","0","0","1509"
"echo-presentation","53","561566","0.0-53.0","5f4d2135061bf00dc540271b","60201dea606b8d5e5aa9e528","60202722bc36895c7a4820e2","Mozilla/5.0 (Windows NT 10.0; Win64; x64) AppleWebKit/537.36 (KHTML, like Gecko) Chrome/88.0.4324.152 Safari/537.36","v1-up-stims","","","","","","","","-20,-10,0,10,20","media/audio/stims/spherical_300cm_s20_c1_cd-1_matched_a-10.wav","spherical","20","1","1","matched","-10","0","1182"
"echo-presentation","54","563235","0.0-54.0","5f4d2135061bf00dc540271b","60201dea606b8d5e5aa9e528","60202722bc36895c7a4820e2","Mozilla/5.0 (Windows NT 10.0; Win64; x64) AppleWebKit/537.36 (KHTML, like Gecko) Chrome/88.0.4324.152 Safari/537.36","v1-up-stims","","","","","","","","-20,-10,0,10,20","media/audio/stims/spherical_300cm_s20_c1_cd-1_matched_a0.wav","spherical","20","1","1","matched","0","0","934"
"echo-presentation","55","565075","0.0-55.0","5f4d2135061bf00dc540271b","60201dea606b8d5e5aa9e528","60202722bc36895c7a4820e2","Mozilla/5.0 (Windows NT 10.0; Win64; x64) AppleWebKit/537.36 (KHTML, like Gecko) Chrome/88.0.4324.152 Safari/537.36","v1-up-stims","","","","","","","","-20,-10,0,10,20","media/audio/stims/spherical_300cm_s20_c1_cd-1_matched_a-10.wav","spherical","20","1","1","matched","-10","0","845"
"echo-presentation","56","566671","0.0-56.0","5f4d2135061bf00dc540271b","60201dea606b8d5e5aa9e528","60202722bc36895c7a4820e2","Mozilla/5.0 (Windows NT 10.0; Win64; x64) AppleWebKit/537.36 (KHTML, like Gecko) Chrome/88.0.4324.152 Safari/537.36","v1-up-stims","","","","","","","","-20,-10,0,10,20","media/audio/stims/spherical_300cm_s20_c1_cd-1_matched_a20.wav","spherical","20","1","1","matched","20","0","869"
"echo-presentation","57","568978","0.0-57.0","5f4d2135061bf00dc540271b","60201dea606b8d5e5aa9e528","60202722bc36895c7a4820e2","Mozilla/5.0 (Windows NT 10.0; Win64; x64) AppleWebKit/537.36 (KHTML, like Gecko) Chrome/88.0.4324.152 Safari/537.36","v1-up-stims","","","","","","","","-20,-10,0,10,20","media/audio/stims/spherical_300cm_s20_c1_cd-1_matched_a10.wav","spherical","20","1","1","matched","10","10","1357"
"echo-presentation","58","571382","0.0-58.0","5f4d2135061bf00dc540271b","60201dea606b8d5e5aa9e528","60202722bc36895c7a4820e2","Mozilla/5.0 (Windows NT 10.0; Win64; x64) AppleWebKit/537.36 (KHTML, like Gecko) Chrome/88.0.4324.152 Safari/537.36","v1-up-stims","","","","","","","","-20,-10,0,10,20","media/audio/stims/spherical_300cm_s20_c1_cd-1_matched_a0.wav","spherical","20","1","1","matched","0","0","1646"
"echo-presentation","59","573830","0.0-59.0","5f4d2135061bf00dc540271b","60201dea606b8d5e5aa9e528","60202722bc36895c7a4820e2","Mozilla/5.0 (Windows NT 10.0; Win64; x64) AppleWebKit/537.36 (KHTML, like Gecko) Chrome/88.0.4324.152 Safari/537.36","v1-up-stims","","","","","","","","-20,-10,0,10,20","media/audio/stims/spherical_300cm_s20_c1_cd-1_matched_a-20.wav","spherical","20","1","1","matched","-20","0","1678"
"echo-presentation","60","575596","0.0-60.0","5f4d2135061bf00dc540271b","60201dea606b8d5e5aa9e528","60202722bc36895c7a4820e2","Mozilla/5.0 (Windows NT 10.0; Win64; x64) AppleWebKit/537.36 (KHTML, like Gecko) Chrome/88.0.4324.152 Safari/537.36","v1-up-stims","","","","","","","","-20,-10,0,10,20","media/audio/stims/spherical_300cm_s20_c1_cd-1_matched_a0.wav","spherical","20","1","1","matched","0","0","1022"
"echo-presentation","61","577425","0.0-61.0","5f4d2135061bf00dc540271b","60201dea606b8d5e5aa9e528","60202722bc36895c7a4820e2","Mozilla/5.0 (Windows NT 10.0; Win64; x64) AppleWebKit/537.36 (KHTML, like Gecko) Chrome/88.0.4324.152 Safari/537.36","v1-up-stims","","","","","","","","-20,-10,0,10,20","media/audio/stims/spherical_300cm_s20_c1_cd-1_matched_a-10.wav","spherical","20","1","1","matched","-10","0","989"
"echo-presentation","62","579325","0.0-62.0","5f4d2135061bf00dc540271b","60201dea606b8d5e5aa9e528","60202722bc36895c7a4820e2","Mozilla/5.0 (Windows NT 10.0; Win64; x64) AppleWebKit/537.36 (KHTML, like Gecko) Chrome/88.0.4324.152 Safari/537.36","v1-up-stims","","","","","","","","-20,-10,0,10,20","media/audio/stims/spherical_300cm_s20_c1_cd-1_matched_a10.wav","spherical","20","1","1","matched","10","10","1150"
"echo-presentation","63","581830","0.0-63.0","5f4d2135061bf00dc540271b","60201dea606b8d5e5aa9e528","60202722bc36895c7a4820e2","Mozilla/5.0 (Windows NT 10.0; Win64; x64) AppleWebKit/537.36 (KHTML, like Gecko) Chrome/88.0.4324.152 Safari/537.36","v1-up-stims","","","","","","","","-20,-10,0,10,20","media/audio/stims/spherical_300cm_s20_c1_cd-1_matched_a20.wav","spherical","20","1","1","matched","20","10","1094"
"echo-presentation","64","584730","0.0-64.0","5f4d2135061bf00dc540271b","60201dea606b8d5e5aa9e528","60202722bc36895c7a4820e2","Mozilla/5.0 (Windows NT 10.0; Win64; x64) AppleWebKit/537.36 (KHTML, like Gecko) Chrome/88.0.4324.152 Safari/537.36","v1-up-stims","","","","","","","","-20,-10,0,10,20","media/audio/stims/spherical_300cm_s20_c1_cd-1_matched_a-20.wav","spherical","20","1","1","matched","-20","10","950"
"echo-presentation","65","586706","0.0-65.0","5f4d2135061bf00dc540271b","60201dea606b8d5e5aa9e528","60202722bc36895c7a4820e2","Mozilla/5.0 (Windows NT 10.0; Win64; x64) AppleWebKit/537.36 (KHTML, like Gecko) Chrome/88.0.4324.152 Safari/537.36","v1-up-stims","","","","","","","","-20,-10,0,10,20","media/audio/stims/spherical_300cm_s20_c1_cd-1_matched_a-10.wav","spherical","20","1","1","matched","-10","0","1166"
"echo-presentation","66","588592","0.0-66.0","5f4d2135061bf00dc540271b","60201dea606b8d5e5aa9e528","60202722bc36895c7a4820e2","Mozilla/5.0 (Windows NT 10.0; Win64; x64) AppleWebKit/537.36 (KHTML, like Gecko) Chrome/88.0.4324.152 Safari/537.36","v1-up-stims","","","","","","","","-20,-10,0,10,20","media/audio/stims/spherical_300cm_s20_c1_cd-1_matched_a10.wav","spherical","20","1","1","matched","10","10","1158"
"echo-presentation","67","590604","0.0-67.0","5f4d2135061bf00dc540271b","60201dea606b8d5e5aa9e528","60202722bc36895c7a4820e2","Mozilla/5.0 (Windows NT 10.0; Win64; x64) AppleWebKit/537.36 (KHTML, like Gecko) Chrome/88.0.4324.152 Safari/537.36","v1-up-stims","","","","","","","","-20,-10,0,10,20","media/audio/stims/spherical_300cm_s20_c1_cd-1_matched_a-20.wav","spherical","20","1","1","matched","-20","0","1262"
"echo-presentation","68","592502","0.0-68.0","5f4d2135061bf00dc540271b","60201dea606b8d5e5aa9e528","60202722bc36895c7a4820e2","Mozilla/5.0 (Windows NT 10.0; Win64; x64) AppleWebKit/537.36 (KHTML, like Gecko) Chrome/88.0.4324.152 Safari/537.36","v1-up-stims","","","","","","","","-20,-10,0,10,20","media/audio/stims/spherical_300cm_s20_c1_cd-1_matched_a-20.wav","spherical","20","1","1","matched","-20","0","1078"
"echo-presentation","69","594967","0.0-69.0","5f4d2135061bf00dc540271b","60201dea606b8d5e5aa9e528","60202722bc36895c7a4820e2","Mozilla/5.0 (Windows NT 10.0; Win64; x64) AppleWebKit/537.36 (KHTML, like Gecko) Chrome/88.0.4324.152 Safari/537.36","v1-up-stims","","","","","","","","-20,-10,0,10,20","media/audio/stims/spherical_300cm_s20_c1_cd-1_matched_a10.wav","spherical","20","1","1","matched","10","0","1350"
"echo-presentation","70","596851","0.0-70.0","5f4d2135061bf00dc540271b","60201dea606b8d5e5aa9e528","60202722bc36895c7a4820e2","Mozilla/5.0 (Windows NT 10.0; Win64; x64) AppleWebKit/537.36 (KHTML, like Gecko) Chrome/88.0.4324.152 Safari/537.36","v1-up-stims","","","","","","","","-20,-10,0,10,20","media/audio/stims/spherical_300cm_s20_c1_cd-1_matched_a20.wav","spherical","20","1","1","matched","20","10","1158"
"echo-presentation","71","599272","0.0-71.0","5f4d2135061bf00dc540271b","60201dea606b8d5e5aa9e528","60202722bc36895c7a4820e2","Mozilla/5.0 (Windows NT 10.0; Win64; x64) AppleWebKit/537.36 (KHTML, like Gecko) Chrome/88.0.4324.152 Safari/537.36","v1-up-stims","","","","","","","","-20,-10,0,10,20","media/audio/stims/spherical_300cm_s20_c1_cd-1_matched_a20.wav","spherical","20","1","1","matched","20","0","950"
"block-bookend","72","600541","0.0-72.0","5f4d2135061bf00dc540271b","60201dea606b8d5e5aa9e528","60202722bc36895c7a4820e2","Mozilla/5.0 (Windows NT 10.0; Win64; x64) AppleWebKit/537.36 (KHTML, like Gecko) Chrome/88.0.4324.152 Safari/537.36","v1-up-stims","","","","","","","","","","","","","","","","",""
"block-bookend","73","605709","0.0-73.0","5f4d2135061bf00dc540271b","60201dea606b8d5e5aa9e528","60202722bc36895c7a4820e2","Mozilla/5.0 (Windows NT 10.0; Win64; x64) AppleWebKit/537.36 (KHTML, like Gecko) Chrome/88.0.4324.152 Safari/537.36","v1-up-stims","","","","","","","","","","","","","","","","",""
"echo-presentation","74","607867","0.0-74.0","5f4d2135061bf00dc540271b","60201dea606b8d5e5aa9e528","60202722bc36895c7a4820e2","Mozilla/5.0 (Windows NT 10.0; Win64; x64) AppleWebKit/537.36 (KHTML, like Gecko) Chrome/88.0.4324.152 Safari/537.36","v1-up-stims","","","","","","","","-20,-10,0,10,20","media/audio/stims/spherical_300cm_s20_c1_cd-1_matched_a-10.wav","spherical","20","1","1","matched","-10","0","1110"
"echo-presentation","75","610614","0.0-75.0","5f4d2135061bf00dc540271b","60201dea606b8d5e5aa9e528","60202722bc36895c7a4820e2","Mozilla/5.0 (Windows NT 10.0; Win64; x64) AppleWebKit/537.36 (KHTML, like Gecko) Chrome/88.0.4324.152 Safari/537.36","v1-up-stims","","","","","","","","-20,-10,0,10,20","media/audio/stims/spherical_300cm_s20_c1_cd-1_matched_a0.wav","spherical","20","1","1","matched","0","0","2006"
"echo-presentation","76","612301","0.0-76.0","5f4d2135061bf00dc540271b","60201dea606b8d5e5aa9e528","60202722bc36895c7a4820e2","Mozilla/5.0 (Windows NT 10.0; Win64; x64) AppleWebKit/537.36 (KHTML, like Gecko) Chrome/88.0.4324.152 Safari/537.36","v1-up-stims","","","","","","","","-20,-10,0,10,20","media/audio/stims/spherical_300cm_s20_c1_cd-1_matched_a-20.wav","spherical","20","1","1","matched","-20","0","885"
"echo-presentation","77","613691","0.0-77.0","5f4d2135061bf00dc540271b","60201dea606b8d5e5aa9e528","60202722bc36895c7a4820e2","Mozilla/5.0 (Windows NT 10.0; Win64; x64) AppleWebKit/537.36 (KHTML, like Gecko) Chrome/88.0.4324.152 Safari/537.36","v1-up-stims","","","","","","","","-20,-10,0,10,20","media/audio/stims/spherical_300cm_s20_c1_cd-1_matched_a10.wav","spherical","20","1","1","matched","10","0","855"
"echo-presentation","78","615251","0.0-78.0","5f4d2135061bf00dc540271b","60201dea606b8d5e5aa9e528","60202722bc36895c7a4820e2","Mozilla/5.0 (Windows NT 10.0; Win64; x64) AppleWebKit/537.36 (KHTML, like Gecko) Chrome/88.0.4324.152 Safari/537.36","v1-up-stims","","","","","","","","-20,-10,0,10,20","media/audio/stims/spherical_300cm_s20_c1_cd-1_matched_a20.wav","spherical","20","1","1","matched","20","0","830"
"echo-presentation","79","616667","0.0-79.0","5f4d2135061bf00dc540271b","60201dea606b8d5e5aa9e528","60202722bc36895c7a4820e2","Mozilla/5.0 (Windows NT 10.0; Win64; x64) AppleWebKit/537.36 (KHTML, like Gecko) Chrome/88.0.4324.152 Safari/537.36","v1-up-stims","","","","","","","","-20,-10,0,10,20","media/audio/stims/spherical_300cm_s20_c1_cd-1_matched_a0.wav","spherical","20","1","1","matched","0","0","820"
"echo-presentation","80","618052","0.0-80.0","5f4d2135061bf00dc540271b","60201dea606b8d5e5aa9e528","60202722bc36895c7a4820e2","Mozilla/5.0 (Windows NT 10.0; Win64; x64) AppleWebKit/537.36 (KHTML, like Gecko) Chrome/88.0.4324.152 Safari/537.36","v1-up-stims","","","","","","","","-20,-10,0,10,20","media/audio/stims/spherical_300cm_s20_c1_cd-1_matched_a0.wav","spherical","20","1","1","matched","0","0","710"
"echo-presentation","81","619560","0.0-81.0","5f4d2135061bf00dc540271b","60201dea606b8d5e5aa9e528","60202722bc36895c7a4820e2","Mozilla/5.0 (Windows NT 10.0; Win64; x64) AppleWebKit/537.36 (KHTML, like Gecko) Chrome/88.0.4324.152 Safari/537.36","v1-up-stims","","","","","","","","-20,-10,0,10,20","media/audio/stims/spherical_300cm_s20_c1_cd-1_matched_a-10.wav","spherical","20","1","1","matched","-10","0","798"
"echo-presentation","82","621059","0.0-82.0","5f4d2135061bf00dc540271b","60201dea606b8d5e5aa9e528","60202722bc36895c7a4820e2","Mozilla/5.0 (Windows NT 10.0; Win64; x64) AppleWebKit/537.36 (KHTML, like Gecko) Chrome/88.0.4324.152 Safari/537.36","v1-up-stims","","","","","","","","-20,-10,0,10,20","media/audio/stims/spherical_300cm_s20_c1_cd-1_matched_a20.wav","spherical","20","1","1","matched","20","0","782"
"echo-presentation","83","622430","0.0-83.0","5f4d2135061bf00dc540271b","60201dea606b8d5e5aa9e528","60202722bc36895c7a4820e2","Mozilla/5.0 (Windows NT 10.0; Win64; x64) AppleWebKit/537.36 (KHTML, like Gecko) Chrome/88.0.4324.152 Safari/537.36","v1-up-stims","","","","","","","","-20,-10,0,10,20","media/audio/stims/spherical_300cm_s20_c1_cd-1_matched_a10.wav","spherical","20","1","1","matched","10","0","702"
"echo-presentation","84","623911","0.0-84.0","5f4d2135061bf00dc540271b","60201dea606b8d5e5aa9e528","60202722bc36895c7a4820e2","Mozilla/5.0 (Windows NT 10.0; Win64; x64) AppleWebKit/537.36 (KHTML, like Gecko) Chrome/88.0.4324.152 Safari/537.36","v1-up-stims","","","","","","","","-20,-10,0,10,20","media/audio/stims/spherical_300cm_s20_c1_cd-1_matched_a10.wav","spherical","20","1","1","matched","10","0","798"
"echo-presentation","85","625258","0.0-85.0","5f4d2135061bf00dc540271b","60201dea606b8d5e5aa9e528","60202722bc36895c7a4820e2","Mozilla/5.0 (Windows NT 10.0; Win64; x64) AppleWebKit/537.36 (KHTML, like Gecko) Chrome/88.0.4324.152 Safari/537.36","v1-up-stims","","","","","","","","-20,-10,0,10,20","media/audio/stims/spherical_300cm_s20_c1_cd-1_matched_a20.wav","spherical","20","1","1","matched","20","0","678"
"echo-presentation","86","626614","0.0-86.0","5f4d2135061bf00dc540271b","60201dea606b8d5e5aa9e528","60202722bc36895c7a4820e2","Mozilla/5.0 (Windows NT 10.0; Win64; x64) AppleWebKit/537.36 (KHTML, like Gecko) Chrome/88.0.4324.152 Safari/537.36","v1-up-stims","","","","","","","","-20,-10,0,10,20","media/audio/stims/spherical_300cm_s20_c1_cd-1_matched_a-10.wav","spherical","20","1","1","matched","-10","0","694"
"echo-presentation","87","628128","0.0-87.0","5f4d2135061bf00dc540271b","60201dea606b8d5e5aa9e528","60202722bc36895c7a4820e2","Mozilla/5.0 (Windows NT 10.0; Win64; x64) AppleWebKit/537.36 (KHTML, like Gecko) Chrome/88.0.4324.152 Safari/537.36","v1-up-stims","","","","","","","","-20,-10,0,10,20","media/audio/stims/spherical_300cm_s20_c1_cd-1_matched_a-20.wav","spherical","20","1","1","matched","-20","0","790"
"echo-presentation","88","630879","0.0-88.0","5f4d2135061bf00dc540271b","60201dea606b8d5e5aa9e528","60202722bc36895c7a4820e2","Mozilla/5.0 (Windows NT 10.0; Win64; x64) AppleWebKit/537.36 (KHTML, like Gecko) Chrome/88.0.4324.152 Safari/537.36","v1-up-stims","","","","","","","","-20,-10,0,10,20","media/audio/stims/spherical_300cm_s20_c1_cd-1_matched_a-20.wav","spherical","20","1","1","matched","-20","-10","1902"
"echo-presentation","89","633389","0.0-89.0","5f4d2135061bf00dc540271b","60201dea606b8d5e5aa9e528","60202722bc36895c7a4820e2","Mozilla/5.0 (Windows NT 10.0; Win64; x64) AppleWebKit/537.36 (KHTML, like Gecko) Chrome/88.0.4324.152 Safari/537.36","v1-up-stims","","","","","","","","-20,-10,0,10,20","media/audio/stims/spherical_300cm_s20_c1_cd-1_matched_a-20.wav","spherical","20","1","1","matched","-20","0","1078"
"echo-presentation","90","635119","0.0-90.0","5f4d2135061bf00dc540271b","60201dea606b8d5e5aa9e528","60202722bc36895c7a4820e2","Mozilla/5.0 (Windows NT 10.0; Win64; x64) AppleWebKit/537.36 (KHTML, like Gecko) Chrome/88.0.4324.152 Safari/537.36","v1-up-stims","","","","","","","","-20,-10,0,10,20","media/audio/stims/spherical_300cm_s20_c1_cd-1_matched_a10.wav","spherical","20","1","1","matched","10","0","1006"
"echo-presentation","91","636457","0.0-91.0","5f4d2135061bf00dc540271b","60201dea606b8d5e5aa9e528","60202722bc36895c7a4820e2","Mozilla/5.0 (Windows NT 10.0; Win64; x64) AppleWebKit/537.36 (KHTML, like Gecko) Chrome/88.0.4324.152 Safari/537.36","v1-up-stims","","","","","","","","-20,-10,0,10,20","media/audio/stims/spherical_300cm_s20_c1_cd-1_matched_a0.wav","spherical","20","1","1","matched","0","0","815"
"echo-presentation","92","638844","0.0-92.0","5f4d2135061bf00dc540271b","60201dea606b8d5e5aa9e528","60202722bc36895c7a4820e2","Mozilla/5.0 (Windows NT 10.0; Win64; x64) AppleWebKit/537.36 (KHTML, like Gecko) Chrome/88.0.4324.152 Safari/537.36","v1-up-stims","","","","","","","","-20,-10,0,10,20","media/audio/stims/spherical_300cm_s20_c1_cd-1_matched_a-10.wav","spherical","20","1","1","matched","-10","0","1806"
"echo-presentation","93","640200","0.0-93.0","5f4d2135061bf00dc540271b","60201dea606b8d5e5aa9e528","60202722bc36895c7a4820e2","Mozilla/5.0 (Windows NT 10.0; Win64; x64) AppleWebKit/537.36 (KHTML, like Gecko) Chrome/88.0.4324.152 Safari/537.36","v1-up-stims","","","","","","","","-20,-10,0,10,20","media/audio/stims/spherical_300cm_s20_c1_cd-1_matched_a20.wav","spherical","20","1","1","matched","20","0","815"
"block-bookend","94","640830","0.0-94.0","5f4d2135061bf00dc540271b","60201dea606b8d5e5aa9e528","60202722bc36895c7a4820e2","Mozilla/5.0 (Windows NT 10.0; Win64; x64) AppleWebKit/537.36 (KHTML, like Gecko) Chrome/88.0.4324.152 Safari/537.36","v1-up-stims","","","","","","","","","","","","","","","","",""
"block-bookend","95","644806","0.0-95.0","5f4d2135061bf00dc540271b","60201dea606b8d5e5aa9e528","60202722bc36895c7a4820e2","Mozilla/5.0 (Windows NT 10.0; Win64; x64) AppleWebKit/537.36 (KHTML, like Gecko) Chrome/88.0.4324.152 Safari/537.36","v1-up-stims","","","","","","","","","","","","","","","","",""
"echo-presentation","96","649418","0.0-96.0","5f4d2135061bf00dc540271b","60201dea606b8d5e5aa9e528","60202722bc36895c7a4820e2","Mozilla/5.0 (Windows NT 10.0; Win64; x64) AppleWebKit/537.36 (KHTML, like Gecko) Chrome/88.0.4324.152 Safari/537.36","v1-up-stims","","","","","","","","40,50,60,70,80","media/audio/stims/spherical_300cm_s20_c1_cd-1_matched_a50.wav","spherical","20","1","1","matched","50","80","3214"
"echo-presentation","97","652021","0.0-97.0","5f4d2135061bf00dc540271b","60201dea606b8d5e5aa9e528","60202722bc36895c7a4820e2","Mozilla/5.0 (Windows NT 10.0; Win64; x64) AppleWebKit/537.36 (KHTML, like Gecko) Chrome/88.0.4324.152 Safari/537.36","v1-up-stims","","","","","","","","40,50,60,70,80","media/audio/stims/spherical_300cm_s20_c1_cd-1_matched_a80.wav","spherical","20","1","1","matched","80","80","1822"
"echo-presentation","98","653339","0.0-98.0","5f4d2135061bf00dc540271b","60201dea606b8d5e5aa9e528","60202722bc36895c7a4820e2","Mozilla/5.0 (Windows NT 10.0; Win64; x64) AppleWebKit/537.36 (KHTML, like Gecko) Chrome/88.0.4324.152 Safari/537.36","v1-up-stims","","","","","","","","40,50,60,70,80","media/audio/stims/spherical_300cm_s20_c1_cd-1_matched_a70.wav","spherical","20","1","1","matched","70","80","799"
"echo-presentation","99","654757","0.0-99.0","5f4d2135061bf00dc540271b","60201dea606b8d5e5aa9e528","60202722bc36895c7a4820e2","Mozilla/5.0 (Windows NT 10.0; Win64; x64) AppleWebKit/537.36 (KHTML, like Gecko) Chrome/88.0.4324.152 Safari/537.36","v1-up-stims","","","","","","","","40,50,60,70,80","media/audio/stims/spherical_300cm_s20_c1_cd-1_matched_a80.wav","spherical","20","1","1","matched","80","80","750"
"echo-presentation","100","656204","0.0-100.0","5f4d2135061bf00dc540271b","60201dea606b8d5e5aa9e528","60202722bc36895c7a4820e2","Mozilla/5.0 (Windows NT 10.0; Win64; x64) AppleWebKit/537.36 (KHTML, like Gecko) Chrome/88.0.4324.152 Safari/537.36","v1-up-stims","","","","","","","","40,50,60,70,80","media/audio/stims/spherical_300cm_s20_c1_cd-1_matched_a40.wav","spherical","20","1","1","matched","40","80","726"
"echo-presentation","101","657520","0.0-101.0","5f4d2135061bf00dc540271b","60201dea606b8d5e5aa9e528","60202722bc36895c7a4820e2","Mozilla/5.0 (Windows NT 10.0; Win64; x64) AppleWebKit/537.36 (KHTML, like Gecko) Chrome/88.0.4324.152 Safari/537.36","v1-up-stims","","","","","","","","40,50,60,70,80","media/audio/stims/spherical_300cm_s20_c1_cd-1_matched_a40.wav","spherical","20","1","1","matched","40","80","638"
"echo-presentation","102","659078","0.0-102.0","5f4d2135061bf00dc540271b","60201dea606b8d5e5aa9e528","60202722bc36895c7a4820e2","Mozilla/5.0 (Windows NT 10.0; Win64; x64) AppleWebKit/537.36 (KHTML, like Gecko) Chrome/88.0.4324.152 Safari/537.36","v1-up-stims","","","","","","","","40,50,60,70,80","media/audio/stims/spherical_300cm_s20_c1_cd-1_matched_a70.wav","spherical","20","1","1","matched","70","80","742"
"echo-presentation","103","660939","0.0-103.0","5f4d2135061bf00dc540271b","60201dea606b8d5e5aa9e528","60202722bc36895c7a4820e2","Mozilla/5.0 (Windows NT 10.0; Win64; x64) AppleWebKit/537.36 (KHTML, like Gecko) Chrome/88.0.4324.152 Safari/537.36","v1-up-stims","","","","","","","","40,50,60,70,80","media/audio/stims/spherical_300cm_s20_c1_cd-1_matched_a50.wav","spherical","20","1","1","matched","50","80","838"
"echo-presentation","104","662328","0.0-104.0","5f4d2135061bf00dc540271b","60201dea606b8d5e5aa9e528","60202722bc36895c7a4820e2","Mozilla/5.0 (Windows NT 10.0; Win64; x64) AppleWebKit/537.36 (KHTML, like Gecko) Chrome/88.0.4324.152 Safari/537.36","v1-up-stims","","","","","","","","40,50,60,70,80","media/audio/stims/spherical_300cm_s20_c1_cd-1_matched_a80.wav","spherical","20","1","1","matched","80","80","799"
"echo-presentation","105","663555","0.0-105.0","5f4d2135061bf00dc540271b","60201dea606b8d5e5aa9e528","60202722bc36895c7a4820e2","Mozilla/5.0 (Windows NT 10.0; Win64; x64) AppleWebKit/537.36 (KHTML, like Gecko) Chrome/88.0.4324.152 Safari/537.36","v1-up-stims","","","","","","","","40,50,60,70,80","media/audio/stims/spherical_300cm_s20_c1_cd-1_matched_a80.wav","spherical","20","1","1","matched","80","80","606"
"echo-presentation","106","664834","0.0-106.0","5f4d2135061bf00dc540271b","60201dea606b8d5e5aa9e528","60202722bc36895c7a4820e2","Mozilla/5.0 (Windows NT 10.0; Win64; x64) AppleWebKit/537.36 (KHTML, like Gecko) Chrome/88.0.4324.152 Safari/537.36","v1-up-stims","","","","","","","","40,50,60,70,80","media/audio/stims/spherical_300cm_s20_c1_cd-1_matched_a50.wav","spherical","20","1","1","matched","50","80","687"
"echo-presentation","107","666062","0.0-107.0","5f4d2135061bf00dc540271b","60201dea606b8d5e5aa9e528","60202722bc36895c7a4820e2","Mozilla/5.0 (Windows NT 10.0; Win64; x64) AppleWebKit/537.36 (KHTML, like Gecko) Chrome/88.0.4324.152 Safari/537.36","v1-up-stims","","","","","","","","40,50,60,70,80","media/audio/stims/spherical_300cm_s20_c1_cd-1_matched_a60.wav","spherical","20","1","1","matched","60","80","687"
"echo-presentation","108","667216","0.0-108.0","5f4d2135061bf00dc540271b","60201dea606b8d5e5aa9e528","60202722bc36895c7a4820e2","Mozilla/5.0 (Windows NT 10.0; Win64; x64) AppleWebKit/537.36 (KHTML, like Gecko) Chrome/88.0.4324.152 Safari/537.36","v1-up-stims","","","","","","","","40,50,60,70,80","media/audio/stims/spherical_300cm_s20_c1_cd-1_matched_a60.wav","spherical","20","1","1","matched","60","80","615"
"echo-presentation","109","668978","0.0-109.0","5f4d2135061bf00dc540271b","60201dea606b8d5e5aa9e528","60202722bc36895c7a4820e2","Mozilla/5.0 (Windows NT 10.0; Win64; x64) AppleWebKit/537.36 (KHTML, like Gecko) Chrome/88.0.4324.152 Safari/537.36","v1-up-stims","","","","","","","","40,50,60,70,80","media/audio/stims/spherical_300cm_s20_c1_cd-1_matched_a70.wav","spherical","20","1","1","matched","70","80","822"
"echo-presentation","110","670442","0.0-110.0","5f4d2135061bf00dc540271b","60201dea606b8d5e5aa9e528","60202722bc36895c7a4820e2","Mozilla/5.0 (Windows NT 10.0; Win64; x64) AppleWebKit/537.36 (KHTML, like Gecko) Chrome/88.0.4324.152 Safari/537.36","v1-up-stims","","","","","","","","40,50,60,70,80","media/audio/stims/spherical_300cm_s20_c1_cd-1_matched_a50.wav","spherical","20","1","1","matched","50","80","654"
"echo-presentation","111","671810","0.0-111.0","5f4d2135061bf00dc540271b","60201dea606b8d5e5aa9e528","60202722bc36895c7a4820e2","Mozilla/5.0 (Windows NT 10.0; Win64; x64) AppleWebKit/537.36 (KHTML, like Gecko) Chrome/88.0.4324.152 Safari/537.36","v1-up-stims","","","","","","","","40,50,60,70,80","media/audio/stims/spherical_300cm_s20_c1_cd-1_matched_a40.wav","spherical","20","1","1","matched","40","80","590"
"echo-presentation","112","673260","0.0-112.0","5f4d2135061bf00dc540271b","60201dea606b8d5e5aa9e528","60202722bc36895c7a4820e2","Mozilla/5.0 (Windows NT 10.0; Win64; x64) AppleWebKit/537.36 (KHTML, like Gecko) Chrome/88.0.4324.152 Safari/537.36","v1-up-stims","","","","","","","","40,50,60,70,80","media/audio/stims/spherical_300cm_s20_c1_cd-1_matched_a60.wav","spherical","20","1","1","matched","60","80","686"
"echo-presentation","113","674616","0.0-113.0","5f4d2135061bf00dc540271b","60201dea606b8d5e5aa9e528","60202722bc36895c7a4820e2","Mozilla/5.0 (Windows NT 10.0; Win64; x64) AppleWebKit/537.36 (KHTML, like Gecko) Chrome/88.0.4324.152 Safari/537.36","v1-up-stims","","","","","","","","40,50,60,70,80","media/audio/stims/spherical_300cm_s20_c1_cd-1_matched_a70.wav","spherical","20","1","1","matched","70","80","710"
"echo-presentation","114","676050","0.0-114.0","5f4d2135061bf00dc540271b","60201dea606b8d5e5aa9e528","60202722bc36895c7a4820e2","Mozilla/5.0 (Windows NT 10.0; Win64; x64) AppleWebKit/537.36 (KHTML, like Gecko) Chrome/88.0.4324.152 Safari/537.36","v1-up-stims","","","","","","","","40,50,60,70,80","media/audio/stims/spherical_300cm_s20_c1_cd-1_matched_a40.wav","spherical","20","1","1","matched","40","80","719"
"echo-presentation","115","677623","0.0-115.0","5f4d2135061bf00dc540271b","60201dea606b8d5e5aa9e528","60202722bc36895c7a4820e2","Mozilla/5.0 (Windows NT 10.0; Win64; x64) AppleWebKit/537.36 (KHTML, like Gecko) Chrome/88.0.4324.152 Safari/537.36","v1-up-stims","","","","","","","","40,50,60,70,80","media/audio/stims/spherical_300cm_s20_c1_cd-1_matched_a60.wav","spherical","20","1","1","matched","60","80","798"
"block-bookend","116","678214","0.0-116.0","5f4d2135061bf00dc540271b","60201dea606b8d5e5aa9e528","60202722bc36895c7a4820e2","Mozilla/5.0 (Windows NT 10.0; Win64; x64) AppleWebKit/537.36 (KHTML, like Gecko) Chrome/88.0.4324.152 Safari/537.36","v1-up-stims","","","","","","","","","","","","","","","","",""
"block-bookend","117","682614","0.0-117.0","5f4d2135061bf00dc540271b","60201dea606b8d5e5aa9e528","60202722bc36895c7a4820e2","Mozilla/5.0 (Windows NT 10.0; Win64; x64) AppleWebKit/537.36 (KHTML, like Gecko) Chrome/88.0.4324.152 Safari/537.36","v1-up-stims","","","","","","","","","","","","","","","","",""
"echo-presentation","118","684679","0.0-118.0","5f4d2135061bf00dc540271b","60201dea606b8d5e5aa9e528","60202722bc36895c7a4820e2","Mozilla/5.0 (Windows NT 10.0; Win64; x64) AppleWebKit/537.36 (KHTML, like Gecko) Chrome/88.0.4324.152 Safari/537.36","v1-up-stims","","","","","","","","40,50,60,70,80","media/audio/stims/spherical_300cm_s20_c1_cd-1_matched_a60.wav","spherical","20","1","1","matched","60","80","1030"
"echo-presentation","119","686717","0.0-119.0","5f4d2135061bf00dc540271b","60201dea606b8d5e5aa9e528","60202722bc36895c7a4820e2","Mozilla/5.0 (Windows NT 10.0; Win64; x64) AppleWebKit/537.36 (KHTML, like Gecko) Chrome/88.0.4324.152 Safari/537.36","v1-up-stims","","","","","","","","40,50,60,70,80","media/audio/stims/spherical_300cm_s20_c1_cd-1_matched_a70.wav","spherical","20","1","1","matched","70","80","750"
"echo-presentation","120","688193","0.0-120.0","5f4d2135061bf00dc540271b","60201dea606b8d5e5aa9e528","60202722bc36895c7a4820e2","Mozilla/5.0 (Windows NT 10.0; Win64; x64) AppleWebKit/537.36 (KHTML, like Gecko) Chrome/88.0.4324.152 Safari/537.36","v1-up-stims","","","","","","","","40,50,60,70,80","media/audio/stims/spherical_300cm_s20_c1_cd-1_matched_a70.wav","spherical","20","1","1","matched","70","80","694"
"echo-presentation","121","689718","0.0-121.0","5f4d2135061bf00dc540271b","60201dea606b8d5e5aa9e528","60202722bc36895c7a4820e2","Mozilla/5.0 (Windows NT 10.0; Win64; x64) AppleWebKit/537.36 (KHTML, like Gecko) Chrome/88.0.4324.152 Safari/537.36","v1-up-stims","","","","","","","","40,50,60,70,80","media/audio/stims/spherical_300cm_s20_c1_cd-1_matched_a60.wav","spherical","20","1","1","matched","60","80","790"
"echo-presentation","122","691210","0.0-122.0","5f4d2135061bf00dc540271b","60201dea606b8d5e5aa9e528","60202722bc36895c7a4820e2","Mozilla/5.0 (Windows NT 10.0; Win64; x64) AppleWebKit/537.36 (KHTML, like Gecko) Chrome/88.0.4324.152 Safari/537.36","v1-up-stims","","","","","","","","40,50,60,70,80","media/audio/stims/spherical_300cm_s20_c1_cd-1_matched_a40.wav","spherical","20","1","1","matched","40","80","774"
"echo-presentation","123","692660","0.0-123.0","5f4d2135061bf00dc540271b","60201dea606b8d5e5aa9e528","60202722bc36895c7a4820e2","Mozilla/5.0 (Windows NT 10.0; Win64; x64) AppleWebKit/537.36 (KHTML, like Gecko) Chrome/88.0.4324.152 Safari/537.36","v1-up-stims","","","","","","","","40,50,60,70,80","media/audio/stims/spherical_300cm_s20_c1_cd-1_matched_a70.wav","spherical","20","1","1","matched","70","80","718"
"echo-presentation","124","694171","0.0-124.0","5f4d2135061bf00dc540271b","60201dea606b8d5e5aa9e528","60202722bc36895c7a4820e2","Mozilla/5.0 (Windows NT 10.0; Win64; x64) AppleWebKit/537.36 (KHTML, like Gecko) Chrome/88.0.4324.152 Safari/537.36","v1-up-stims","","","","","","","","40,50,60,70,80","media/audio/stims/spherical_300cm_s20_c1_cd-1_matched_a60.wav","spherical","20","1","1","matched","60","80","766"
"echo-presentation","125","695586","0.0-125.0","5f4d2135061bf00dc540271b","60201dea606b8d5e5aa9e528","60202722bc36895c7a4820e2","Mozilla/5.0 (Windows NT 10.0; Win64; x64) AppleWebKit/537.36 (KHTML, like Gecko) Chrome/88.0.4324.152 Safari/537.36","v1-up-stims","","","","","","","","40,50,60,70,80","media/audio/stims/spherical_300cm_s20_c1_cd-1_matched_a40.wav","spherical","20","1","1","matched","40","80","702"
"echo-presentation","126","697162","0.0-126.0","5f4d2135061bf00dc540271b","60201dea606b8d5e5aa9e528","60202722bc36895c7a4820e2","Mozilla/5.0 (Windows NT 10.0; Win64; x64) AppleWebKit/537.36 (KHTML, like Gecko) Chrome/88.0.4324.152 Safari/537.36","v1-up-stims","","","","","","","","40,50,60,70,80","media/audio/stims/spherical_300cm_s20_c1_cd-1_matched_a50.wav","spherical","20","1","1","matched","50","80","766"
"echo-presentation","127","698391","0.0-127.0","5f4d2135061bf00dc540271b","60201dea606b8d5e5aa9e528","60202722bc36895c7a4820e2","Mozilla/5.0 (Windows NT 10.0; Win64; x64) AppleWebKit/537.36 (KHTML, like Gecko) Chrome/88.0.4324.152 Safari/537.36","v1-up-stims","","","","","","","","40,50,60,70,80","media/audio/stims/spherical_300cm_s20_c1_cd-1_matched_a80.wav","spherical","20","1","1","matched","80","80","623"
"echo-presentation","128","699721","0.0-128.0","5f4d2135061bf00dc540271b","60201dea606b8d5e5aa9e528","60202722bc36895c7a4820e2","Mozilla/5.0 (Windows NT 10.0; Win64; x64) AppleWebKit/537.36 (KHTML, like Gecko) Chrome/88.0.4324.152 Safari/537.36","v1-up-stims","","","","","","","","40,50,60,70,80","media/audio/stims/spherical_300cm_s20_c1_cd-1_matched_a80.wav","spherical","20","1","1","matched","80","80","621"
"echo-presentation","129","701087","0.0-129.0","5f4d2135061bf00dc540271b","60201dea606b8d5e5aa9e528","60202722bc36895c7a4820e2","Mozilla/5.0 (Windows NT 10.0; Win64; x64) AppleWebKit/537.36 (KHTML, like Gecko) Chrome/88.0.4324.152 Safari/537.36","v1-up-stims","","","","","","","","40,50,60,70,80","media/audio/stims/spherical_300cm_s20_c1_cd-1_matched_a70.wav","spherical","20","1","1","matched","70","80","686"
"echo-presentation","130","702491","0.0-130.0","5f4d2135061bf00dc540271b","60201dea606b8d5e5aa9e528","60202722bc36895c7a4820e2","Mozilla/5.0 (Windows NT 10.0; Win64; x64) AppleWebKit/537.36 (KHTML, like Gecko) Chrome/88.0.4324.152 Safari/537.36","v1-up-stims","","","","","","","","40,50,60,70,80","media/audio/stims/spherical_300cm_s20_c1_cd-1_matched_a50.wav","spherical","20","1","1","matched","50","80","765"
"echo-presentation","131","703957","0.0-131.0","5f4d2135061bf00dc540271b","60201dea606b8d5e5aa9e528","60202722bc36895c7a4820e2","Mozilla/5.0 (Windows NT 10.0; Win64; x64) AppleWebKit/537.36 (KHTML, like Gecko) Chrome/88.0.4324.152 Safari/537.36","v1-up-stims","","","","","","","","40,50,60,70,80","media/audio/stims/spherical_300cm_s20_c1_cd-1_matched_a80.wav","spherical","20","1","1","matched","80","80","774"
"echo-presentation","132","705252","0.0-132.0","5f4d2135061bf00dc540271b","60201dea606b8d5e5aa9e528","60202722bc36895c7a4820e2","Mozilla/5.0 (Windows NT 10.0; Win64; x64) AppleWebKit/537.36 (KHTML, like Gecko) Chrome/88.0.4324.152 Safari/537.36","v1-up-stims","","","","","","","","40,50,60,70,80","media/audio/stims/spherical_300cm_s20_c1_cd-1_matched_a50.wav","spherical","20","1","1","matched","50","80","655"
"echo-presentation","133","708730","0.0-133.0","5f4d2135061bf00dc540271b","60201dea606b8d5e5aa9e528","60202722bc36895c7a4820e2","Mozilla/5.0 (Windows NT 10.0; Win64; x64) AppleWebKit/537.36 (KHTML, like Gecko) Chrome/88.0.4324.152 Safari/537.36","v1-up-stims","","","","","","","","40,50,60,70,80","media/audio/stims/spherical_300cm_s20_c1_cd-1_matched_a40.wav","spherical","20","1","1","matched","40","80","2766"
"echo-presentation","134","709945","0.0-134.0","5f4d2135061bf00dc540271b","60201dea606b8d5e5aa9e528","60202722bc36895c7a4820e2","Mozilla/5.0 (Windows NT 10.0; Win64; x64) AppleWebKit/537.36 (KHTML, like Gecko) Chrome/88.0.4324.152 Safari/537.36","v1-up-stims","","","","","","","","40,50,60,70,80","media/audio/stims/spherical_300cm_s20_c1_cd-1_matched_a60.wav","spherical","20","1","1","matched","60","80","678"
"echo-presentation","135","711334","0.0-135.0","5f4d2135061bf00dc540271b","60201dea606b8d5e5aa9e528","60202722bc36895c7a4820e2","Mozilla/5.0 (Windows NT 10.0; Win64; x64) AppleWebKit/537.36 (KHTML, like Gecko) Chrome/88.0.4324.152 Safari/537.36","v1-up-stims","","","","","","","","40,50,60,70,80","media/audio/stims/spherical_300cm_s20_c1_cd-1_matched_a40.wav","spherical","20","1","1","matched","40","80","678"
"echo-presentation","136","712642","0.0-136.0","5f4d2135061bf00dc540271b","60201dea606b8d5e5aa9e528","60202722bc36895c7a4820e2","Mozilla/5.0 (Windows NT 10.0; Win64; x64) AppleWebKit/537.36 (KHTML, like Gecko) Chrome/88.0.4324.152 Safari/537.36","v1-up-stims","","","","","","","","40,50,60,70,80","media/audio/stims/spherical_300cm_s20_c1_cd-1_matched_a80.wav","spherical","20","1","1","matched","80","80","630"
"echo-presentation","137","715291","0.0-137.0","5f4d2135061bf00dc540271b","60201dea606b8d5e5aa9e528","60202722bc36895c7a4820e2","Mozilla/5.0 (Windows NT 10.0; Win64; x64) AppleWebKit/537.36 (KHTML, like Gecko) Chrome/88.0.4324.152 Safari/537.36","v1-up-stims","","","","","","","","40,50,60,70,80","media/audio/stims/spherical_300cm_s20_c1_cd-1_matched_a50.wav","spherical","20","1","1","matched","50","80","1607"
"block-bookend","138","716334","0.0-138.0","5f4d2135061bf00dc540271b","60201dea606b8d5e5aa9e528","60202722bc36895c7a4820e2","Mozilla/5.0 (Windows NT 10.0; Win64; x64) AppleWebKit/537.36 (KHTML, like Gecko) Chrome/88.0.4324.152 Safari/537.36","v1-up-stims","","","","","","","","","","","","","","","","",""
