"trial_type","trial_index","time_elapsed","internal_node_id","prolificPid","studyId","sessionId","userAgent","version","rt","stimulus","key_press","chosenKeyset","failureCount","testIndex","globalVolume","choices","filename","modelName","slowdown","compensation","compensationDescriptor","receiverOrientationType","azimuth","responseAzimuth","responseDelay"
"pavlovia","0","3","0.0-0.0","5f76198ba661c70678e69b98","5fef55e628823a0076ec12ee","601f44777d1dc9494ba3aa8d","Mozilla/5.0 (Windows NT 10.0; Win64; x64) AppleWebKit/537.36 (KHTML, like Gecko) Chrome/87.0.4280.141 Safari/537.36 OPR/73.0.3856.344","v1","","","","","","","","","","","","","","","","",""
"html-keyboard-response","1","3659","0.0-1.0","5f76198ba661c70678e69b98","5fef55e628823a0076ec12ee","601f44777d1dc9494ba3aa8d","Mozilla/5.0 (Windows NT 10.0; Win64; x64) AppleWebKit/537.36 (KHTML, like Gecko) Chrome/87.0.4280.141 Safari/537.36 OPR/73.0.3856.344","v1","3653.745000017807","<div><h1>Welcome!</h1><p>Press any key to continue.</p></div>","32","","","","","","","","","","","","","",""
"consent-form","2","8839","0.0-2.0","5f76198ba661c70678e69b98","5fef55e628823a0076ec12ee","601f44777d1dc9494ba3aa8d","Mozilla/5.0 (Windows NT 10.0; Win64; x64) AppleWebKit/537.36 (KHTML, like Gecko) Chrome/87.0.4280.141 Safari/537.36 OPR/73.0.3856.344","v1","","","","","","","","","","","","","","","","",""
"keyset-select","3","11576","0.0-3.0","5f76198ba661c70678e69b98","5fef55e628823a0076ec12ee","601f44777d1dc9494ba3aa8d","Mozilla/5.0 (Windows NT 10.0; Win64; x64) AppleWebKit/537.36 (KHTML, like Gecko) Chrome/87.0.4280.141 Safari/537.36 OPR/73.0.3856.344","v1","","","","left-hand","","","","","","","","","","","","",""
"headphone-check","4","57239","0.0-4.0","5f76198ba661c70678e69b98","5fef55e628823a0076ec12ee","601f44777d1dc9494ba3aa8d","Mozilla/5.0 (Windows NT 10.0; Win64; x64) AppleWebKit/537.36 (KHTML, like Gecko) Chrome/87.0.4280.141 Safari/537.36 OPR/73.0.3856.344","v1","","","","","0","6","0.7","","","","","","","","","",""
"headphone-backwards-check","5","67008","0.0-5.0","5f76198ba661c70678e69b98","5fef55e628823a0076ec12ee","601f44777d1dc9494ba3aa8d","Mozilla/5.0 (Windows NT 10.0; Win64; x64) AppleWebKit/537.36 (KHTML, like Gecko) Chrome/87.0.4280.141 Safari/537.36 OPR/73.0.3856.344","v1","","","","","0","","","","","","","","","","","",""
"training","6","200182","0.0-6.0","5f76198ba661c70678e69b98","5fef55e628823a0076ec12ee","601f44777d1dc9494ba3aa8d","Mozilla/5.0 (Windows NT 10.0; Win64; x64) AppleWebKit/537.36 (KHTML, like Gecko) Chrome/87.0.4280.141 Safari/537.36 OPR/73.0.3856.344","v1","","","","","","","","","","","","","","","","",""
"block-bookend","7","216119","0.0-7.0","5f76198ba661c70678e69b98","5fef55e628823a0076ec12ee","601f44777d1dc9494ba3aa8d","Mozilla/5.0 (Windows NT 10.0; Win64; x64) AppleWebKit/537.36 (KHTML, like Gecko) Chrome/87.0.4280.141 Safari/537.36 OPR/73.0.3856.344","v1","","","","","","","","","","","","","","","","",""
"echo-presentation","8","221750","0.0-8.0","5f76198ba661c70678e69b98","5fef55e628823a0076ec12ee","601f44777d1dc9494ba3aa8d","Mozilla/5.0 (Windows NT 10.0; Win64; x64) AppleWebKit/537.36 (KHTML, like Gecko) Chrome/87.0.4280.141 Safari/537.36 OPR/73.0.3856.344","v1","","","","","","","","40,50,60,70,80","media/audio/stims/spherical_300cm_s20_c20_cd-full_matched_a40.wav","spherical","20","20","full","matched","40","60","2508"
"echo-presentation","9","225572","0.0-9.0","5f76198ba661c70678e69b98","5fef55e628823a0076ec12ee","601f44777d1dc9494ba3aa8d","Mozilla/5.0 (Windows NT 10.0; Win64; x64) AppleWebKit/537.36 (KHTML, like Gecko) Chrome/87.0.4280.141 Safari/537.36 OPR/73.0.3856.344","v1","","","","","","","","40,50,60,70,80","media/audio/stims/spherical_300cm_s20_c20_cd-full_matched_a70.wav","spherical","20","20","full","matched","70","80","2038"
"echo-presentation","10","229922","0.0-10.0","5f76198ba661c70678e69b98","5fef55e628823a0076ec12ee","601f44777d1dc9494ba3aa8d","Mozilla/5.0 (Windows NT 10.0; Win64; x64) AppleWebKit/537.36 (KHTML, like Gecko) Chrome/87.0.4280.141 Safari/537.36 OPR/73.0.3856.344","v1","","","","","","","","40,50,60,70,80","media/audio/stims/spherical_300cm_s20_c20_cd-full_matched_a50.wav","spherical","20","20","full","matched","50","70","2623"
"echo-presentation","11","233473","0.0-11.0","5f76198ba661c70678e69b98","5fef55e628823a0076ec12ee","601f44777d1dc9494ba3aa8d","Mozilla/5.0 (Windows NT 10.0; Win64; x64) AppleWebKit/537.36 (KHTML, like Gecko) Chrome/87.0.4280.141 Safari/537.36 OPR/73.0.3856.344","v1","","","","","","","","40,50,60,70,80","media/audio/stims/spherical_300cm_s20_c20_cd-full_matched_a40.wav","spherical","20","20","full","matched","40","60","2184"
"echo-presentation","12","236508","0.0-12.0","5f76198ba661c70678e69b98","5fef55e628823a0076ec12ee","601f44777d1dc9494ba3aa8d","Mozilla/5.0 (Windows NT 10.0; Win64; x64) AppleWebKit/537.36 (KHTML, like Gecko) Chrome/87.0.4280.141 Safari/537.36 OPR/73.0.3856.344","v1","","","","","","","","40,50,60,70,80","media/audio/stims/spherical_300cm_s20_c20_cd-full_matched_a70.wav","spherical","20","20","full","matched","70","80","1587"
"echo-presentation","13","240645","0.0-13.0","5f76198ba661c70678e69b98","5fef55e628823a0076ec12ee","601f44777d1dc9494ba3aa8d","Mozilla/5.0 (Windows NT 10.0; Win64; x64) AppleWebKit/537.36 (KHTML, like Gecko) Chrome/87.0.4280.141 Safari/537.36 OPR/73.0.3856.344","v1","","","","","","","","40,50,60,70,80","media/audio/stims/spherical_300cm_s20_c20_cd-full_matched_a50.wav","spherical","20","20","full","matched","50","60","1915"
"echo-presentation","14","244079","0.0-14.0","5f76198ba661c70678e69b98","5fef55e628823a0076ec12ee","601f44777d1dc9494ba3aa8d","Mozilla/5.0 (Windows NT 10.0; Win64; x64) AppleWebKit/537.36 (KHTML, like Gecko) Chrome/87.0.4280.141 Safari/537.36 OPR/73.0.3856.344","v1","","","","","","","","40,50,60,70,80","media/audio/stims/spherical_300cm_s20_c20_cd-full_matched_a50.wav","spherical","20","20","full","matched","50","70","2113"
"echo-presentation","15","248090","0.0-15.0","5f76198ba661c70678e69b98","5fef55e628823a0076ec12ee","601f44777d1dc9494ba3aa8d","Mozilla/5.0 (Windows NT 10.0; Win64; x64) AppleWebKit/537.36 (KHTML, like Gecko) Chrome/87.0.4280.141 Safari/537.36 OPR/73.0.3856.344","v1","","","","","","","","40,50,60,70,80","media/audio/stims/spherical_300cm_s20_c20_cd-full_matched_a70.wav","spherical","20","20","full","matched","70","50","2972"
"echo-presentation","16","252051","0.0-16.0","5f76198ba661c70678e69b98","5fef55e628823a0076ec12ee","601f44777d1dc9494ba3aa8d","Mozilla/5.0 (Windows NT 10.0; Win64; x64) AppleWebKit/537.36 (KHTML, like Gecko) Chrome/87.0.4280.141 Safari/537.36 OPR/73.0.3856.344","v1","","","","","","","","40,50,60,70,80","media/audio/stims/spherical_300cm_s20_c20_cd-full_matched_a60.wav","spherical","20","20","full","matched","60","60","2114"
"echo-presentation","17","254979","0.0-17.0","5f76198ba661c70678e69b98","5fef55e628823a0076ec12ee","601f44777d1dc9494ba3aa8d","Mozilla/5.0 (Windows NT 10.0; Win64; x64) AppleWebKit/537.36 (KHTML, like Gecko) Chrome/87.0.4280.141 Safari/537.36 OPR/73.0.3856.344","v1","","","","","","","","40,50,60,70,80","media/audio/stims/spherical_300cm_s20_c20_cd-full_matched_a80.wav","spherical","20","20","full","matched","80","80","1794"
"echo-presentation","18","258296","0.0-18.0","5f76198ba661c70678e69b98","5fef55e628823a0076ec12ee","601f44777d1dc9494ba3aa8d","Mozilla/5.0 (Windows NT 10.0; Win64; x64) AppleWebKit/537.36 (KHTML, like Gecko) Chrome/87.0.4280.141 Safari/537.36 OPR/73.0.3856.344","v1","","","","","","","","40,50,60,70,80","media/audio/stims/spherical_300cm_s20_c20_cd-full_matched_a50.wav","spherical","20","20","full","matched","50","70","1796"
"echo-presentation","19","261283","0.0-19.0","5f76198ba661c70678e69b98","5fef55e628823a0076ec12ee","601f44777d1dc9494ba3aa8d","Mozilla/5.0 (Windows NT 10.0; Win64; x64) AppleWebKit/537.36 (KHTML, like Gecko) Chrome/87.0.4280.141 Safari/537.36 OPR/73.0.3856.344","v1","","","","","","","","40,50,60,70,80","media/audio/stims/spherical_300cm_s20_c20_cd-full_matched_a80.wav","spherical","20","20","full","matched","80","70","1625"
"echo-presentation","20","265909","0.0-20.0","5f76198ba661c70678e69b98","5fef55e628823a0076ec12ee","601f44777d1dc9494ba3aa8d","Mozilla/5.0 (Windows NT 10.0; Win64; x64) AppleWebKit/537.36 (KHTML, like Gecko) Chrome/87.0.4280.141 Safari/537.36 OPR/73.0.3856.344","v1","","","","","","","","40,50,60,70,80","media/audio/stims/spherical_300cm_s20_c20_cd-full_matched_a60.wav","spherical","20","20","full","matched","60","80","3252"
"echo-presentation","21","268887","0.0-21.0","5f76198ba661c70678e69b98","5fef55e628823a0076ec12ee","601f44777d1dc9494ba3aa8d","Mozilla/5.0 (Windows NT 10.0; Win64; x64) AppleWebKit/537.36 (KHTML, like Gecko) Chrome/87.0.4280.141 Safari/537.36 OPR/73.0.3856.344","v1","","","","","","","","40,50,60,70,80","media/audio/stims/spherical_300cm_s20_c20_cd-full_matched_a70.wav","spherical","20","20","full","matched","70","60","1883"
"echo-presentation","22","271564","0.0-22.0","5f76198ba661c70678e69b98","5fef55e628823a0076ec12ee","601f44777d1dc9494ba3aa8d","Mozilla/5.0 (Windows NT 10.0; Win64; x64) AppleWebKit/537.36 (KHTML, like Gecko) Chrome/87.0.4280.141 Safari/537.36 OPR/73.0.3856.344","v1","","","","","","","","40,50,60,70,80","media/audio/stims/spherical_300cm_s20_c20_cd-full_matched_a40.wav","spherical","20","20","full","matched","40","70","1517"
"echo-presentation","23","274406","0.0-23.0","5f76198ba661c70678e69b98","5fef55e628823a0076ec12ee","601f44777d1dc9494ba3aa8d","Mozilla/5.0 (Windows NT 10.0; Win64; x64) AppleWebKit/537.36 (KHTML, like Gecko) Chrome/87.0.4280.141 Safari/537.36 OPR/73.0.3856.344","v1","","","","","","","","40,50,60,70,80","media/audio/stims/spherical_300cm_s20_c20_cd-full_matched_a80.wav","spherical","20","20","full","matched","80","60","1809"
"echo-presentation","24","277737","0.0-24.0","5f76198ba661c70678e69b98","5fef55e628823a0076ec12ee","601f44777d1dc9494ba3aa8d","Mozilla/5.0 (Windows NT 10.0; Win64; x64) AppleWebKit/537.36 (KHTML, like Gecko) Chrome/87.0.4280.141 Safari/537.36 OPR/73.0.3856.344","v1","","","","","","","","40,50,60,70,80","media/audio/stims/spherical_300cm_s20_c20_cd-full_matched_a40.wav","spherical","20","20","full","matched","40","70","1570"
"echo-presentation","25","281102","0.0-25.0","5f76198ba661c70678e69b98","5fef55e628823a0076ec12ee","601f44777d1dc9494ba3aa8d","Mozilla/5.0 (Windows NT 10.0; Win64; x64) AppleWebKit/537.36 (KHTML, like Gecko) Chrome/87.0.4280.141 Safari/537.36 OPR/73.0.3856.344","v1","","","","","","","","40,50,60,70,80","media/audio/stims/spherical_300cm_s20_c20_cd-full_matched_a80.wav","spherical","20","20","full","matched","80","60","2033"
"echo-presentation","26","284353","0.0-26.0","5f76198ba661c70678e69b98","5fef55e628823a0076ec12ee","601f44777d1dc9494ba3aa8d","Mozilla/5.0 (Windows NT 10.0; Win64; x64) AppleWebKit/537.36 (KHTML, like Gecko) Chrome/87.0.4280.141 Safari/537.36 OPR/73.0.3856.344","v1","","","","","","","","40,50,60,70,80","media/audio/stims/spherical_300cm_s20_c20_cd-full_matched_a60.wav","spherical","20","20","full","matched","60","80","1484"
"echo-presentation","27","286942","0.0-27.0","5f76198ba661c70678e69b98","5fef55e628823a0076ec12ee","601f44777d1dc9494ba3aa8d","Mozilla/5.0 (Windows NT 10.0; Win64; x64) AppleWebKit/537.36 (KHTML, like Gecko) Chrome/87.0.4280.141 Safari/537.36 OPR/73.0.3856.344","v1","","","","","","","","40,50,60,70,80","media/audio/stims/spherical_300cm_s20_c20_cd-full_matched_a60.wav","spherical","20","20","full","matched","60","80","1321"
"block-bookend","28","295476","0.0-28.0","5f76198ba661c70678e69b98","5fef55e628823a0076ec12ee","601f44777d1dc9494ba3aa8d","Mozilla/5.0 (Windows NT 10.0; Win64; x64) AppleWebKit/537.36 (KHTML, like Gecko) Chrome/87.0.4280.141 Safari/537.36 OPR/73.0.3856.344","v1","","","","","","","","","","","","","","","","",""
"block-bookend","29","306815","0.0-29.0","5f76198ba661c70678e69b98","5fef55e628823a0076ec12ee","601f44777d1dc9494ba3aa8d","Mozilla/5.0 (Windows NT 10.0; Win64; x64) AppleWebKit/537.36 (KHTML, like Gecko) Chrome/87.0.4280.141 Safari/537.36 OPR/73.0.3856.344","v1","","","","","","","","","","","","","","","","",""
"echo-presentation","30","311030","0.0-30.0","5f76198ba661c70678e69b98","5fef55e628823a0076ec12ee","601f44777d1dc9494ba3aa8d","Mozilla/5.0 (Windows NT 10.0; Win64; x64) AppleWebKit/537.36 (KHTML, like Gecko) Chrome/87.0.4280.141 Safari/537.36 OPR/73.0.3856.344","v1","","","","","","","","40,50,60,70,80","media/audio/stims/spherical_300cm_s20_c20_cd-full_matched_a40.wav","spherical","20","20","full","matched","40","60","1989"
"echo-presentation","31","313874","0.0-31.0","5f76198ba661c70678e69b98","5fef55e628823a0076ec12ee","601f44777d1dc9494ba3aa8d","Mozilla/5.0 (Windows NT 10.0; Win64; x64) AppleWebKit/537.36 (KHTML, like Gecko) Chrome/87.0.4280.141 Safari/537.36 OPR/73.0.3856.344","v1","","","","","","","","40,50,60,70,80","media/audio/stims/spherical_300cm_s20_c20_cd-full_matched_a80.wav","spherical","20","20","full","matched","80","70","1452"
"echo-presentation","32","317119","0.0-32.0","5f76198ba661c70678e69b98","5fef55e628823a0076ec12ee","601f44777d1dc9494ba3aa8d","Mozilla/5.0 (Windows NT 10.0; Win64; x64) AppleWebKit/537.36 (KHTML, like Gecko) Chrome/87.0.4280.141 Safari/537.36 OPR/73.0.3856.344","v1","","","","","","","","40,50,60,70,80","media/audio/stims/spherical_300cm_s20_c20_cd-full_matched_a50.wav","spherical","20","20","full","matched","50","80","1721"
"echo-presentation","33","321112","0.0-33.0","5f76198ba661c70678e69b98","5fef55e628823a0076ec12ee","601f44777d1dc9494ba3aa8d","Mozilla/5.0 (Windows NT 10.0; Win64; x64) AppleWebKit/537.36 (KHTML, like Gecko) Chrome/87.0.4280.141 Safari/537.36 OPR/73.0.3856.344","v1","","","","","","","","40,50,60,70,80","media/audio/stims/spherical_300cm_s20_c20_cd-full_matched_a60.wav","spherical","20","20","full","matched","60","70","2460"
"echo-presentation","34","324083","0.0-34.0","5f76198ba661c70678e69b98","5fef55e628823a0076ec12ee","601f44777d1dc9494ba3aa8d","Mozilla/5.0 (Windows NT 10.0; Win64; x64) AppleWebKit/537.36 (KHTML, like Gecko) Chrome/87.0.4280.141 Safari/537.36 OPR/73.0.3856.344","v1","","","","","","","","40,50,60,70,80","media/audio/stims/spherical_300cm_s20_c20_cd-full_matched_a70.wav","spherical","20","20","full","matched","70","80","1896"
"echo-presentation","35","327258","0.0-35.0","5f76198ba661c70678e69b98","5fef55e628823a0076ec12ee","601f44777d1dc9494ba3aa8d","Mozilla/5.0 (Windows NT 10.0; Win64; x64) AppleWebKit/537.36 (KHTML, like Gecko) Chrome/87.0.4280.141 Safari/537.36 OPR/73.0.3856.344","v1","","","","","","","","40,50,60,70,80","media/audio/stims/spherical_300cm_s20_c20_cd-full_matched_a70.wav","spherical","20","20","full","matched","70","80","1366"
"echo-presentation","36","329963","0.0-36.0","5f76198ba661c70678e69b98","5fef55e628823a0076ec12ee","601f44777d1dc9494ba3aa8d","Mozilla/5.0 (Windows NT 10.0; Win64; x64) AppleWebKit/537.36 (KHTML, like Gecko) Chrome/87.0.4280.141 Safari/537.36 OPR/73.0.3856.344","v1","","","","","","","","40,50,60,70,80","media/audio/stims/spherical_300cm_s20_c20_cd-full_matched_a60.wav","spherical","20","20","full","matched","60","70","1624"
"echo-presentation","37","332875","0.0-37.0","5f76198ba661c70678e69b98","5fef55e628823a0076ec12ee","601f44777d1dc9494ba3aa8d","Mozilla/5.0 (Windows NT 10.0; Win64; x64) AppleWebKit/537.36 (KHTML, like Gecko) Chrome/87.0.4280.141 Safari/537.36 OPR/73.0.3856.344","v1","","","","","","","","40,50,60,70,80","media/audio/stims/spherical_300cm_s20_c20_cd-full_matched_a80.wav","spherical","20","20","full","matched","80","70","1687"
"echo-presentation","38","335624","0.0-38.0","5f76198ba661c70678e69b98","5fef55e628823a0076ec12ee","601f44777d1dc9494ba3aa8d","Mozilla/5.0 (Windows NT 10.0; Win64; x64) AppleWebKit/537.36 (KHTML, like Gecko) Chrome/87.0.4280.141 Safari/537.36 OPR/73.0.3856.344","v1","","","","","","","","40,50,60,70,80","media/audio/stims/spherical_300cm_s20_c20_cd-full_matched_a40.wav","spherical","20","20","full","matched","40","80","1658"
"echo-presentation","39","338650","0.0-39.0","5f76198ba661c70678e69b98","5fef55e628823a0076ec12ee","601f44777d1dc9494ba3aa8d","Mozilla/5.0 (Windows NT 10.0; Win64; x64) AppleWebKit/537.36 (KHTML, like Gecko) Chrome/87.0.4280.141 Safari/537.36 OPR/73.0.3856.344","v1","","","","","","","","40,50,60,70,80","media/audio/stims/spherical_300cm_s20_c20_cd-full_matched_a60.wav","spherical","20","20","full","matched","60","70","1952"
"echo-presentation","40","341591","0.0-40.0","5f76198ba661c70678e69b98","5fef55e628823a0076ec12ee","601f44777d1dc9494ba3aa8d","Mozilla/5.0 (Windows NT 10.0; Win64; x64) AppleWebKit/537.36 (KHTML, like Gecko) Chrome/87.0.4280.141 Safari/537.36 OPR/73.0.3856.344","v1","","","","","","","","40,50,60,70,80","media/audio/stims/spherical_300cm_s20_c20_cd-full_matched_a80.wav","spherical","20","20","full","matched","80","60","1573"
"echo-presentation","41","344673","0.0-41.0","5f76198ba661c70678e69b98","5fef55e628823a0076ec12ee","601f44777d1dc9494ba3aa8d","Mozilla/5.0 (Windows NT 10.0; Win64; x64) AppleWebKit/537.36 (KHTML, like Gecko) Chrome/87.0.4280.141 Safari/537.36 OPR/73.0.3856.344","v1","","","","","","","","40,50,60,70,80","media/audio/stims/spherical_300cm_s20_c20_cd-full_matched_a80.wav","spherical","20","20","full","matched","80","70","1591"
"echo-presentation","42","348036","0.0-42.0","5f76198ba661c70678e69b98","5fef55e628823a0076ec12ee","601f44777d1dc9494ba3aa8d","Mozilla/5.0 (Windows NT 10.0; Win64; x64) AppleWebKit/537.36 (KHTML, like Gecko) Chrome/87.0.4280.141 Safari/537.36 OPR/73.0.3856.344","v1","","","","","","","","40,50,60,70,80","media/audio/stims/spherical_300cm_s20_c20_cd-full_matched_a40.wav","spherical","20","20","full","matched","40","80","1960"
"echo-presentation","43","351014","0.0-43.0","5f76198ba661c70678e69b98","5fef55e628823a0076ec12ee","601f44777d1dc9494ba3aa8d","Mozilla/5.0 (Windows NT 10.0; Win64; x64) AppleWebKit/537.36 (KHTML, like Gecko) Chrome/87.0.4280.141 Safari/537.36 OPR/73.0.3856.344","v1","","","","","","","","40,50,60,70,80","media/audio/stims/spherical_300cm_s20_c20_cd-full_matched_a70.wav","spherical","20","20","full","matched","70","70","1743"
"echo-presentation","44","354475","0.0-44.0","5f76198ba661c70678e69b98","5fef55e628823a0076ec12ee","601f44777d1dc9494ba3aa8d","Mozilla/5.0 (Windows NT 10.0; Win64; x64) AppleWebKit/537.36 (KHTML, like Gecko) Chrome/87.0.4280.141 Safari/537.36 OPR/73.0.3856.344","v1","","","","","","","","40,50,60,70,80","media/audio/stims/spherical_300cm_s20_c20_cd-full_matched_a40.wav","spherical","20","20","full","matched","40","60","2476"
"echo-presentation","45","357215","0.0-45.0","5f76198ba661c70678e69b98","5fef55e628823a0076ec12ee","601f44777d1dc9494ba3aa8d","Mozilla/5.0 (Windows NT 10.0; Win64; x64) AppleWebKit/537.36 (KHTML, like Gecko) Chrome/87.0.4280.141 Safari/537.36 OPR/73.0.3856.344","v1","","","","","","","","40,50,60,70,80","media/audio/stims/spherical_300cm_s20_c20_cd-full_matched_a50.wav","spherical","20","20","full","matched","50","70","1461"
"echo-presentation","46","360426","0.0-46.0","5f76198ba661c70678e69b98","5fef55e628823a0076ec12ee","601f44777d1dc9494ba3aa8d","Mozilla/5.0 (Windows NT 10.0; Win64; x64) AppleWebKit/537.36 (KHTML, like Gecko) Chrome/87.0.4280.141 Safari/537.36 OPR/73.0.3856.344","v1","","","","","","","","40,50,60,70,80","media/audio/stims/spherical_300cm_s20_c20_cd-full_matched_a60.wav","spherical","20","20","full","matched","60","70","1599"
"echo-presentation","47","363311","0.0-47.0","5f76198ba661c70678e69b98","5fef55e628823a0076ec12ee","601f44777d1dc9494ba3aa8d","Mozilla/5.0 (Windows NT 10.0; Win64; x64) AppleWebKit/537.36 (KHTML, like Gecko) Chrome/87.0.4280.141 Safari/537.36 OPR/73.0.3856.344","v1","","","","","","","","40,50,60,70,80","media/audio/stims/spherical_300cm_s20_c20_cd-full_matched_a50.wav","spherical","20","20","full","matched","50","80","1793"
"echo-presentation","48","366339","0.0-48.0","5f76198ba661c70678e69b98","5fef55e628823a0076ec12ee","601f44777d1dc9494ba3aa8d","Mozilla/5.0 (Windows NT 10.0; Win64; x64) AppleWebKit/537.36 (KHTML, like Gecko) Chrome/87.0.4280.141 Safari/537.36 OPR/73.0.3856.344","v1","","","","","","","","40,50,60,70,80","media/audio/stims/spherical_300cm_s20_c20_cd-full_matched_a50.wav","spherical","20","20","full","matched","50","70","1905"
"echo-presentation","49","369240","0.0-49.0","5f76198ba661c70678e69b98","5fef55e628823a0076ec12ee","601f44777d1dc9494ba3aa8d","Mozilla/5.0 (Windows NT 10.0; Win64; x64) AppleWebKit/537.36 (KHTML, like Gecko) Chrome/87.0.4280.141 Safari/537.36 OPR/73.0.3856.344","v1","","","","","","","","40,50,60,70,80","media/audio/stims/spherical_300cm_s20_c20_cd-full_matched_a70.wav","spherical","20","20","full","matched","70","60","1795"
"block-bookend","50","389695","0.0-50.0","5f76198ba661c70678e69b98","5fef55e628823a0076ec12ee","601f44777d1dc9494ba3aa8d","Mozilla/5.0 (Windows NT 10.0; Win64; x64) AppleWebKit/537.36 (KHTML, like Gecko) Chrome/87.0.4280.141 Safari/537.36 OPR/73.0.3856.344","v1","","","","","","","","","","","","","","","","",""
"block-bookend","51","398733","0.0-51.0","5f76198ba661c70678e69b98","5fef55e628823a0076ec12ee","601f44777d1dc9494ba3aa8d","Mozilla/5.0 (Windows NT 10.0; Win64; x64) AppleWebKit/537.36 (KHTML, like Gecko) Chrome/87.0.4280.141 Safari/537.36 OPR/73.0.3856.344","v1","","","","","","","","","","","","","","","","",""
"echo-presentation","52","402763","0.0-52.0","5f76198ba661c70678e69b98","5fef55e628823a0076ec12ee","601f44777d1dc9494ba3aa8d","Mozilla/5.0 (Windows NT 10.0; Win64; x64) AppleWebKit/537.36 (KHTML, like Gecko) Chrome/87.0.4280.141 Safari/537.36 OPR/73.0.3856.344","v1","","","","","","","","-80,-70,-60,-50,-40","media/audio/stims/spherical_300cm_s20_c20_cd-full_matched_a-80.wav","spherical","20","20","full","matched","-80","-70","2022"
"echo-presentation","53","406000","0.0-53.0","5f76198ba661c70678e69b98","5fef55e628823a0076ec12ee","601f44777d1dc9494ba3aa8d","Mozilla/5.0 (Windows NT 10.0; Win64; x64) AppleWebKit/537.36 (KHTML, like Gecko) Chrome/87.0.4280.141 Safari/537.36 OPR/73.0.3856.344","v1","","","","","","","","-80,-70,-60,-50,-40","media/audio/stims/spherical_300cm_s20_c20_cd-full_matched_a-40.wav","spherical","20","20","full","matched","-40","-80","1814"
"echo-presentation","54","409172","0.0-54.0","5f76198ba661c70678e69b98","5fef55e628823a0076ec12ee","601f44777d1dc9494ba3aa8d","Mozilla/5.0 (Windows NT 10.0; Win64; x64) AppleWebKit/537.36 (KHTML, like Gecko) Chrome/87.0.4280.141 Safari/537.36 OPR/73.0.3856.344","v1","","","","","","","","-80,-70,-60,-50,-40","media/audio/stims/spherical_300cm_s20_c20_cd-full_matched_a-60.wav","spherical","20","20","full","matched","-60","-60","1792"
"echo-presentation","55","411446","0.0-55.0","5f76198ba661c70678e69b98","5fef55e628823a0076ec12ee","601f44777d1dc9494ba3aa8d","Mozilla/5.0 (Windows NT 10.0; Win64; x64) AppleWebKit/537.36 (KHTML, like Gecko) Chrome/87.0.4280.141 Safari/537.36 OPR/73.0.3856.344","v1","","","","","","","","-80,-70,-60,-50,-40","media/audio/stims/spherical_300cm_s20_c20_cd-full_matched_a-50.wav","spherical","20","20","full","matched","-50","-70","1133"
"echo-presentation","56","415227","0.0-56.0","5f76198ba661c70678e69b98","5fef55e628823a0076ec12ee","601f44777d1dc9494ba3aa8d","Mozilla/5.0 (Windows NT 10.0; Win64; x64) AppleWebKit/537.36 (KHTML, like Gecko) Chrome/87.0.4280.141 Safari/537.36 OPR/73.0.3856.344","v1","","","","","","","","-80,-70,-60,-50,-40","media/audio/stims/spherical_300cm_s20_c20_cd-full_matched_a-60.wav","spherical","20","20","full","matched","-60","-70","2120"
"echo-presentation","57","417938","0.0-57.0","5f76198ba661c70678e69b98","5fef55e628823a0076ec12ee","601f44777d1dc9494ba3aa8d","Mozilla/5.0 (Windows NT 10.0; Win64; x64) AppleWebKit/537.36 (KHTML, like Gecko) Chrome/87.0.4280.141 Safari/537.36 OPR/73.0.3856.344","v1","","","","","","","","-80,-70,-60,-50,-40","media/audio/stims/spherical_300cm_s20_c20_cd-full_matched_a-40.wav","spherical","20","20","full","matched","-40","-60","1500"
"echo-presentation","58","420548","0.0-58.0","5f76198ba661c70678e69b98","5fef55e628823a0076ec12ee","601f44777d1dc9494ba3aa8d","Mozilla/5.0 (Windows NT 10.0; Win64; x64) AppleWebKit/537.36 (KHTML, like Gecko) Chrome/87.0.4280.141 Safari/537.36 OPR/73.0.3856.344","v1","","","","","","","","-80,-70,-60,-50,-40","media/audio/stims/spherical_300cm_s20_c20_cd-full_matched_a-70.wav","spherical","20","20","full","matched","-70","-60","1576"
"echo-presentation","59","423321","0.0-59.0","5f76198ba661c70678e69b98","5fef55e628823a0076ec12ee","601f44777d1dc9494ba3aa8d","Mozilla/5.0 (Windows NT 10.0; Win64; x64) AppleWebKit/537.36 (KHTML, like Gecko) Chrome/87.0.4280.141 Safari/537.36 OPR/73.0.3856.344","v1","","","","","","","","-80,-70,-60,-50,-40","media/audio/stims/spherical_300cm_s20_c20_cd-full_matched_a-70.wav","spherical","20","20","full","matched","-70","-60","1697"
"echo-presentation","60","426716","0.0-60.0","5f76198ba661c70678e69b98","5fef55e628823a0076ec12ee","601f44777d1dc9494ba3aa8d","Mozilla/5.0 (Windows NT 10.0; Win64; x64) AppleWebKit/537.36 (KHTML, like Gecko) Chrome/87.0.4280.141 Safari/537.36 OPR/73.0.3856.344","v1","","","","","","","","-80,-70,-60,-50,-40","media/audio/stims/spherical_300cm_s20_c20_cd-full_matched_a-80.wav","spherical","20","20","full","matched","-80","-50","2247"
"echo-presentation","61","429306","0.0-61.0","5f76198ba661c70678e69b98","5fef55e628823a0076ec12ee","601f44777d1dc9494ba3aa8d","Mozilla/5.0 (Windows NT 10.0; Win64; x64) AppleWebKit/537.36 (KHTML, like Gecko) Chrome/87.0.4280.141 Safari/537.36 OPR/73.0.3856.344","v1","","","","","","","","-80,-70,-60,-50,-40","media/audio/stims/spherical_300cm_s20_c20_cd-full_matched_a-60.wav","spherical","20","20","full","matched","-60","-70","1609"
"echo-presentation","62","431902","0.0-62.0","5f76198ba661c70678e69b98","5fef55e628823a0076ec12ee","601f44777d1dc9494ba3aa8d","Mozilla/5.0 (Windows NT 10.0; Win64; x64) AppleWebKit/537.36 (KHTML, like Gecko) Chrome/87.0.4280.141 Safari/537.36 OPR/73.0.3856.344","v1","","","","","","","","-80,-70,-60,-50,-40","media/audio/stims/spherical_300cm_s20_c20_cd-full_matched_a-50.wav","spherical","20","20","full","matched","-50","-70","1603"
"echo-presentation","63","435324","0.0-63.0","5f76198ba661c70678e69b98","5fef55e628823a0076ec12ee","601f44777d1dc9494ba3aa8d","Mozilla/5.0 (Windows NT 10.0; Win64; x64) AppleWebKit/537.36 (KHTML, like Gecko) Chrome/87.0.4280.141 Safari/537.36 OPR/73.0.3856.344","v1","","","","","","","","-80,-70,-60,-50,-40","media/audio/stims/spherical_300cm_s20_c20_cd-full_matched_a-40.wav","spherical","20","20","full","matched","-40","-70","2384"
"echo-presentation","64","438338","0.0-64.0","5f76198ba661c70678e69b98","5fef55e628823a0076ec12ee","601f44777d1dc9494ba3aa8d","Mozilla/5.0 (Windows NT 10.0; Win64; x64) AppleWebKit/537.36 (KHTML, like Gecko) Chrome/87.0.4280.141 Safari/537.36 OPR/73.0.3856.344","v1","","","","","","","","-80,-70,-60,-50,-40","media/audio/stims/spherical_300cm_s20_c20_cd-full_matched_a-70.wav","spherical","20","20","full","matched","-70","-50","1972"
"echo-presentation","65","441585","0.0-65.0","5f76198ba661c70678e69b98","5fef55e628823a0076ec12ee","601f44777d1dc9494ba3aa8d","Mozilla/5.0 (Windows NT 10.0; Win64; x64) AppleWebKit/537.36 (KHTML, like Gecko) Chrome/87.0.4280.141 Safari/537.36 OPR/73.0.3856.344","v1","","","","","","","","-80,-70,-60,-50,-40","media/audio/stims/spherical_300cm_s20_c20_cd-full_matched_a-40.wav","spherical","20","20","full","matched","-40","-80","2004"
"echo-presentation","66","444538","0.0-66.0","5f76198ba661c70678e69b98","5fef55e628823a0076ec12ee","601f44777d1dc9494ba3aa8d","Mozilla/5.0 (Windows NT 10.0; Win64; x64) AppleWebKit/537.36 (KHTML, like Gecko) Chrome/87.0.4280.141 Safari/537.36 OPR/73.0.3856.344","v1","","","","","","","","-80,-70,-60,-50,-40","media/audio/stims/spherical_300cm_s20_c20_cd-full_matched_a-70.wav","spherical","20","20","full","matched","-70","-70","1487"
"echo-presentation","67","446848","0.0-67.0","5f76198ba661c70678e69b98","5fef55e628823a0076ec12ee","601f44777d1dc9494ba3aa8d","Mozilla/5.0 (Windows NT 10.0; Win64; x64) AppleWebKit/537.36 (KHTML, like Gecko) Chrome/87.0.4280.141 Safari/537.36 OPR/73.0.3856.344","v1","","","","","","","","-80,-70,-60,-50,-40","media/audio/stims/spherical_300cm_s20_c20_cd-full_matched_a-80.wav","spherical","20","20","full","matched","-80","-80","1330"
"echo-presentation","68","449636","0.0-68.0","5f76198ba661c70678e69b98","5fef55e628823a0076ec12ee","601f44777d1dc9494ba3aa8d","Mozilla/5.0 (Windows NT 10.0; Win64; x64) AppleWebKit/537.36 (KHTML, like Gecko) Chrome/87.0.4280.141 Safari/537.36 OPR/73.0.3856.344","v1","","","","","","","","-80,-70,-60,-50,-40","media/audio/stims/spherical_300cm_s20_c20_cd-full_matched_a-60.wav","spherical","20","20","full","matched","-60","-70","1785"
"echo-presentation","69","452434","0.0-69.0","5f76198ba661c70678e69b98","5fef55e628823a0076ec12ee","601f44777d1dc9494ba3aa8d","Mozilla/5.0 (Windows NT 10.0; Win64; x64) AppleWebKit/537.36 (KHTML, like Gecko) Chrome/87.0.4280.141 Safari/537.36 OPR/73.0.3856.344","v1","","","","","","","","-80,-70,-60,-50,-40","media/audio/stims/spherical_300cm_s20_c20_cd-full_matched_a-50.wav","spherical","20","20","full","matched","-50","-60","1675"
"echo-presentation","70","455405","0.0-70.0","5f76198ba661c70678e69b98","5fef55e628823a0076ec12ee","601f44777d1dc9494ba3aa8d","Mozilla/5.0 (Windows NT 10.0; Win64; x64) AppleWebKit/537.36 (KHTML, like Gecko) Chrome/87.0.4280.141 Safari/537.36 OPR/73.0.3856.344","v1","","","","","","","","-80,-70,-60,-50,-40","media/audio/stims/spherical_300cm_s20_c20_cd-full_matched_a-50.wav","spherical","20","20","full","matched","-50","-50","1919"
"echo-presentation","71","458398","0.0-71.0","5f76198ba661c70678e69b98","5fef55e628823a0076ec12ee","601f44777d1dc9494ba3aa8d","Mozilla/5.0 (Windows NT 10.0; Win64; x64) AppleWebKit/537.36 (KHTML, like Gecko) Chrome/87.0.4280.141 Safari/537.36 OPR/73.0.3856.344","v1","","","","","","","","-80,-70,-60,-50,-40","media/audio/stims/spherical_300cm_s20_c20_cd-full_matched_a-80.wav","spherical","20","20","full","matched","-80","-60","1943"
"block-bookend","72","468693","0.0-72.0","5f76198ba661c70678e69b98","5fef55e628823a0076ec12ee","601f44777d1dc9494ba3aa8d","Mozilla/5.0 (Windows NT 10.0; Win64; x64) AppleWebKit/537.36 (KHTML, like Gecko) Chrome/87.0.4280.141 Safari/537.36 OPR/73.0.3856.344","v1","","","","","","","","","","","","","","","","",""
"block-bookend","73","474113","0.0-73.0","5f76198ba661c70678e69b98","5fef55e628823a0076ec12ee","601f44777d1dc9494ba3aa8d","Mozilla/5.0 (Windows NT 10.0; Win64; x64) AppleWebKit/537.36 (KHTML, like Gecko) Chrome/87.0.4280.141 Safari/537.36 OPR/73.0.3856.344","v1","","","","","","","","","","","","","","","","",""
"echo-presentation","74","477409","0.0-74.0","5f76198ba661c70678e69b98","5fef55e628823a0076ec12ee","601f44777d1dc9494ba3aa8d","Mozilla/5.0 (Windows NT 10.0; Win64; x64) AppleWebKit/537.36 (KHTML, like Gecko) Chrome/87.0.4280.141 Safari/537.36 OPR/73.0.3856.344","v1","","","","","","","","-80,-70,-60,-50,-40","media/audio/stims/spherical_300cm_s20_c20_cd-full_matched_a-50.wav","spherical","20","20","full","matched","-50","-70","1391"
"echo-presentation","75","480058","0.0-75.0","5f76198ba661c70678e69b98","5fef55e628823a0076ec12ee","601f44777d1dc9494ba3aa8d","Mozilla/5.0 (Windows NT 10.0; Win64; x64) AppleWebKit/537.36 (KHTML, like Gecko) Chrome/87.0.4280.141 Safari/537.36 OPR/73.0.3856.344","v1","","","","","","","","-80,-70,-60,-50,-40","media/audio/stims/spherical_300cm_s20_c20_cd-full_matched_a-80.wav","spherical","20","20","full","matched","-80","-60","1400"
"echo-presentation","76","483121","0.0-76.0","5f76198ba661c70678e69b98","5fef55e628823a0076ec12ee","601f44777d1dc9494ba3aa8d","Mozilla/5.0 (Windows NT 10.0; Win64; x64) AppleWebKit/537.36 (KHTML, like Gecko) Chrome/87.0.4280.141 Safari/537.36 OPR/73.0.3856.344","v1","","","","","","","","-80,-70,-60,-50,-40","media/audio/stims/spherical_300cm_s20_c20_cd-full_matched_a-40.wav","spherical","20","20","full","matched","-40","-50","2050"
"echo-presentation","77","485704","0.0-77.0","5f76198ba661c70678e69b98","5fef55e628823a0076ec12ee","601f44777d1dc9494ba3aa8d","Mozilla/5.0 (Windows NT 10.0; Win64; x64) AppleWebKit/537.36 (KHTML, like Gecko) Chrome/87.0.4280.141 Safari/537.36 OPR/73.0.3856.344","v1","","","","","","","","-80,-70,-60,-50,-40","media/audio/stims/spherical_300cm_s20_c20_cd-full_matched_a-80.wav","spherical","20","20","full","matched","-80","-70","1571"
"echo-presentation","78","488338","0.0-78.0","5f76198ba661c70678e69b98","5fef55e628823a0076ec12ee","601f44777d1dc9494ba3aa8d","Mozilla/5.0 (Windows NT 10.0; Win64; x64) AppleWebKit/537.36 (KHTML, like Gecko) Chrome/87.0.4280.141 Safari/537.36 OPR/73.0.3856.344","v1","","","","","","","","-80,-70,-60,-50,-40","media/audio/stims/spherical_300cm_s20_c20_cd-full_matched_a-40.wav","spherical","20","20","full","matched","-40","-60","1487"
"echo-presentation","79","491163","0.0-79.0","5f76198ba661c70678e69b98","5fef55e628823a0076ec12ee","601f44777d1dc9494ba3aa8d","Mozilla/5.0 (Windows NT 10.0; Win64; x64) AppleWebKit/537.36 (KHTML, like Gecko) Chrome/87.0.4280.141 Safari/537.36 OPR/73.0.3856.344","v1","","","","","","","","-80,-70,-60,-50,-40","media/audio/stims/spherical_300cm_s20_c20_cd-full_matched_a-50.wav","spherical","20","20","full","matched","-50","-70","1504"
"echo-presentation","80","493499","0.0-80.0","5f76198ba661c70678e69b98","5fef55e628823a0076ec12ee","601f44777d1dc9494ba3aa8d","Mozilla/5.0 (Windows NT 10.0; Win64; x64) AppleWebKit/537.36 (KHTML, like Gecko) Chrome/87.0.4280.141 Safari/537.36 OPR/73.0.3856.344","v1","","","","","","","","-80,-70,-60,-50,-40","media/audio/stims/spherical_300cm_s20_c20_cd-full_matched_a-80.wav","spherical","20","20","full","matched","-80","-70","1447"
"echo-presentation","81","496030","0.0-81.0","5f76198ba661c70678e69b98","5fef55e628823a0076ec12ee","601f44777d1dc9494ba3aa8d","Mozilla/5.0 (Windows NT 10.0; Win64; x64) AppleWebKit/537.36 (KHTML, like Gecko) Chrome/87.0.4280.141 Safari/537.36 OPR/73.0.3856.344","v1","","","","","","","","-80,-70,-60,-50,-40","media/audio/stims/spherical_300cm_s20_c20_cd-full_matched_a-50.wav","spherical","20","20","full","matched","-50","-60","1383"
"echo-presentation","82","498247","0.0-82.0","5f76198ba661c70678e69b98","5fef55e628823a0076ec12ee","601f44777d1dc9494ba3aa8d","Mozilla/5.0 (Windows NT 10.0; Win64; x64) AppleWebKit/537.36 (KHTML, like Gecko) Chrome/87.0.4280.141 Safari/537.36 OPR/73.0.3856.344","v1","","","","","","","","-80,-70,-60,-50,-40","media/audio/stims/spherical_300cm_s20_c20_cd-full_matched_a-40.wav","spherical","20","20","full","matched","-40","-60","1213"
"echo-presentation","83","500626","0.0-83.0","5f76198ba661c70678e69b98","5fef55e628823a0076ec12ee","601f44777d1dc9494ba3aa8d","Mozilla/5.0 (Windows NT 10.0; Win64; x64) AppleWebKit/537.36 (KHTML, like Gecko) Chrome/87.0.4280.141 Safari/537.36 OPR/73.0.3856.344","v1","","","","","","","","-80,-70,-60,-50,-40","media/audio/stims/spherical_300cm_s20_c20_cd-full_matched_a-60.wav","spherical","20","20","full","matched","-60","-60","1267"
"echo-presentation","84","503340","0.0-84.0","5f76198ba661c70678e69b98","5fef55e628823a0076ec12ee","601f44777d1dc9494ba3aa8d","Mozilla/5.0 (Windows NT 10.0; Win64; x64) AppleWebKit/537.36 (KHTML, like Gecko) Chrome/87.0.4280.141 Safari/537.36 OPR/73.0.3856.344","v1","","","","","","","","-80,-70,-60,-50,-40","media/audio/stims/spherical_300cm_s20_c20_cd-full_matched_a-70.wav","spherical","20","20","full","matched","-70","-70","1501"
"echo-presentation","85","505780","0.0-85.0","5f76198ba661c70678e69b98","5fef55e628823a0076ec12ee","601f44777d1dc9494ba3aa8d","Mozilla/5.0 (Windows NT 10.0; Win64; x64) AppleWebKit/537.36 (KHTML, like Gecko) Chrome/87.0.4280.141 Safari/537.36 OPR/73.0.3856.344","v1","","","","","","","","-80,-70,-60,-50,-40","media/audio/stims/spherical_300cm_s20_c20_cd-full_matched_a-70.wav","spherical","20","20","full","matched","-70","-80","1490"
"echo-presentation","86","508184","0.0-86.0","5f76198ba661c70678e69b98","5fef55e628823a0076ec12ee","601f44777d1dc9494ba3aa8d","Mozilla/5.0 (Windows NT 10.0; Win64; x64) AppleWebKit/537.36 (KHTML, like Gecko) Chrome/87.0.4280.141 Safari/537.36 OPR/73.0.3856.344","v1","","","","","","","","-80,-70,-60,-50,-40","media/audio/stims/spherical_300cm_s20_c20_cd-full_matched_a-50.wav","spherical","20","20","full","matched","-50","-80","1340"
"echo-presentation","87","511306","0.0-87.0","5f76198ba661c70678e69b98","5fef55e628823a0076ec12ee","601f44777d1dc9494ba3aa8d","Mozilla/5.0 (Windows NT 10.0; Win64; x64) AppleWebKit/537.36 (KHTML, like Gecko) Chrome/87.0.4280.141 Safari/537.36 OPR/73.0.3856.344","v1","","","","","","","","-80,-70,-60,-50,-40","media/audio/stims/spherical_300cm_s20_c20_cd-full_matched_a-70.wav","spherical","20","20","full","matched","-70","-60","1890"
"echo-presentation","88","514064","0.0-88.0","5f76198ba661c70678e69b98","5fef55e628823a0076ec12ee","601f44777d1dc9494ba3aa8d","Mozilla/5.0 (Windows NT 10.0; Win64; x64) AppleWebKit/537.36 (KHTML, like Gecko) Chrome/87.0.4280.141 Safari/537.36 OPR/73.0.3856.344","v1","","","","","","","","-80,-70,-60,-50,-40","media/audio/stims/spherical_300cm_s20_c20_cd-full_matched_a-60.wav","spherical","20","20","full","matched","-60","-70","1803"
"echo-presentation","89","516349","0.0-89.0","5f76198ba661c70678e69b98","5fef55e628823a0076ec12ee","601f44777d1dc9494ba3aa8d","Mozilla/5.0 (Windows NT 10.0; Win64; x64) AppleWebKit/537.36 (KHTML, like Gecko) Chrome/87.0.4280.141 Safari/537.36 OPR/73.0.3856.344","v1","","","","","","","","-80,-70,-60,-50,-40","media/audio/stims/spherical_300cm_s20_c20_cd-full_matched_a-70.wav","spherical","20","20","full","matched","-70","-70","1333"
"echo-presentation","90","518455","0.0-90.0","5f76198ba661c70678e69b98","5fef55e628823a0076ec12ee","601f44777d1dc9494ba3aa8d","Mozilla/5.0 (Windows NT 10.0; Win64; x64) AppleWebKit/537.36 (KHTML, like Gecko) Chrome/87.0.4280.141 Safari/537.36 OPR/73.0.3856.344","v1","","","","","","","","-80,-70,-60,-50,-40","media/audio/stims/spherical_300cm_s20_c20_cd-full_matched_a-60.wav","spherical","20","20","full","matched","-60","-70","1222"
"echo-presentation","91","520698","0.0-91.0","5f76198ba661c70678e69b98","5fef55e628823a0076ec12ee","601f44777d1dc9494ba3aa8d","Mozilla/5.0 (Windows NT 10.0; Win64; x64) AppleWebKit/537.36 (KHTML, like Gecko) Chrome/87.0.4280.141 Safari/537.36 OPR/73.0.3856.344","v1","","","","","","","","-80,-70,-60,-50,-40","media/audio/stims/spherical_300cm_s20_c20_cd-full_matched_a-40.wav","spherical","20","20","full","matched","-40","-80","1239"
"echo-presentation","92","522824","0.0-92.0","5f76198ba661c70678e69b98","5fef55e628823a0076ec12ee","601f44777d1dc9494ba3aa8d","Mozilla/5.0 (Windows NT 10.0; Win64; x64) AppleWebKit/537.36 (KHTML, like Gecko) Chrome/87.0.4280.141 Safari/537.36 OPR/73.0.3856.344","v1","","","","","","","","-80,-70,-60,-50,-40","media/audio/stims/spherical_300cm_s20_c20_cd-full_matched_a-80.wav","spherical","20","20","full","matched","-80","-80","1106"
"echo-presentation","93","525603","0.0-93.0","5f76198ba661c70678e69b98","5fef55e628823a0076ec12ee","601f44777d1dc9494ba3aa8d","Mozilla/5.0 (Windows NT 10.0; Win64; x64) AppleWebKit/537.36 (KHTML, like Gecko) Chrome/87.0.4280.141 Safari/537.36 OPR/73.0.3856.344","v1","","","","","","","","-80,-70,-60,-50,-40","media/audio/stims/spherical_300cm_s20_c20_cd-full_matched_a-60.wav","spherical","20","20","full","matched","-60","-70","1653"
"block-bookend","94","533202","0.0-94.0","5f76198ba661c70678e69b98","5fef55e628823a0076ec12ee","601f44777d1dc9494ba3aa8d","Mozilla/5.0 (Windows NT 10.0; Win64; x64) AppleWebKit/537.36 (KHTML, like Gecko) Chrome/87.0.4280.141 Safari/537.36 OPR/73.0.3856.344","v1","","","","","","","","","","","","","","","","",""
"block-bookend","95","538847","0.0-95.0","5f76198ba661c70678e69b98","5fef55e628823a0076ec12ee","601f44777d1dc9494ba3aa8d","Mozilla/5.0 (Windows NT 10.0; Win64; x64) AppleWebKit/537.36 (KHTML, like Gecko) Chrome/87.0.4280.141 Safari/537.36 OPR/73.0.3856.344","v1","","","","","","","","","","","","","","","","",""
"echo-presentation","96","542925","0.0-96.0","5f76198ba661c70678e69b98","5fef55e628823a0076ec12ee","601f44777d1dc9494ba3aa8d","Mozilla/5.0 (Windows NT 10.0; Win64; x64) AppleWebKit/537.36 (KHTML, like Gecko) Chrome/87.0.4280.141 Safari/537.36 OPR/73.0.3856.344","v1","","","","","","","","-20,-10,0,10,20","media/audio/stims/spherical_300cm_s20_c20_cd-full_matched_a-10.wav","spherical","20","20","full","matched","-10","-10","2620"
"echo-presentation","97","546973","0.0-97.0","5f76198ba661c70678e69b98","5fef55e628823a0076ec12ee","601f44777d1dc9494ba3aa8d","Mozilla/5.0 (Windows NT 10.0; Win64; x64) AppleWebKit/537.36 (KHTML, like Gecko) Chrome/87.0.4280.141 Safari/537.36 OPR/73.0.3856.344","v1","","","","","","","","-20,-10,0,10,20","media/audio/stims/spherical_300cm_s20_c20_cd-full_matched_a10.wav","spherical","20","20","full","matched","10","0","2200"
"echo-presentation","98","550204","0.0-98.0","5f76198ba661c70678e69b98","5fef55e628823a0076ec12ee","601f44777d1dc9494ba3aa8d","Mozilla/5.0 (Windows NT 10.0; Win64; x64) AppleWebKit/537.36 (KHTML, like Gecko) Chrome/87.0.4280.141 Safari/537.36 OPR/73.0.3856.344","v1","","","","","","","","-20,-10,0,10,20","media/audio/stims/spherical_300cm_s20_c20_cd-full_matched_a0.wav","spherical","20","20","full","matched","0","10","1654"
"echo-presentation","99","552893","0.0-99.0","5f76198ba661c70678e69b98","5fef55e628823a0076ec12ee","601f44777d1dc9494ba3aa8d","Mozilla/5.0 (Windows NT 10.0; Win64; x64) AppleWebKit/537.36 (KHTML, like Gecko) Chrome/87.0.4280.141 Safari/537.36 OPR/73.0.3856.344","v1","","","","","","","","-20,-10,0,10,20","media/audio/stims/spherical_300cm_s20_c20_cd-full_matched_a20.wav","spherical","20","20","full","matched","20","-10","1583"
"echo-presentation","100","555850","0.0-100.0","5f76198ba661c70678e69b98","5fef55e628823a0076ec12ee","601f44777d1dc9494ba3aa8d","Mozilla/5.0 (Windows NT 10.0; Win64; x64) AppleWebKit/537.36 (KHTML, like Gecko) Chrome/87.0.4280.141 Safari/537.36 OPR/73.0.3856.344","v1","","","","","","","","-20,-10,0,10,20","media/audio/stims/spherical_300cm_s20_c20_cd-full_matched_a10.wav","spherical","20","20","full","matched","10","0","1692"
"echo-presentation","101","558507","0.0-101.0","5f76198ba661c70678e69b98","5fef55e628823a0076ec12ee","601f44777d1dc9494ba3aa8d","Mozilla/5.0 (Windows NT 10.0; Win64; x64) AppleWebKit/537.36 (KHTML, like Gecko) Chrome/87.0.4280.141 Safari/537.36 OPR/73.0.3856.344","v1","","","","","","","","-20,-10,0,10,20","media/audio/stims/spherical_300cm_s20_c20_cd-full_matched_a-20.wav","spherical","20","20","full","matched","-20","10","1548"
"echo-presentation","102","561095","0.0-102.0","5f76198ba661c70678e69b98","5fef55e628823a0076ec12ee","601f44777d1dc9494ba3aa8d","Mozilla/5.0 (Windows NT 10.0; Win64; x64) AppleWebKit/537.36 (KHTML, like Gecko) Chrome/87.0.4280.141 Safari/537.36 OPR/73.0.3856.344","v1","","","","","","","","-20,-10,0,10,20","media/audio/stims/spherical_300cm_s20_c20_cd-full_matched_a10.wav","spherical","20","20","full","matched","10","-10","1445"
"echo-presentation","103","563953","0.0-103.0","5f76198ba661c70678e69b98","5fef55e628823a0076ec12ee","601f44777d1dc9494ba3aa8d","Mozilla/5.0 (Windows NT 10.0; Win64; x64) AppleWebKit/537.36 (KHTML, like Gecko) Chrome/87.0.4280.141 Safari/537.36 OPR/73.0.3856.344","v1","","","","","","","","-20,-10,0,10,20","media/audio/stims/spherical_300cm_s20_c20_cd-full_matched_a-10.wav","spherical","20","20","full","matched","-10","0","1686"
"echo-presentation","104","566397","0.0-104.0","5f76198ba661c70678e69b98","5fef55e628823a0076ec12ee","601f44777d1dc9494ba3aa8d","Mozilla/5.0 (Windows NT 10.0; Win64; x64) AppleWebKit/537.36 (KHTML, like Gecko) Chrome/87.0.4280.141 Safari/537.36 OPR/73.0.3856.344","v1","","","","","","","","-20,-10,0,10,20","media/audio/stims/spherical_300cm_s20_c20_cd-full_matched_a0.wav","spherical","20","20","full","matched","0","-10","1332"
"echo-presentation","105","569296","0.0-105.0","5f76198ba661c70678e69b98","5fef55e628823a0076ec12ee","601f44777d1dc9494ba3aa8d","Mozilla/5.0 (Windows NT 10.0; Win64; x64) AppleWebKit/537.36 (KHTML, like Gecko) Chrome/87.0.4280.141 Safari/537.36 OPR/73.0.3856.344","v1","","","","","","","","-20,-10,0,10,20","media/audio/stims/spherical_300cm_s20_c20_cd-full_matched_a-20.wav","spherical","20","20","full","matched","-20","0","1721"
"echo-presentation","106","572138","0.0-106.0","5f76198ba661c70678e69b98","5fef55e628823a0076ec12ee","601f44777d1dc9494ba3aa8d","Mozilla/5.0 (Windows NT 10.0; Win64; x64) AppleWebKit/537.36 (KHTML, like Gecko) Chrome/87.0.4280.141 Safari/537.36 OPR/73.0.3856.344","v1","","","","","","","","-20,-10,0,10,20","media/audio/stims/spherical_300cm_s20_c20_cd-full_matched_a0.wav","spherical","20","20","full","matched","0","10","1685"
"echo-presentation","107","574996","0.0-107.0","5f76198ba661c70678e69b98","5fef55e628823a0076ec12ee","601f44777d1dc9494ba3aa8d","Mozilla/5.0 (Windows NT 10.0; Win64; x64) AppleWebKit/537.36 (KHTML, like Gecko) Chrome/87.0.4280.141 Safari/537.36 OPR/73.0.3856.344","v1","","","","","","","","-20,-10,0,10,20","media/audio/stims/spherical_300cm_s20_c20_cd-full_matched_a20.wav","spherical","20","20","full","matched","20","0","1727"
"echo-presentation","108","577564","0.0-108.0","5f76198ba661c70678e69b98","5fef55e628823a0076ec12ee","601f44777d1dc9494ba3aa8d","Mozilla/5.0 (Windows NT 10.0; Win64; x64) AppleWebKit/537.36 (KHTML, like Gecko) Chrome/87.0.4280.141 Safari/537.36 OPR/73.0.3856.344","v1","","","","","","","","-20,-10,0,10,20","media/audio/stims/spherical_300cm_s20_c20_cd-full_matched_a-10.wav","spherical","20","20","full","matched","-10","10","1533"
"echo-presentation","109","580330","0.0-109.0","5f76198ba661c70678e69b98","5fef55e628823a0076ec12ee","601f44777d1dc9494ba3aa8d","Mozilla/5.0 (Windows NT 10.0; Win64; x64) AppleWebKit/537.36 (KHTML, like Gecko) Chrome/87.0.4280.141 Safari/537.36 OPR/73.0.3856.344","v1","","","","","","","","-20,-10,0,10,20","media/audio/stims/spherical_300cm_s20_c20_cd-full_matched_a20.wav","spherical","20","20","full","matched","20","0","1852"
"echo-presentation","110","582623","0.0-110.0","5f76198ba661c70678e69b98","5fef55e628823a0076ec12ee","601f44777d1dc9494ba3aa8d","Mozilla/5.0 (Windows NT 10.0; Win64; x64) AppleWebKit/537.36 (KHTML, like Gecko) Chrome/87.0.4280.141 Safari/537.36 OPR/73.0.3856.344","v1","","","","","","","","-20,-10,0,10,20","media/audio/stims/spherical_300cm_s20_c20_cd-full_matched_a-20.wav","spherical","20","20","full","matched","-20","-10","1283"
"echo-presentation","111","585388","0.0-111.0","5f76198ba661c70678e69b98","5fef55e628823a0076ec12ee","601f44777d1dc9494ba3aa8d","Mozilla/5.0 (Windows NT 10.0; Win64; x64) AppleWebKit/537.36 (KHTML, like Gecko) Chrome/87.0.4280.141 Safari/537.36 OPR/73.0.3856.344","v1","","","","","","","","-20,-10,0,10,20","media/audio/stims/spherical_300cm_s20_c20_cd-full_matched_a-10.wav","spherical","20","20","full","matched","-10","0","1680"
"echo-presentation","112","588379","0.0-112.0","5f76198ba661c70678e69b98","5fef55e628823a0076ec12ee","601f44777d1dc9494ba3aa8d","Mozilla/5.0 (Windows NT 10.0; Win64; x64) AppleWebKit/537.36 (KHTML, like Gecko) Chrome/87.0.4280.141 Safari/537.36 OPR/73.0.3856.344","v1","","","","","","","","-20,-10,0,10,20","media/audio/stims/spherical_300cm_s20_c20_cd-full_matched_a-20.wav","spherical","20","20","full","matched","-20","10","1942"
"echo-presentation","113","591418","0.0-113.0","5f76198ba661c70678e69b98","5fef55e628823a0076ec12ee","601f44777d1dc9494ba3aa8d","Mozilla/5.0 (Windows NT 10.0; Win64; x64) AppleWebKit/537.36 (KHTML, like Gecko) Chrome/87.0.4280.141 Safari/537.36 OPR/73.0.3856.344","v1","","","","","","","","-20,-10,0,10,20","media/audio/stims/spherical_300cm_s20_c20_cd-full_matched_a0.wav","spherical","20","20","full","matched","0","0","1722"
"echo-presentation","114","594250","0.0-114.0","5f76198ba661c70678e69b98","5fef55e628823a0076ec12ee","601f44777d1dc9494ba3aa8d","Mozilla/5.0 (Windows NT 10.0; Win64; x64) AppleWebKit/537.36 (KHTML, like Gecko) Chrome/87.0.4280.141 Safari/537.36 OPR/73.0.3856.344","v1","","","","","","","","-20,-10,0,10,20","media/audio/stims/spherical_300cm_s20_c20_cd-full_matched_a10.wav","spherical","20","20","full","matched","10","-10","1509"
"echo-presentation","115","597095","0.0-115.0","5f76198ba661c70678e69b98","5fef55e628823a0076ec12ee","601f44777d1dc9494ba3aa8d","Mozilla/5.0 (Windows NT 10.0; Win64; x64) AppleWebKit/537.36 (KHTML, like Gecko) Chrome/87.0.4280.141 Safari/537.36 OPR/73.0.3856.344","v1","","","","","","","","-20,-10,0,10,20","media/audio/stims/spherical_300cm_s20_c20_cd-full_matched_a20.wav","spherical","20","20","full","matched","20","0","1722"
"block-bookend","116","608649","0.0-116.0","5f76198ba661c70678e69b98","5fef55e628823a0076ec12ee","601f44777d1dc9494ba3aa8d","Mozilla/5.0 (Windows NT 10.0; Win64; x64) AppleWebKit/537.36 (KHTML, like Gecko) Chrome/87.0.4280.141 Safari/537.36 OPR/73.0.3856.344","v1","","","","","","","","","","","","","","","","",""
"block-bookend","117","613702","0.0-117.0","5f76198ba661c70678e69b98","5fef55e628823a0076ec12ee","601f44777d1dc9494ba3aa8d","Mozilla/5.0 (Windows NT 10.0; Win64; x64) AppleWebKit/537.36 (KHTML, like Gecko) Chrome/87.0.4280.141 Safari/537.36 OPR/73.0.3856.344","v1","","","","","","","","","","","","","","","","",""
"echo-presentation","118","616415","0.0-118.0","5f76198ba661c70678e69b98","5fef55e628823a0076ec12ee","601f44777d1dc9494ba3aa8d","Mozilla/5.0 (Windows NT 10.0; Win64; x64) AppleWebKit/537.36 (KHTML, like Gecko) Chrome/87.0.4280.141 Safari/537.36 OPR/73.0.3856.344","v1","","","","","","","","-20,-10,0,10,20","media/audio/stims/spherical_300cm_s20_c20_cd-full_matched_a-10.wav","spherical","20","20","full","matched","-10","-10","1199"
"echo-presentation","119","619232","0.0-119.0","5f76198ba661c70678e69b98","5fef55e628823a0076ec12ee","601f44777d1dc9494ba3aa8d","Mozilla/5.0 (Windows NT 10.0; Win64; x64) AppleWebKit/537.36 (KHTML, like Gecko) Chrome/87.0.4280.141 Safari/537.36 OPR/73.0.3856.344","v1","","","","","","","","-20,-10,0,10,20","media/audio/stims/spherical_300cm_s20_c20_cd-full_matched_a10.wav","spherical","20","20","full","matched","10","0","1607"
"echo-presentation","120","621612","0.0-120.0","5f76198ba661c70678e69b98","5fef55e628823a0076ec12ee","601f44777d1dc9494ba3aa8d","Mozilla/5.0 (Windows NT 10.0; Win64; x64) AppleWebKit/537.36 (KHTML, like Gecko) Chrome/87.0.4280.141 Safari/537.36 OPR/73.0.3856.344","v1","","","","","","","","-20,-10,0,10,20","media/audio/stims/spherical_300cm_s20_c20_cd-full_matched_a0.wav","spherical","20","20","full","matched","0","10","1551"
"echo-presentation","121","623845","0.0-121.0","5f76198ba661c70678e69b98","5fef55e628823a0076ec12ee","601f44777d1dc9494ba3aa8d","Mozilla/5.0 (Windows NT 10.0; Win64; x64) AppleWebKit/537.36 (KHTML, like Gecko) Chrome/87.0.4280.141 Safari/537.36 OPR/73.0.3856.344","v1","","","","","","","","-20,-10,0,10,20","media/audio/stims/spherical_300cm_s20_c20_cd-full_matched_a20.wav","spherical","20","20","full","matched","20","0","1351"
"echo-presentation","122","626175","0.0-122.0","5f76198ba661c70678e69b98","5fef55e628823a0076ec12ee","601f44777d1dc9494ba3aa8d","Mozilla/5.0 (Windows NT 10.0; Win64; x64) AppleWebKit/537.36 (KHTML, like Gecko) Chrome/87.0.4280.141 Safari/537.36 OPR/73.0.3856.344","v1","","","","","","","","-20,-10,0,10,20","media/audio/stims/spherical_300cm_s20_c20_cd-full_matched_a-20.wav","spherical","20","20","full","matched","-20","0","1508"
"echo-presentation","123","628562","0.0-123.0","5f76198ba661c70678e69b98","5fef55e628823a0076ec12ee","601f44777d1dc9494ba3aa8d","Mozilla/5.0 (Windows NT 10.0; Win64; x64) AppleWebKit/537.36 (KHTML, like Gecko) Chrome/87.0.4280.141 Safari/537.36 OPR/73.0.3856.344","v1","","","","","","","","-20,-10,0,10,20","media/audio/stims/spherical_300cm_s20_c20_cd-full_matched_a-10.wav","spherical","20","20","full","matched","-10","-10","1452"
"echo-presentation","124","630972","0.0-124.0","5f76198ba661c70678e69b98","5fef55e628823a0076ec12ee","601f44777d1dc9494ba3aa8d","Mozilla/5.0 (Windows NT 10.0; Win64; x64) AppleWebKit/537.36 (KHTML, like Gecko) Chrome/87.0.4280.141 Safari/537.36 OPR/73.0.3856.344","v1","","","","","","","","-20,-10,0,10,20","media/audio/stims/spherical_300cm_s20_c20_cd-full_matched_a10.wav","spherical","20","20","full","matched","10","0","1480"
"echo-presentation","125","633385","0.0-125.0","5f76198ba661c70678e69b98","5fef55e628823a0076ec12ee","601f44777d1dc9494ba3aa8d","Mozilla/5.0 (Windows NT 10.0; Win64; x64) AppleWebKit/537.36 (KHTML, like Gecko) Chrome/87.0.4280.141 Safari/537.36 OPR/73.0.3856.344","v1","","","","","","","","-20,-10,0,10,20","media/audio/stims/spherical_300cm_s20_c20_cd-full_matched_a-10.wav","spherical","20","20","full","matched","-10","0","1289"
"echo-presentation","126","635592","0.0-126.0","5f76198ba661c70678e69b98","5fef55e628823a0076ec12ee","601f44777d1dc9494ba3aa8d","Mozilla/5.0 (Windows NT 10.0; Win64; x64) AppleWebKit/537.36 (KHTML, like Gecko) Chrome/87.0.4280.141 Safari/537.36 OPR/73.0.3856.344","v1","","","","","","","","-20,-10,0,10,20","media/audio/stims/spherical_300cm_s20_c20_cd-full_matched_a0.wav","spherical","20","20","full","matched","0","10","1220"
"echo-presentation","127","638042","0.0-127.0","5f76198ba661c70678e69b98","5fef55e628823a0076ec12ee","601f44777d1dc9494ba3aa8d","Mozilla/5.0 (Windows NT 10.0; Win64; x64) AppleWebKit/537.36 (KHTML, like Gecko) Chrome/87.0.4280.141 Safari/537.36 OPR/73.0.3856.344","v1","","","","","","","","-20,-10,0,10,20","media/audio/stims/spherical_300cm_s20_c20_cd-full_matched_a20.wav","spherical","20","20","full","matched","20","-10","1508"
"echo-presentation","128","640097","0.0-128.0","5f76198ba661c70678e69b98","5fef55e628823a0076ec12ee","601f44777d1dc9494ba3aa8d","Mozilla/5.0 (Windows NT 10.0; Win64; x64) AppleWebKit/537.36 (KHTML, like Gecko) Chrome/87.0.4280.141 Safari/537.36 OPR/73.0.3856.344","v1","","","","","","","","-20,-10,0,10,20","media/audio/stims/spherical_300cm_s20_c20_cd-full_matched_a10.wav","spherical","20","20","full","matched","10","0","1041"
"echo-presentation","129","642628","0.0-129.0","5f76198ba661c70678e69b98","5fef55e628823a0076ec12ee","601f44777d1dc9494ba3aa8d","Mozilla/5.0 (Windows NT 10.0; Win64; x64) AppleWebKit/537.36 (KHTML, like Gecko) Chrome/87.0.4280.141 Safari/537.36 OPR/73.0.3856.344","v1","","","","","","","","-20,-10,0,10,20","media/audio/stims/spherical_300cm_s20_c20_cd-full_matched_a-20.wav","spherical","20","20","full","matched","-20","0","1469"
"echo-presentation","130","645143","0.0-130.0","5f76198ba661c70678e69b98","5fef55e628823a0076ec12ee","601f44777d1dc9494ba3aa8d","Mozilla/5.0 (Windows NT 10.0; Win64; x64) AppleWebKit/537.36 (KHTML, like Gecko) Chrome/87.0.4280.141 Safari/537.36 OPR/73.0.3856.344","v1","","","","","","","","-20,-10,0,10,20","media/audio/stims/spherical_300cm_s20_c20_cd-full_matched_a-20.wav","spherical","20","20","full","matched","-20","10","1311"
"echo-presentation","131","647484","0.0-131.0","5f76198ba661c70678e69b98","5fef55e628823a0076ec12ee","601f44777d1dc9494ba3aa8d","Mozilla/5.0 (Windows NT 10.0; Win64; x64) AppleWebKit/537.36 (KHTML, like Gecko) Chrome/87.0.4280.141 Safari/537.36 OPR/73.0.3856.344","v1","","","","","","","","-20,-10,0,10,20","media/audio/stims/spherical_300cm_s20_c20_cd-full_matched_a10.wav","spherical","20","20","full","matched","10","0","1248"
"echo-presentation","132","649700","0.0-132.0","5f76198ba661c70678e69b98","5fef55e628823a0076ec12ee","601f44777d1dc9494ba3aa8d","Mozilla/5.0 (Windows NT 10.0; Win64; x64) AppleWebKit/537.36 (KHTML, like Gecko) Chrome/87.0.4280.141 Safari/537.36 OPR/73.0.3856.344","v1","","","","","","","","-20,-10,0,10,20","media/audio/stims/spherical_300cm_s20_c20_cd-full_matched_a20.wav","spherical","20","20","full","matched","20","-10","1142"
"echo-presentation","133","652355","0.0-133.0","5f76198ba661c70678e69b98","5fef55e628823a0076ec12ee","601f44777d1dc9494ba3aa8d","Mozilla/5.0 (Windows NT 10.0; Win64; x64) AppleWebKit/537.36 (KHTML, like Gecko) Chrome/87.0.4280.141 Safari/537.36 OPR/73.0.3856.344","v1","","","","","","","","-20,-10,0,10,20","media/audio/stims/spherical_300cm_s20_c20_cd-full_matched_a-20.wav","spherical","20","20","full","matched","-20","-10","1602"
"echo-presentation","134","654869","0.0-134.0","5f76198ba661c70678e69b98","5fef55e628823a0076ec12ee","601f44777d1dc9494ba3aa8d","Mozilla/5.0 (Windows NT 10.0; Win64; x64) AppleWebKit/537.36 (KHTML, like Gecko) Chrome/87.0.4280.141 Safari/537.36 OPR/73.0.3856.344","v1","","","","","","","","-20,-10,0,10,20","media/audio/stims/spherical_300cm_s20_c20_cd-full_matched_a0.wav","spherical","20","20","full","matched","0","0","1413"
"echo-presentation","135","657035","0.0-135.0","5f76198ba661c70678e69b98","5fef55e628823a0076ec12ee","601f44777d1dc9494ba3aa8d","Mozilla/5.0 (Windows NT 10.0; Win64; x64) AppleWebKit/537.36 (KHTML, like Gecko) Chrome/87.0.4280.141 Safari/537.36 OPR/73.0.3856.344","v1","","","","","","","","-20,-10,0,10,20","media/audio/stims/spherical_300cm_s20_c20_cd-full_matched_a0.wav","spherical","20","20","full","matched","0","0","1147"
"echo-presentation","136","659712","0.0-136.0","5f76198ba661c70678e69b98","5fef55e628823a0076ec12ee","601f44777d1dc9494ba3aa8d","Mozilla/5.0 (Windows NT 10.0; Win64; x64) AppleWebKit/537.36 (KHTML, like Gecko) Chrome/87.0.4280.141 Safari/537.36 OPR/73.0.3856.344","v1","","","","","","","","-20,-10,0,10,20","media/audio/stims/spherical_300cm_s20_c20_cd-full_matched_a-10.wav","spherical","20","20","full","matched","-10","10","1596"
"echo-presentation","137","662096","0.0-137.0","5f76198ba661c70678e69b98","5fef55e628823a0076ec12ee","601f44777d1dc9494ba3aa8d","Mozilla/5.0 (Windows NT 10.0; Win64; x64) AppleWebKit/537.36 (KHTML, like Gecko) Chrome/87.0.4280.141 Safari/537.36 OPR/73.0.3856.344","v1","","","","","","","","-20,-10,0,10,20","media/audio/stims/spherical_300cm_s20_c20_cd-full_matched_a20.wav","spherical","20","20","full","matched","20","0","1297"
"block-bookend","138","665243","0.0-138.0","5f76198ba661c70678e69b98","5fef55e628823a0076ec12ee","601f44777d1dc9494ba3aa8d","Mozilla/5.0 (Windows NT 10.0; Win64; x64) AppleWebKit/537.36 (KHTML, like Gecko) Chrome/87.0.4280.141 Safari/537.36 OPR/73.0.3856.344","v1","","","","","","","","","","","","","","","","",""
