"trial_type","trial_index","time_elapsed","internal_node_id","prolificPid","studyId","sessionId","userAgent","version","rt","stimulus","key_press","chosenKeyset","failureCount","testIndex","globalVolume","choices","filename","modelName","slowdown","compensation","compensationDescriptor","receiverOrientationType","azimuth","responseAzimuth","responseDelay"
"pavlovia","0","5","0.0-0.0","601ffb441dc6d959b855eea5","60242478c74f84097a222710","602425f07617d1097dd589df","Mozilla/5.0 (Windows NT 10.0; Win64; x64) AppleWebKit/537.36 (KHTML, like Gecko) Chrome/88.0.4324.146 Safari/537.36","v1-up-stims","","","","","","","","","","","","","","","","",""
"html-keyboard-response","1","1747","0.0-1.0","601ffb441dc6d959b855eea5","60242478c74f84097a222710","602425f07617d1097dd589df","Mozilla/5.0 (Windows NT 10.0; Win64; x64) AppleWebKit/537.36 (KHTML, like Gecko) Chrome/88.0.4324.146 Safari/537.36","v1-up-stims","1741.3749999832362","<div><h1>Welcome!</h1><p>Press any key to continue.</p></div>","32","","","","","","","","","","","","","",""
"consent-form","2","90682","0.0-2.0","601ffb441dc6d959b855eea5","60242478c74f84097a222710","602425f07617d1097dd589df","Mozilla/5.0 (Windows NT 10.0; Win64; x64) AppleWebKit/537.36 (KHTML, like Gecko) Chrome/88.0.4324.146 Safari/537.36","v1-up-stims","","","","","","","","","","","","","","","","",""
"keyset-select","3","146319","0.0-3.0","601ffb441dc6d959b855eea5","60242478c74f84097a222710","602425f07617d1097dd589df","Mozilla/5.0 (Windows NT 10.0; Win64; x64) AppleWebKit/537.36 (KHTML, like Gecko) Chrome/88.0.4324.146 Safari/537.36","v1-up-stims","","","","right-hand","","","","","","","","","","","","",""
"headphone-check","4","208847","0.0-4.0","601ffb441dc6d959b855eea5","60242478c74f84097a222710","602425f07617d1097dd589df","Mozilla/5.0 (Windows NT 10.0; Win64; x64) AppleWebKit/537.36 (KHTML, like Gecko) Chrome/88.0.4324.146 Safari/537.36","v1-up-stims","","","","","0","6","0.3","","","","","","","","","",""
"headphone-backwards-check","5","269226","0.0-5.0","601ffb441dc6d959b855eea5","60242478c74f84097a222710","602425f07617d1097dd589df","Mozilla/5.0 (Windows NT 10.0; Win64; x64) AppleWebKit/537.36 (KHTML, like Gecko) Chrome/88.0.4324.146 Safari/537.36","v1-up-stims","","","","","4","","","","","","","","","","","",""
"training","6","349196","0.0-6.0","601ffb441dc6d959b855eea5","60242478c74f84097a222710","602425f07617d1097dd589df","Mozilla/5.0 (Windows NT 10.0; Win64; x64) AppleWebKit/537.36 (KHTML, like Gecko) Chrome/88.0.4324.146 Safari/537.36","v1-up-stims","","","","","","","","","","","","","","","","",""
"block-bookend","7","362341","0.0-7.0","601ffb441dc6d959b855eea5","60242478c74f84097a222710","602425f07617d1097dd589df","Mozilla/5.0 (Windows NT 10.0; Win64; x64) AppleWebKit/537.36 (KHTML, like Gecko) Chrome/88.0.4324.146 Safari/537.36","v1-up-stims","","","","","","","","","","","","","","","","",""
"echo-presentation","8","374525","0.0-8.0","601ffb441dc6d959b855eea5","60242478c74f84097a222710","602425f07617d1097dd589df","Mozilla/5.0 (Windows NT 10.0; Win64; x64) AppleWebKit/537.36 (KHTML, like Gecko) Chrome/88.0.4324.146 Safari/537.36","v1-up-stims","","","","","","","","-20,-10,0,10,20","media/audio/stims/spherical_300cm_s20_c10_cd-half_matched_a-10.wav","spherical","20","10","half","matched","-10","-10","6827"
"echo-presentation","9","380936","0.0-9.0","601ffb441dc6d959b855eea5","60242478c74f84097a222710","602425f07617d1097dd589df","Mozilla/5.0 (Windows NT 10.0; Win64; x64) AppleWebKit/537.36 (KHTML, like Gecko) Chrome/88.0.4324.146 Safari/537.36","v1-up-stims","","","","","","","","-20,-10,0,10,20","media/audio/stims/spherical_300cm_s20_c10_cd-half_matched_a-10.wav","spherical","20","10","half","matched","-10","0","4164"
"echo-presentation","10","386576","0.0-10.0","601ffb441dc6d959b855eea5","60242478c74f84097a222710","602425f07617d1097dd589df","Mozilla/5.0 (Windows NT 10.0; Win64; x64) AppleWebKit/537.36 (KHTML, like Gecko) Chrome/88.0.4324.146 Safari/537.36","v1-up-stims","","","","","","","","-20,-10,0,10,20","media/audio/stims/spherical_300cm_s20_c10_cd-half_matched_a20.wav","spherical","20","10","half","matched","20","10","2208"
"echo-presentation","11","395317","0.0-11.0","601ffb441dc6d959b855eea5","60242478c74f84097a222710","602425f07617d1097dd589df","Mozilla/5.0 (Windows NT 10.0; Win64; x64) AppleWebKit/537.36 (KHTML, like Gecko) Chrome/88.0.4324.146 Safari/537.36","v1-up-stims","","","","","","","","-20,-10,0,10,20","media/audio/stims/spherical_300cm_s20_c10_cd-half_matched_a0.wav","spherical","20","10","half","matched","0","10","6588"
"echo-presentation","12","400407","0.0-12.0","601ffb441dc6d959b855eea5","60242478c74f84097a222710","602425f07617d1097dd589df","Mozilla/5.0 (Windows NT 10.0; Win64; x64) AppleWebKit/537.36 (KHTML, like Gecko) Chrome/88.0.4324.146 Safari/537.36","v1-up-stims","","","","","","","","-20,-10,0,10,20","media/audio/stims/spherical_300cm_s20_c10_cd-half_matched_a0.wav","spherical","20","10","half","matched","0","0","2960"
"echo-presentation","13","406197","0.0-13.0","601ffb441dc6d959b855eea5","60242478c74f84097a222710","602425f07617d1097dd589df","Mozilla/5.0 (Windows NT 10.0; Win64; x64) AppleWebKit/537.36 (KHTML, like Gecko) Chrome/88.0.4324.146 Safari/537.36","v1-up-stims","","","","","","","","-20,-10,0,10,20","media/audio/stims/spherical_300cm_s20_c10_cd-half_matched_a-20.wav","spherical","20","10","half","matched","-20","-10","4052"
"echo-presentation","14","413327","0.0-14.0","601ffb441dc6d959b855eea5","60242478c74f84097a222710","602425f07617d1097dd589df","Mozilla/5.0 (Windows NT 10.0; Win64; x64) AppleWebKit/537.36 (KHTML, like Gecko) Chrome/88.0.4324.146 Safari/537.36","v1-up-stims","","","","","","","","-20,-10,0,10,20","media/audio/stims/spherical_300cm_s20_c10_cd-half_matched_a-20.wav","spherical","20","10","half","matched","-20","0","4052"
"echo-presentation","15","420237","0.0-15.0","601ffb441dc6d959b855eea5","60242478c74f84097a222710","602425f07617d1097dd589df","Mozilla/5.0 (Windows NT 10.0; Win64; x64) AppleWebKit/537.36 (KHTML, like Gecko) Chrome/88.0.4324.146 Safari/537.36","v1-up-stims","","","","","","","","-20,-10,0,10,20","media/audio/stims/spherical_300cm_s20_c10_cd-half_matched_a0.wav","spherical","20","10","half","matched","0","-10","5041"
"echo-presentation","16","424274","0.0-16.0","601ffb441dc6d959b855eea5","60242478c74f84097a222710","602425f07617d1097dd589df","Mozilla/5.0 (Windows NT 10.0; Win64; x64) AppleWebKit/537.36 (KHTML, like Gecko) Chrome/88.0.4324.146 Safari/537.36","v1-up-stims","","","","","","","","-20,-10,0,10,20","media/audio/stims/spherical_300cm_s20_c10_cd-half_matched_a10.wav","spherical","20","10","half","matched","10","10","3032"
"echo-presentation","17","433885","0.0-17.0","601ffb441dc6d959b855eea5","60242478c74f84097a222710","602425f07617d1097dd589df","Mozilla/5.0 (Windows NT 10.0; Win64; x64) AppleWebKit/537.36 (KHTML, like Gecko) Chrome/88.0.4324.146 Safari/537.36","v1-up-stims","","","","","","","","-20,-10,0,10,20","media/audio/stims/spherical_300cm_s20_c10_cd-half_matched_a10.wav","spherical","20","10","half","matched","10","20","8265"
"echo-presentation","18","439016","0.0-18.0","601ffb441dc6d959b855eea5","60242478c74f84097a222710","602425f07617d1097dd589df","Mozilla/5.0 (Windows NT 10.0; Win64; x64) AppleWebKit/537.36 (KHTML, like Gecko) Chrome/88.0.4324.146 Safari/537.36","v1-up-stims","","","","","","","","-20,-10,0,10,20","media/audio/stims/spherical_300cm_s20_c10_cd-half_matched_a10.wav","spherical","20","10","half","matched","10","10","3026"
"echo-presentation","19","442135","0.0-19.0","601ffb441dc6d959b855eea5","60242478c74f84097a222710","602425f07617d1097dd589df","Mozilla/5.0 (Windows NT 10.0; Win64; x64) AppleWebKit/537.36 (KHTML, like Gecko) Chrome/88.0.4324.146 Safari/537.36","v1-up-stims","","","","","","","","-20,-10,0,10,20","media/audio/stims/spherical_300cm_s20_c10_cd-half_matched_a20.wav","spherical","20","10","half","matched","20","10","1811"
"echo-presentation","20","445805","0.0-20.0","601ffb441dc6d959b855eea5","60242478c74f84097a222710","602425f07617d1097dd589df","Mozilla/5.0 (Windows NT 10.0; Win64; x64) AppleWebKit/537.36 (KHTML, like Gecko) Chrome/88.0.4324.146 Safari/537.36","v1-up-stims","","","","","","","","-20,-10,0,10,20","media/audio/stims/spherical_300cm_s20_c10_cd-half_matched_a-10.wav","spherical","20","10","half","matched","-10","-10","2571"
"echo-presentation","21","449954","0.0-21.0","601ffb441dc6d959b855eea5","60242478c74f84097a222710","602425f07617d1097dd589df","Mozilla/5.0 (Windows NT 10.0; Win64; x64) AppleWebKit/537.36 (KHTML, like Gecko) Chrome/88.0.4324.146 Safari/537.36","v1-up-stims","","","","","","","","-20,-10,0,10,20","media/audio/stims/spherical_300cm_s20_c10_cd-half_matched_a-20.wav","spherical","20","10","half","matched","-20","-10","2398"
"echo-presentation","22","454245","0.0-22.0","601ffb441dc6d959b855eea5","60242478c74f84097a222710","602425f07617d1097dd589df","Mozilla/5.0 (Windows NT 10.0; Win64; x64) AppleWebKit/537.36 (KHTML, like Gecko) Chrome/88.0.4324.146 Safari/537.36","v1-up-stims","","","","","","","","-20,-10,0,10,20","media/audio/stims/spherical_300cm_s20_c10_cd-half_matched_a0.wav","spherical","20","10","half","matched","0","-10","3048"
"echo-presentation","23","459335","0.0-23.0","601ffb441dc6d959b855eea5","60242478c74f84097a222710","602425f07617d1097dd589df","Mozilla/5.0 (Windows NT 10.0; Win64; x64) AppleWebKit/537.36 (KHTML, like Gecko) Chrome/88.0.4324.146 Safari/537.36","v1-up-stims","","","","","","","","-20,-10,0,10,20","media/audio/stims/spherical_300cm_s20_c10_cd-half_matched_a-20.wav","spherical","20","10","half","matched","-20","10","4040"
"echo-presentation","24","463671","0.0-24.0","601ffb441dc6d959b855eea5","60242478c74f84097a222710","602425f07617d1097dd589df","Mozilla/5.0 (Windows NT 10.0; Win64; x64) AppleWebKit/537.36 (KHTML, like Gecko) Chrome/88.0.4324.146 Safari/537.36","v1-up-stims","","","","","","","","-20,-10,0,10,20","media/audio/stims/spherical_300cm_s20_c10_cd-half_matched_a-10.wav","spherical","20","10","half","matched","-10","-10","2761"
"echo-presentation","25","467016","0.0-25.0","601ffb441dc6d959b855eea5","60242478c74f84097a222710","602425f07617d1097dd589df","Mozilla/5.0 (Windows NT 10.0; Win64; x64) AppleWebKit/537.36 (KHTML, like Gecko) Chrome/88.0.4324.146 Safari/537.36","v1-up-stims","","","","","","","","-20,-10,0,10,20","media/audio/stims/spherical_300cm_s20_c10_cd-half_matched_a20.wav","spherical","20","10","half","matched","20","10","1983"
"echo-presentation","26","473085","0.0-26.0","601ffb441dc6d959b855eea5","60242478c74f84097a222710","602425f07617d1097dd589df","Mozilla/5.0 (Windows NT 10.0; Win64; x64) AppleWebKit/537.36 (KHTML, like Gecko) Chrome/88.0.4324.146 Safari/537.36","v1-up-stims","","","","","","","","-20,-10,0,10,20","media/audio/stims/spherical_300cm_s20_c10_cd-half_matched_a10.wav","spherical","20","10","half","matched","10","0","4528"
"echo-presentation","27","476244","0.0-27.0","601ffb441dc6d959b855eea5","60242478c74f84097a222710","602425f07617d1097dd589df","Mozilla/5.0 (Windows NT 10.0; Win64; x64) AppleWebKit/537.36 (KHTML, like Gecko) Chrome/88.0.4324.146 Safari/537.36","v1-up-stims","","","","","","","","-20,-10,0,10,20","media/audio/stims/spherical_300cm_s20_c10_cd-half_matched_a20.wav","spherical","20","10","half","matched","20","10","1532"
"block-bookend","28","480003","0.0-28.0","601ffb441dc6d959b855eea5","60242478c74f84097a222710","602425f07617d1097dd589df","Mozilla/5.0 (Windows NT 10.0; Win64; x64) AppleWebKit/537.36 (KHTML, like Gecko) Chrome/88.0.4324.146 Safari/537.36","v1-up-stims","","","","","","","","","","","","","","","","",""
"block-bookend","29","489482","0.0-29.0","601ffb441dc6d959b855eea5","60242478c74f84097a222710","602425f07617d1097dd589df","Mozilla/5.0 (Windows NT 10.0; Win64; x64) AppleWebKit/537.36 (KHTML, like Gecko) Chrome/88.0.4324.146 Safari/537.36","v1-up-stims","","","","","","","","","","","","","","","","",""
"echo-presentation","30","499096","0.0-30.0","601ffb441dc6d959b855eea5","60242478c74f84097a222710","602425f07617d1097dd589df","Mozilla/5.0 (Windows NT 10.0; Win64; x64) AppleWebKit/537.36 (KHTML, like Gecko) Chrome/88.0.4324.146 Safari/537.36","v1-up-stims","","","","","","","","-20,-10,0,10,20","media/audio/stims/spherical_300cm_s20_c10_cd-half_matched_a-10.wav","spherical","20","10","half","matched","-10","-10","5732"
"echo-presentation","31","503966","0.0-31.0","601ffb441dc6d959b855eea5","60242478c74f84097a222710","602425f07617d1097dd589df","Mozilla/5.0 (Windows NT 10.0; Win64; x64) AppleWebKit/537.36 (KHTML, like Gecko) Chrome/88.0.4324.146 Safari/537.36","v1-up-stims","","","","","","","","-20,-10,0,10,20","media/audio/stims/spherical_300cm_s20_c10_cd-half_matched_a0.wav","spherical","20","10","half","matched","0","10","2979"
"echo-presentation","32","508661","0.0-32.0","601ffb441dc6d959b855eea5","60242478c74f84097a222710","602425f07617d1097dd589df","Mozilla/5.0 (Windows NT 10.0; Win64; x64) AppleWebKit/537.36 (KHTML, like Gecko) Chrome/88.0.4324.146 Safari/537.36","v1-up-stims","","","","","","","","-20,-10,0,10,20","media/audio/stims/spherical_300cm_s20_c10_cd-half_matched_a-20.wav","spherical","20","10","half","matched","-20","-10","3032"
"echo-presentation","33","511496","0.0-33.0","601ffb441dc6d959b855eea5","60242478c74f84097a222710","602425f07617d1097dd589df","Mozilla/5.0 (Windows NT 10.0; Win64; x64) AppleWebKit/537.36 (KHTML, like Gecko) Chrome/88.0.4324.146 Safari/537.36","v1-up-stims","","","","","","","","-20,-10,0,10,20","media/audio/stims/spherical_300cm_s20_c10_cd-half_matched_a20.wav","spherical","20","10","half","matched","20","10","1360"
"echo-presentation","34","514396","0.0-34.0","601ffb441dc6d959b855eea5","60242478c74f84097a222710","602425f07617d1097dd589df","Mozilla/5.0 (Windows NT 10.0; Win64; x64) AppleWebKit/537.36 (KHTML, like Gecko) Chrome/88.0.4324.146 Safari/537.36","v1-up-stims","","","","","","","","-20,-10,0,10,20","media/audio/stims/spherical_300cm_s20_c10_cd-half_matched_a10.wav","spherical","20","10","half","matched","10","10","1540"
"echo-presentation","35","517827","0.0-35.0","601ffb441dc6d959b855eea5","60242478c74f84097a222710","602425f07617d1097dd589df","Mozilla/5.0 (Windows NT 10.0; Win64; x64) AppleWebKit/537.36 (KHTML, like Gecko) Chrome/88.0.4324.146 Safari/537.36","v1-up-stims","","","","","","","","-20,-10,0,10,20","media/audio/stims/spherical_300cm_s20_c10_cd-half_matched_a-20.wav","spherical","20","10","half","matched","-20","-10","1525"
"echo-presentation","36","522082","0.0-36.0","601ffb441dc6d959b855eea5","60242478c74f84097a222710","602425f07617d1097dd589df","Mozilla/5.0 (Windows NT 10.0; Win64; x64) AppleWebKit/537.36 (KHTML, like Gecko) Chrome/88.0.4324.146 Safari/537.36","v1-up-stims","","","","","","","","-20,-10,0,10,20","media/audio/stims/spherical_300cm_s20_c10_cd-half_matched_a10.wav","spherical","20","10","half","matched","10","20","3004"
"echo-presentation","37","524506","0.0-37.0","601ffb441dc6d959b855eea5","60242478c74f84097a222710","602425f07617d1097dd589df","Mozilla/5.0 (Windows NT 10.0; Win64; x64) AppleWebKit/537.36 (KHTML, like Gecko) Chrome/88.0.4324.146 Safari/537.36","v1-up-stims","","","","","","","","-20,-10,0,10,20","media/audio/stims/spherical_300cm_s20_c10_cd-half_matched_a10.wav","spherical","20","10","half","matched","10","10","1290"
"echo-presentation","38","527434","0.0-38.0","601ffb441dc6d959b855eea5","60242478c74f84097a222710","602425f07617d1097dd589df","Mozilla/5.0 (Windows NT 10.0; Win64; x64) AppleWebKit/537.36 (KHTML, like Gecko) Chrome/88.0.4324.146 Safari/537.36","v1-up-stims","","","","","","","","-20,-10,0,10,20","media/audio/stims/spherical_300cm_s20_c10_cd-half_matched_a-20.wav","spherical","20","10","half","matched","-20","10","1697"
"echo-presentation","39","530235","0.0-39.0","601ffb441dc6d959b855eea5","60242478c74f84097a222710","602425f07617d1097dd589df","Mozilla/5.0 (Windows NT 10.0; Win64; x64) AppleWebKit/537.36 (KHTML, like Gecko) Chrome/88.0.4324.146 Safari/537.36","v1-up-stims","","","","","","","","-20,-10,0,10,20","media/audio/stims/spherical_300cm_s20_c10_cd-half_matched_a-10.wav","spherical","20","10","half","matched","-10","10","1644"
"echo-presentation","40","533356","0.0-40.0","601ffb441dc6d959b855eea5","60242478c74f84097a222710","602425f07617d1097dd589df","Mozilla/5.0 (Windows NT 10.0; Win64; x64) AppleWebKit/537.36 (KHTML, like Gecko) Chrome/88.0.4324.146 Safari/537.36","v1-up-stims","","","","","","","","-20,-10,0,10,20","media/audio/stims/spherical_300cm_s20_c10_cd-half_matched_a-10.wav","spherical","20","10","half","matched","-10","10","2027"
"echo-presentation","41","536266","0.0-41.0","601ffb441dc6d959b855eea5","60242478c74f84097a222710","602425f07617d1097dd589df","Mozilla/5.0 (Windows NT 10.0; Win64; x64) AppleWebKit/537.36 (KHTML, like Gecko) Chrome/88.0.4324.146 Safari/537.36","v1-up-stims","","","","","","","","-20,-10,0,10,20","media/audio/stims/spherical_300cm_s20_c10_cd-half_matched_a10.wav","spherical","20","10","half","matched","10","10","1789"
"echo-presentation","42","539235","0.0-42.0","601ffb441dc6d959b855eea5","60242478c74f84097a222710","602425f07617d1097dd589df","Mozilla/5.0 (Windows NT 10.0; Win64; x64) AppleWebKit/537.36 (KHTML, like Gecko) Chrome/88.0.4324.146 Safari/537.36","v1-up-stims","","","","","","","","-20,-10,0,10,20","media/audio/stims/spherical_300cm_s20_c10_cd-half_matched_a0.wav","spherical","20","10","half","matched","0","10","1827"
"echo-presentation","43","542856","0.0-43.0","601ffb441dc6d959b855eea5","60242478c74f84097a222710","602425f07617d1097dd589df","Mozilla/5.0 (Windows NT 10.0; Win64; x64) AppleWebKit/537.36 (KHTML, like Gecko) Chrome/88.0.4324.146 Safari/537.36","v1-up-stims","","","","","","","","-20,-10,0,10,20","media/audio/stims/spherical_300cm_s20_c10_cd-half_matched_a0.wav","spherical","20","10","half","matched","0","10","2115"
"echo-presentation","44","546363","0.0-44.0","601ffb441dc6d959b855eea5","60242478c74f84097a222710","602425f07617d1097dd589df","Mozilla/5.0 (Windows NT 10.0; Win64; x64) AppleWebKit/537.36 (KHTML, like Gecko) Chrome/88.0.4324.146 Safari/537.36","v1-up-stims","","","","","","","","-20,-10,0,10,20","media/audio/stims/spherical_300cm_s20_c10_cd-half_matched_a20.wav","spherical","20","10","half","matched","20","10","1158"
"echo-presentation","45","548775","0.0-45.0","601ffb441dc6d959b855eea5","60242478c74f84097a222710","602425f07617d1097dd589df","Mozilla/5.0 (Windows NT 10.0; Win64; x64) AppleWebKit/537.36 (KHTML, like Gecko) Chrome/88.0.4324.146 Safari/537.36","v1-up-stims","","","","","","","","-20,-10,0,10,20","media/audio/stims/spherical_300cm_s20_c10_cd-half_matched_a0.wav","spherical","20","10","half","matched","0","0","1276"
"echo-presentation","46","553282","0.0-46.0","601ffb441dc6d959b855eea5","60242478c74f84097a222710","602425f07617d1097dd589df","Mozilla/5.0 (Windows NT 10.0; Win64; x64) AppleWebKit/537.36 (KHTML, like Gecko) Chrome/88.0.4324.146 Safari/537.36","v1-up-stims","","","","","","","","-20,-10,0,10,20","media/audio/stims/spherical_300cm_s20_c10_cd-half_matched_a-10.wav","spherical","20","10","half","matched","-10","0","3229"
"echo-presentation","47","556383","0.0-47.0","601ffb441dc6d959b855eea5","60242478c74f84097a222710","602425f07617d1097dd589df","Mozilla/5.0 (Windows NT 10.0; Win64; x64) AppleWebKit/537.36 (KHTML, like Gecko) Chrome/88.0.4324.146 Safari/537.36","v1-up-stims","","","","","","","","-20,-10,0,10,20","media/audio/stims/spherical_300cm_s20_c10_cd-half_matched_a20.wav","spherical","20","10","half","matched","20","10","1844"
"echo-presentation","48","558762","0.0-48.0","601ffb441dc6d959b855eea5","60242478c74f84097a222710","602425f07617d1097dd589df","Mozilla/5.0 (Windows NT 10.0; Win64; x64) AppleWebKit/537.36 (KHTML, like Gecko) Chrome/88.0.4324.146 Safari/537.36","v1-up-stims","","","","","","","","-20,-10,0,10,20","media/audio/stims/spherical_300cm_s20_c10_cd-half_matched_a-20.wav","spherical","20","10","half","matched","-20","-10","1272"
"echo-presentation","49","561783","0.0-49.0","601ffb441dc6d959b855eea5","60242478c74f84097a222710","602425f07617d1097dd589df","Mozilla/5.0 (Windows NT 10.0; Win64; x64) AppleWebKit/537.36 (KHTML, like Gecko) Chrome/88.0.4324.146 Safari/537.36","v1-up-stims","","","","","","","","-20,-10,0,10,20","media/audio/stims/spherical_300cm_s20_c10_cd-half_matched_a20.wav","spherical","20","10","half","matched","20","10","1943"
"block-bookend","50","564474","0.0-50.0","601ffb441dc6d959b855eea5","60242478c74f84097a222710","602425f07617d1097dd589df","Mozilla/5.0 (Windows NT 10.0; Win64; x64) AppleWebKit/537.36 (KHTML, like Gecko) Chrome/88.0.4324.146 Safari/537.36","v1-up-stims","","","","","","","","","","","","","","","","",""
"block-bookend","51","573010","0.0-51.0","601ffb441dc6d959b855eea5","60242478c74f84097a222710","602425f07617d1097dd589df","Mozilla/5.0 (Windows NT 10.0; Win64; x64) AppleWebKit/537.36 (KHTML, like Gecko) Chrome/88.0.4324.146 Safari/537.36","v1-up-stims","","","","","","","","","","","","","","","","",""
"echo-presentation","52","578083","0.0-52.0","601ffb441dc6d959b855eea5","60242478c74f84097a222710","602425f07617d1097dd589df","Mozilla/5.0 (Windows NT 10.0; Win64; x64) AppleWebKit/537.36 (KHTML, like Gecko) Chrome/88.0.4324.146 Safari/537.36","v1-up-stims","","","","","","","","40,50,60,70,80","media/audio/stims/spherical_300cm_s20_c10_cd-half_matched_a60.wav","spherical","20","10","half","matched","60","70","2486"
"echo-presentation","53","580413","0.0-53.0","601ffb441dc6d959b855eea5","60242478c74f84097a222710","602425f07617d1097dd589df","Mozilla/5.0 (Windows NT 10.0; Win64; x64) AppleWebKit/537.36 (KHTML, like Gecko) Chrome/88.0.4324.146 Safari/537.36","v1-up-stims","","","","","","","","40,50,60,70,80","media/audio/stims/spherical_300cm_s20_c10_cd-half_matched_a50.wav","spherical","20","10","half","matched","50","70","975"
"echo-presentation","54","582593","0.0-54.0","601ffb441dc6d959b855eea5","60242478c74f84097a222710","602425f07617d1097dd589df","Mozilla/5.0 (Windows NT 10.0; Win64; x64) AppleWebKit/537.36 (KHTML, like Gecko) Chrome/88.0.4324.146 Safari/537.36","v1-up-stims","","","","","","","","40,50,60,70,80","media/audio/stims/spherical_300cm_s20_c10_cd-half_matched_a80.wav","spherical","20","10","half","matched","80","70","1089"
"echo-presentation","55","585303","0.0-55.0","601ffb441dc6d959b855eea5","60242478c74f84097a222710","602425f07617d1097dd589df","Mozilla/5.0 (Windows NT 10.0; Win64; x64) AppleWebKit/537.36 (KHTML, like Gecko) Chrome/88.0.4324.146 Safari/537.36","v1-up-stims","","","","","","","","40,50,60,70,80","media/audio/stims/spherical_300cm_s20_c10_cd-half_matched_a80.wav","spherical","20","10","half","matched","80","70","1444"
"echo-presentation","56","587393","0.0-56.0","601ffb441dc6d959b855eea5","60242478c74f84097a222710","602425f07617d1097dd589df","Mozilla/5.0 (Windows NT 10.0; Win64; x64) AppleWebKit/537.36 (KHTML, like Gecko) Chrome/88.0.4324.146 Safari/537.36","v1-up-stims","","","","","","","","40,50,60,70,80","media/audio/stims/spherical_300cm_s20_c10_cd-half_matched_a80.wav","spherical","20","10","half","matched","80","60","1236"
"echo-presentation","57","589793","0.0-57.0","601ffb441dc6d959b855eea5","60242478c74f84097a222710","602425f07617d1097dd589df","Mozilla/5.0 (Windows NT 10.0; Win64; x64) AppleWebKit/537.36 (KHTML, like Gecko) Chrome/88.0.4324.146 Safari/537.36","v1-up-stims","","","","","","","","40,50,60,70,80","media/audio/stims/spherical_300cm_s20_c10_cd-half_matched_a50.wav","spherical","20","10","half","matched","50","60","1185"
"echo-presentation","58","592533","0.0-58.0","601ffb441dc6d959b855eea5","60242478c74f84097a222710","602425f07617d1097dd589df","Mozilla/5.0 (Windows NT 10.0; Win64; x64) AppleWebKit/537.36 (KHTML, like Gecko) Chrome/88.0.4324.146 Safari/537.36","v1-up-stims","","","","","","","","40,50,60,70,80","media/audio/stims/spherical_300cm_s20_c10_cd-half_matched_a70.wav","spherical","20","10","half","matched","70","60","1844"
"echo-presentation","59","594643","0.0-59.0","601ffb441dc6d959b855eea5","60242478c74f84097a222710","602425f07617d1097dd589df","Mozilla/5.0 (Windows NT 10.0; Win64; x64) AppleWebKit/537.36 (KHTML, like Gecko) Chrome/88.0.4324.146 Safari/537.36","v1-up-stims","","","","","","","","40,50,60,70,80","media/audio/stims/spherical_300cm_s20_c10_cd-half_matched_a70.wav","spherical","20","10","half","matched","70","70","1175"
"echo-presentation","60","597233","0.0-60.0","601ffb441dc6d959b855eea5","60242478c74f84097a222710","602425f07617d1097dd589df","Mozilla/5.0 (Windows NT 10.0; Win64; x64) AppleWebKit/537.36 (KHTML, like Gecko) Chrome/88.0.4324.146 Safari/537.36","v1-up-stims","","","","","","","","40,50,60,70,80","media/audio/stims/spherical_300cm_s20_c10_cd-half_matched_a60.wav","spherical","20","10","half","matched","60","70","1212"
"echo-presentation","61","600503","0.0-61.0","601ffb441dc6d959b855eea5","60242478c74f84097a222710","602425f07617d1097dd589df","Mozilla/5.0 (Windows NT 10.0; Win64; x64) AppleWebKit/537.36 (KHTML, like Gecko) Chrome/88.0.4324.146 Safari/537.36","v1-up-stims","","","","","","","","40,50,60,70,80","media/audio/stims/spherical_300cm_s20_c10_cd-half_matched_a70.wav","spherical","20","10","half","matched","70","70","2231"
"echo-presentation","62","602953","0.0-62.0","601ffb441dc6d959b855eea5","60242478c74f84097a222710","602425f07617d1097dd589df","Mozilla/5.0 (Windows NT 10.0; Win64; x64) AppleWebKit/537.36 (KHTML, like Gecko) Chrome/88.0.4324.146 Safari/537.36","v1-up-stims","","","","","","","","40,50,60,70,80","media/audio/stims/spherical_300cm_s20_c10_cd-half_matched_a60.wav","spherical","20","10","half","matched","60","70","1149"
"echo-presentation","63","605679","0.0-63.0","601ffb441dc6d959b855eea5","60242478c74f84097a222710","602425f07617d1097dd589df","Mozilla/5.0 (Windows NT 10.0; Win64; x64) AppleWebKit/537.36 (KHTML, like Gecko) Chrome/88.0.4324.146 Safari/537.36","v1-up-stims","","","","","","","","40,50,60,70,80","media/audio/stims/spherical_300cm_s20_c10_cd-half_matched_a40.wav","spherical","20","10","half","matched","40","70","988"
"echo-presentation","64","609245","0.0-64.0","601ffb441dc6d959b855eea5","60242478c74f84097a222710","602425f07617d1097dd589df","Mozilla/5.0 (Windows NT 10.0; Win64; x64) AppleWebKit/537.36 (KHTML, like Gecko) Chrome/88.0.4324.146 Safari/537.36","v1-up-stims","","","","","","","","40,50,60,70,80","media/audio/stims/spherical_300cm_s20_c10_cd-half_matched_a40.wav","spherical","20","10","half","matched","40","60","1707"
"echo-presentation","65","612415","0.0-65.0","601ffb441dc6d959b855eea5","60242478c74f84097a222710","602425f07617d1097dd589df","Mozilla/5.0 (Windows NT 10.0; Win64; x64) AppleWebKit/537.36 (KHTML, like Gecko) Chrome/88.0.4324.146 Safari/537.36","v1-up-stims","","","","","","","","40,50,60,70,80","media/audio/stims/spherical_300cm_s20_c10_cd-half_matched_a40.wav","spherical","20","10","half","matched","40","70","1026"
"echo-presentation","66","617594","0.0-66.0","601ffb441dc6d959b855eea5","60242478c74f84097a222710","602425f07617d1097dd589df","Mozilla/5.0 (Windows NT 10.0; Win64; x64) AppleWebKit/537.36 (KHTML, like Gecko) Chrome/88.0.4324.146 Safari/537.36","v1-up-stims","","","","","","","","40,50,60,70,80","media/audio/stims/spherical_300cm_s20_c10_cd-half_matched_a50.wav","spherical","20","10","half","matched","50","80","3313"
"echo-presentation","67","619915","0.0-67.0","601ffb441dc6d959b855eea5","60242478c74f84097a222710","602425f07617d1097dd589df","Mozilla/5.0 (Windows NT 10.0; Win64; x64) AppleWebKit/537.36 (KHTML, like Gecko) Chrome/88.0.4324.146 Safari/537.36","v1-up-stims","","","","","","","","40,50,60,70,80","media/audio/stims/spherical_300cm_s20_c10_cd-half_matched_a60.wav","spherical","20","10","half","matched","60","60","1084"
"echo-presentation","68","622595","0.0-68.0","601ffb441dc6d959b855eea5","60242478c74f84097a222710","602425f07617d1097dd589df","Mozilla/5.0 (Windows NT 10.0; Win64; x64) AppleWebKit/537.36 (KHTML, like Gecko) Chrome/88.0.4324.146 Safari/537.36","v1-up-stims","","","","","","","","40,50,60,70,80","media/audio/stims/spherical_300cm_s20_c10_cd-half_matched_a40.wav","spherical","20","10","half","matched","40","70","1162"
"echo-presentation","69","624984","0.0-69.0","601ffb441dc6d959b855eea5","60242478c74f84097a222710","602425f07617d1097dd589df","Mozilla/5.0 (Windows NT 10.0; Win64; x64) AppleWebKit/537.36 (KHTML, like Gecko) Chrome/88.0.4324.146 Safari/537.36","v1-up-stims","","","","","","","","40,50,60,70,80","media/audio/stims/spherical_300cm_s20_c10_cd-half_matched_a50.wav","spherical","20","10","half","matched","50","70","1245"
"echo-presentation","70","627215","0.0-70.0","601ffb441dc6d959b855eea5","60242478c74f84097a222710","602425f07617d1097dd589df","Mozilla/5.0 (Windows NT 10.0; Win64; x64) AppleWebKit/537.36 (KHTML, like Gecko) Chrome/88.0.4324.146 Safari/537.36","v1-up-stims","","","","","","","","40,50,60,70,80","media/audio/stims/spherical_300cm_s20_c10_cd-half_matched_a70.wav","spherical","20","10","half","matched","70","70","1218"
"echo-presentation","71","630315","0.0-71.0","601ffb441dc6d959b855eea5","60242478c74f84097a222710","602425f07617d1097dd589df","Mozilla/5.0 (Windows NT 10.0; Win64; x64) AppleWebKit/537.36 (KHTML, like Gecko) Chrome/88.0.4324.146 Safari/537.36","v1-up-stims","","","","","","","","40,50,60,70,80","media/audio/stims/spherical_300cm_s20_c10_cd-half_matched_a80.wav","spherical","20","10","half","matched","80","60","1610"
"block-bookend","72","632316","0.0-72.0","601ffb441dc6d959b855eea5","60242478c74f84097a222710","602425f07617d1097dd589df","Mozilla/5.0 (Windows NT 10.0; Win64; x64) AppleWebKit/537.36 (KHTML, like Gecko) Chrome/88.0.4324.146 Safari/537.36","v1-up-stims","","","","","","","","","","","","","","","","",""
"block-bookend","73","638493","0.0-73.0","601ffb441dc6d959b855eea5","60242478c74f84097a222710","602425f07617d1097dd589df","Mozilla/5.0 (Windows NT 10.0; Win64; x64) AppleWebKit/537.36 (KHTML, like Gecko) Chrome/88.0.4324.146 Safari/537.36","v1-up-stims","","","","","","","","","","","","","","","","",""
"echo-presentation","74","644455","0.0-74.0","601ffb441dc6d959b855eea5","60242478c74f84097a222710","602425f07617d1097dd589df","Mozilla/5.0 (Windows NT 10.0; Win64; x64) AppleWebKit/537.36 (KHTML, like Gecko) Chrome/88.0.4324.146 Safari/537.36","v1-up-stims","","","","","","","","40,50,60,70,80","media/audio/stims/spherical_300cm_s20_c10_cd-half_matched_a70.wav","spherical","20","10","half","matched","70","70","1799"
"echo-presentation","75","647105","0.0-75.0","601ffb441dc6d959b855eea5","60242478c74f84097a222710","602425f07617d1097dd589df","Mozilla/5.0 (Windows NT 10.0; Win64; x64) AppleWebKit/537.36 (KHTML, like Gecko) Chrome/88.0.4324.146 Safari/537.36","v1-up-stims","","","","","","","","40,50,60,70,80","media/audio/stims/spherical_300cm_s20_c10_cd-half_matched_a40.wav","spherical","20","10","half","matched","40","70","1430"
"echo-presentation","76","651285","0.0-76.0","601ffb441dc6d959b855eea5","60242478c74f84097a222710","602425f07617d1097dd589df","Mozilla/5.0 (Windows NT 10.0; Win64; x64) AppleWebKit/537.36 (KHTML, like Gecko) Chrome/88.0.4324.146 Safari/537.36","v1-up-stims","","","","","","","","40,50,60,70,80","media/audio/stims/spherical_300cm_s20_c10_cd-half_matched_a60.wav","spherical","20","10","half","matched","60","80","3454"
"echo-presentation","77","653775","0.0-77.0","601ffb441dc6d959b855eea5","60242478c74f84097a222710","602425f07617d1097dd589df","Mozilla/5.0 (Windows NT 10.0; Win64; x64) AppleWebKit/537.36 (KHTML, like Gecko) Chrome/88.0.4324.146 Safari/537.36","v1-up-stims","","","","","","","","40,50,60,70,80","media/audio/stims/spherical_300cm_s20_c10_cd-half_matched_a60.wav","spherical","20","10","half","matched","60","80","1589"
"echo-presentation","78","656587","0.0-78.0","601ffb441dc6d959b855eea5","60242478c74f84097a222710","602425f07617d1097dd589df","Mozilla/5.0 (Windows NT 10.0; Win64; x64) AppleWebKit/537.36 (KHTML, like Gecko) Chrome/88.0.4324.146 Safari/537.36","v1-up-stims","","","","","","","","40,50,60,70,80","media/audio/stims/spherical_300cm_s20_c10_cd-half_matched_a70.wav","spherical","20","10","half","matched","70","70","1304"
"echo-presentation","79","659794","0.0-79.0","601ffb441dc6d959b855eea5","60242478c74f84097a222710","602425f07617d1097dd589df","Mozilla/5.0 (Windows NT 10.0; Win64; x64) AppleWebKit/537.36 (KHTML, like Gecko) Chrome/88.0.4324.146 Safari/537.36","v1-up-stims","","","","","","","","40,50,60,70,80","media/audio/stims/spherical_300cm_s20_c10_cd-half_matched_a70.wav","spherical","20","10","half","matched","70","80","2030"
"echo-presentation","80","661835","0.0-80.0","601ffb441dc6d959b855eea5","60242478c74f84097a222710","602425f07617d1097dd589df","Mozilla/5.0 (Windows NT 10.0; Win64; x64) AppleWebKit/537.36 (KHTML, like Gecko) Chrome/88.0.4324.146 Safari/537.36","v1-up-stims","","","","","","","","40,50,60,70,80","media/audio/stims/spherical_300cm_s20_c10_cd-half_matched_a50.wav","spherical","20","10","half","matched","50","70","1331"
"echo-presentation","81","664924","0.0-81.0","601ffb441dc6d959b855eea5","60242478c74f84097a222710","602425f07617d1097dd589df","Mozilla/5.0 (Windows NT 10.0; Win64; x64) AppleWebKit/537.36 (KHTML, like Gecko) Chrome/88.0.4324.146 Safari/537.36","v1-up-stims","","","","","","","","40,50,60,70,80","media/audio/stims/spherical_300cm_s20_c10_cd-half_matched_a40.wav","spherical","20","10","half","matched","40","70","2107"
"echo-presentation","82","667894","0.0-82.0","601ffb441dc6d959b855eea5","60242478c74f84097a222710","602425f07617d1097dd589df","Mozilla/5.0 (Windows NT 10.0; Win64; x64) AppleWebKit/537.36 (KHTML, like Gecko) Chrome/88.0.4324.146 Safari/537.36","v1-up-stims","","","","","","","","40,50,60,70,80","media/audio/stims/spherical_300cm_s20_c10_cd-half_matched_a40.wav","spherical","20","10","half","matched","40","70","1904"
"echo-presentation","83","670734","0.0-83.0","601ffb441dc6d959b855eea5","60242478c74f84097a222710","602425f07617d1097dd589df","Mozilla/5.0 (Windows NT 10.0; Win64; x64) AppleWebKit/537.36 (KHTML, like Gecko) Chrome/88.0.4324.146 Safari/537.36","v1-up-stims","","","","","","","","40,50,60,70,80","media/audio/stims/spherical_300cm_s20_c10_cd-half_matched_a50.wav","spherical","20","10","half","matched","50","70","1145"
"echo-presentation","84","673684","0.0-84.0","601ffb441dc6d959b855eea5","60242478c74f84097a222710","602425f07617d1097dd589df","Mozilla/5.0 (Windows NT 10.0; Win64; x64) AppleWebKit/537.36 (KHTML, like Gecko) Chrome/88.0.4324.146 Safari/537.36","v1-up-stims","","","","","","","","40,50,60,70,80","media/audio/stims/spherical_300cm_s20_c10_cd-half_matched_a50.wav","spherical","20","10","half","matched","50","70","1193"
"echo-presentation","85","678452","0.0-85.0","601ffb441dc6d959b855eea5","60242478c74f84097a222710","602425f07617d1097dd589df","Mozilla/5.0 (Windows NT 10.0; Win64; x64) AppleWebKit/537.36 (KHTML, like Gecko) Chrome/88.0.4324.146 Safari/537.36","v1-up-stims","","","","","","","","40,50,60,70,80","media/audio/stims/spherical_300cm_s20_c10_cd-half_matched_a80.wav","spherical","20","10","half","matched","80","70","1785"
"echo-presentation","86","681605","0.0-86.0","601ffb441dc6d959b855eea5","60242478c74f84097a222710","602425f07617d1097dd589df","Mozilla/5.0 (Windows NT 10.0; Win64; x64) AppleWebKit/537.36 (KHTML, like Gecko) Chrome/88.0.4324.146 Safari/537.36","v1-up-stims","","","","","","","","40,50,60,70,80","media/audio/stims/spherical_300cm_s20_c10_cd-half_matched_a70.wav","spherical","20","10","half","matched","70","70","1608"
"echo-presentation","87","684984","0.0-87.0","601ffb441dc6d959b855eea5","60242478c74f84097a222710","602425f07617d1097dd589df","Mozilla/5.0 (Windows NT 10.0; Win64; x64) AppleWebKit/537.36 (KHTML, like Gecko) Chrome/88.0.4324.146 Safari/537.36","v1-up-stims","","","","","","","","40,50,60,70,80","media/audio/stims/spherical_300cm_s20_c10_cd-half_matched_a80.wav","spherical","20","10","half","matched","80","80","2216"
"echo-presentation","88","688035","0.0-88.0","601ffb441dc6d959b855eea5","60242478c74f84097a222710","602425f07617d1097dd589df","Mozilla/5.0 (Windows NT 10.0; Win64; x64) AppleWebKit/537.36 (KHTML, like Gecko) Chrome/88.0.4324.146 Safari/537.36","v1-up-stims","","","","","","","","40,50,60,70,80","media/audio/stims/spherical_300cm_s20_c10_cd-half_matched_a60.wav","spherical","20","10","half","matched","60","70","1445"
"echo-presentation","89","690464","0.0-89.0","601ffb441dc6d959b855eea5","60242478c74f84097a222710","602425f07617d1097dd589df","Mozilla/5.0 (Windows NT 10.0; Win64; x64) AppleWebKit/537.36 (KHTML, like Gecko) Chrome/88.0.4324.146 Safari/537.36","v1-up-stims","","","","","","","","40,50,60,70,80","media/audio/stims/spherical_300cm_s20_c10_cd-half_matched_a80.wav","spherical","20","10","half","matched","80","80","1486"
"echo-presentation","90","694260","0.0-90.0","601ffb441dc6d959b855eea5","60242478c74f84097a222710","602425f07617d1097dd589df","Mozilla/5.0 (Windows NT 10.0; Win64; x64) AppleWebKit/537.36 (KHTML, like Gecko) Chrome/88.0.4324.146 Safari/537.36","v1-up-stims","","","","","","","","40,50,60,70,80","media/audio/stims/spherical_300cm_s20_c10_cd-half_matched_a80.wav","spherical","20","10","half","matched","80","80","3216"
"echo-presentation","91","698264","0.0-91.0","601ffb441dc6d959b855eea5","60242478c74f84097a222710","602425f07617d1097dd589df","Mozilla/5.0 (Windows NT 10.0; Win64; x64) AppleWebKit/537.36 (KHTML, like Gecko) Chrome/88.0.4324.146 Safari/537.36","v1-up-stims","","","","","","","","40,50,60,70,80","media/audio/stims/spherical_300cm_s20_c10_cd-half_matched_a50.wav","spherical","20","10","half","matched","50","70","2414"
"echo-presentation","92","701415","0.0-92.0","601ffb441dc6d959b855eea5","60242478c74f84097a222710","602425f07617d1097dd589df","Mozilla/5.0 (Windows NT 10.0; Win64; x64) AppleWebKit/537.36 (KHTML, like Gecko) Chrome/88.0.4324.146 Safari/537.36","v1-up-stims","","","","","","","","40,50,60,70,80","media/audio/stims/spherical_300cm_s20_c10_cd-half_matched_a60.wav","spherical","20","10","half","matched","60","70","1773"
"echo-presentation","93","703604","0.0-93.0","601ffb441dc6d959b855eea5","60242478c74f84097a222710","602425f07617d1097dd589df","Mozilla/5.0 (Windows NT 10.0; Win64; x64) AppleWebKit/537.36 (KHTML, like Gecko) Chrome/88.0.4324.146 Safari/537.36","v1-up-stims","","","","","","","","40,50,60,70,80","media/audio/stims/spherical_300cm_s20_c10_cd-half_matched_a40.wav","spherical","20","10","half","matched","40","70","1126"
"block-bookend","94","705153","0.0-94.0","601ffb441dc6d959b855eea5","60242478c74f84097a222710","602425f07617d1097dd589df","Mozilla/5.0 (Windows NT 10.0; Win64; x64) AppleWebKit/537.36 (KHTML, like Gecko) Chrome/88.0.4324.146 Safari/537.36","v1-up-stims","","","","","","","","","","","","","","","","",""
"block-bookend","95","710488","0.0-95.0","601ffb441dc6d959b855eea5","60242478c74f84097a222710","602425f07617d1097dd589df","Mozilla/5.0 (Windows NT 10.0; Win64; x64) AppleWebKit/537.36 (KHTML, like Gecko) Chrome/88.0.4324.146 Safari/537.36","v1-up-stims","","","","","","","","","","","","","","","","",""
"echo-presentation","96","718895","0.0-96.0","601ffb441dc6d959b855eea5","60242478c74f84097a222710","602425f07617d1097dd589df","Mozilla/5.0 (Windows NT 10.0; Win64; x64) AppleWebKit/537.36 (KHTML, like Gecko) Chrome/88.0.4324.146 Safari/537.36","v1-up-stims","","","","","","","","-80,-70,-60,-50,-40","media/audio/stims/spherical_300cm_s20_c10_cd-half_matched_a-40.wav","spherical","20","10","half","matched","-40","-50","6173"
"echo-presentation","97","721654","0.0-97.0","601ffb441dc6d959b855eea5","60242478c74f84097a222710","602425f07617d1097dd589df","Mozilla/5.0 (Windows NT 10.0; Win64; x64) AppleWebKit/537.36 (KHTML, like Gecko) Chrome/88.0.4324.146 Safari/537.36","v1-up-stims","","","","","","","","-80,-70,-60,-50,-40","media/audio/stims/spherical_300cm_s20_c10_cd-half_matched_a-50.wav","spherical","20","10","half","matched","-50","-50","1674"
"echo-presentation","98","725454","0.0-98.0","601ffb441dc6d959b855eea5","60242478c74f84097a222710","602425f07617d1097dd589df","Mozilla/5.0 (Windows NT 10.0; Win64; x64) AppleWebKit/537.36 (KHTML, like Gecko) Chrome/88.0.4324.146 Safari/537.36","v1-up-stims","","","","","","","","-80,-70,-60,-50,-40","media/audio/stims/spherical_300cm_s20_c10_cd-half_matched_a-60.wav","spherical","20","10","half","matched","-60","-40","2046"
"echo-presentation","99","727676","0.0-99.0","601ffb441dc6d959b855eea5","60242478c74f84097a222710","602425f07617d1097dd589df","Mozilla/5.0 (Windows NT 10.0; Win64; x64) AppleWebKit/537.36 (KHTML, like Gecko) Chrome/88.0.4324.146 Safari/537.36","v1-up-stims","","","","","","","","-80,-70,-60,-50,-40","media/audio/stims/spherical_300cm_s20_c10_cd-half_matched_a-80.wav","spherical","20","10","half","matched","-80","-50","1025"
"echo-presentation","100","730756","0.0-100.0","601ffb441dc6d959b855eea5","60242478c74f84097a222710","602425f07617d1097dd589df","Mozilla/5.0 (Windows NT 10.0; Win64; x64) AppleWebKit/537.36 (KHTML, like Gecko) Chrome/88.0.4324.146 Safari/537.36","v1-up-stims","","","","","","","","-80,-70,-60,-50,-40","media/audio/stims/spherical_300cm_s20_c10_cd-half_matched_a-70.wav","spherical","20","10","half","matched","-70","-50","1267"
"echo-presentation","101","733966","0.0-101.0","601ffb441dc6d959b855eea5","60242478c74f84097a222710","602425f07617d1097dd589df","Mozilla/5.0 (Windows NT 10.0; Win64; x64) AppleWebKit/537.36 (KHTML, like Gecko) Chrome/88.0.4324.146 Safari/537.36","v1-up-stims","","","","","","","","-80,-70,-60,-50,-40","media/audio/stims/spherical_300cm_s20_c10_cd-half_matched_a-50.wav","spherical","20","10","half","matched","-50","-50","1565"
"echo-presentation","102","736246","0.0-102.0","601ffb441dc6d959b855eea5","60242478c74f84097a222710","602425f07617d1097dd589df","Mozilla/5.0 (Windows NT 10.0; Win64; x64) AppleWebKit/537.36 (KHTML, like Gecko) Chrome/88.0.4324.146 Safari/537.36","v1-up-stims","","","","","","","","-80,-70,-60,-50,-40","media/audio/stims/spherical_300cm_s20_c10_cd-half_matched_a-40.wav","spherical","20","10","half","matched","-40","-50","1186"
"echo-presentation","103","739776","0.0-103.0","601ffb441dc6d959b855eea5","60242478c74f84097a222710","602425f07617d1097dd589df","Mozilla/5.0 (Windows NT 10.0; Win64; x64) AppleWebKit/537.36 (KHTML, like Gecko) Chrome/88.0.4324.146 Safari/537.36","v1-up-stims","","","","","","","","-80,-70,-60,-50,-40","media/audio/stims/spherical_300cm_s20_c10_cd-half_matched_a-60.wav","spherical","20","10","half","matched","-60","-50","1842"
"echo-presentation","104","745996","0.0-104.0","601ffb441dc6d959b855eea5","60242478c74f84097a222710","602425f07617d1097dd589df","Mozilla/5.0 (Windows NT 10.0; Win64; x64) AppleWebKit/537.36 (KHTML, like Gecko) Chrome/88.0.4324.146 Safari/537.36","v1-up-stims","","","","","","","","-80,-70,-60,-50,-40","media/audio/stims/spherical_300cm_s20_c10_cd-half_matched_a-50.wav","spherical","20","10","half","matched","-50","-60","4895"
"echo-presentation","105","748156","0.0-105.0","601ffb441dc6d959b855eea5","60242478c74f84097a222710","602425f07617d1097dd589df","Mozilla/5.0 (Windows NT 10.0; Win64; x64) AppleWebKit/537.36 (KHTML, like Gecko) Chrome/88.0.4324.146 Safari/537.36","v1-up-stims","","","","","","","","-80,-70,-60,-50,-40","media/audio/stims/spherical_300cm_s20_c10_cd-half_matched_a-70.wav","spherical","20","10","half","matched","-70","-70","1204"
"echo-presentation","106","750296","0.0-106.0","601ffb441dc6d959b855eea5","60242478c74f84097a222710","602425f07617d1097dd589df","Mozilla/5.0 (Windows NT 10.0; Win64; x64) AppleWebKit/537.36 (KHTML, like Gecko) Chrome/88.0.4324.146 Safari/537.36","v1-up-stims","","","","","","","","-80,-70,-60,-50,-40","media/audio/stims/spherical_300cm_s20_c10_cd-half_matched_a-80.wav","spherical","20","10","half","matched","-80","-70","1098"
"echo-presentation","107","752607","0.0-107.0","601ffb441dc6d959b855eea5","60242478c74f84097a222710","602425f07617d1097dd589df","Mozilla/5.0 (Windows NT 10.0; Win64; x64) AppleWebKit/537.36 (KHTML, like Gecko) Chrome/88.0.4324.146 Safari/537.36","v1-up-stims","","","","","","","","-80,-70,-60,-50,-40","media/audio/stims/spherical_300cm_s20_c10_cd-half_matched_a-40.wav","spherical","20","10","half","matched","-40","-70","1204"
"echo-presentation","108","755336","0.0-108.0","601ffb441dc6d959b855eea5","60242478c74f84097a222710","602425f07617d1097dd589df","Mozilla/5.0 (Windows NT 10.0; Win64; x64) AppleWebKit/537.36 (KHTML, like Gecko) Chrome/88.0.4324.146 Safari/537.36","v1-up-stims","","","","","","","","-80,-70,-60,-50,-40","media/audio/stims/spherical_300cm_s20_c10_cd-half_matched_a-50.wav","spherical","20","10","half","matched","-50","-70","1670"
"echo-presentation","109","757367","0.0-109.0","601ffb441dc6d959b855eea5","60242478c74f84097a222710","602425f07617d1097dd589df","Mozilla/5.0 (Windows NT 10.0; Win64; x64) AppleWebKit/537.36 (KHTML, like Gecko) Chrome/88.0.4324.146 Safari/537.36","v1-up-stims","","","","","","","","-80,-70,-60,-50,-40","media/audio/stims/spherical_300cm_s20_c10_cd-half_matched_a-70.wav","spherical","20","10","half","matched","-70","-60","1159"
"echo-presentation","110","761246","0.0-110.0","601ffb441dc6d959b855eea5","60242478c74f84097a222710","602425f07617d1097dd589df","Mozilla/5.0 (Windows NT 10.0; Win64; x64) AppleWebKit/537.36 (KHTML, like Gecko) Chrome/88.0.4324.146 Safari/537.36","v1-up-stims","","","","","","","","-80,-70,-60,-50,-40","media/audio/stims/spherical_300cm_s20_c10_cd-half_matched_a-80.wav","spherical","20","10","half","matched","-80","-50","2757"
"echo-presentation","111","763846","0.0-111.0","601ffb441dc6d959b855eea5","60242478c74f84097a222710","602425f07617d1097dd589df","Mozilla/5.0 (Windows NT 10.0; Win64; x64) AppleWebKit/537.36 (KHTML, like Gecko) Chrome/88.0.4324.146 Safari/537.36","v1-up-stims","","","","","","","","-80,-70,-60,-50,-40","media/audio/stims/spherical_300cm_s20_c10_cd-half_matched_a-40.wav","spherical","20","10","half","matched","-40","-40","1662"
"echo-presentation","112","766546","0.0-112.0","601ffb441dc6d959b855eea5","60242478c74f84097a222710","602425f07617d1097dd589df","Mozilla/5.0 (Windows NT 10.0; Win64; x64) AppleWebKit/537.36 (KHTML, like Gecko) Chrome/88.0.4324.146 Safari/537.36","v1-up-stims","","","","","","","","-80,-70,-60,-50,-40","media/audio/stims/spherical_300cm_s20_c10_cd-half_matched_a-60.wav","spherical","20","10","half","matched","-60","-50","1728"
"echo-presentation","113","768546","0.0-113.0","601ffb441dc6d959b855eea5","60242478c74f84097a222710","602425f07617d1097dd589df","Mozilla/5.0 (Windows NT 10.0; Win64; x64) AppleWebKit/537.36 (KHTML, like Gecko) Chrome/88.0.4324.146 Safari/537.36","v1-up-stims","","","","","","","","-80,-70,-60,-50,-40","media/audio/stims/spherical_300cm_s20_c10_cd-half_matched_a-60.wav","spherical","20","10","half","matched","-60","-50","1062"
"echo-presentation","114","770716","0.0-114.0","601ffb441dc6d959b855eea5","60242478c74f84097a222710","602425f07617d1097dd589df","Mozilla/5.0 (Windows NT 10.0; Win64; x64) AppleWebKit/537.36 (KHTML, like Gecko) Chrome/88.0.4324.146 Safari/537.36","v1-up-stims","","","","","","","","-80,-70,-60,-50,-40","media/audio/stims/spherical_300cm_s20_c10_cd-half_matched_a-70.wav","spherical","20","10","half","matched","-70","-50","1007"
"echo-presentation","115","773506","0.0-115.0","601ffb441dc6d959b855eea5","60242478c74f84097a222710","602425f07617d1097dd589df","Mozilla/5.0 (Windows NT 10.0; Win64; x64) AppleWebKit/537.36 (KHTML, like Gecko) Chrome/88.0.4324.146 Safari/537.36","v1-up-stims","","","","","","","","-80,-70,-60,-50,-40","media/audio/stims/spherical_300cm_s20_c10_cd-half_matched_a-80.wav","spherical","20","10","half","matched","-80","-40","1458"
"block-bookend","116","774719","0.0-116.0","601ffb441dc6d959b855eea5","60242478c74f84097a222710","602425f07617d1097dd589df","Mozilla/5.0 (Windows NT 10.0; Win64; x64) AppleWebKit/537.36 (KHTML, like Gecko) Chrome/88.0.4324.146 Safari/537.36","v1-up-stims","","","","","","","","","","","","","","","","",""
"block-bookend","117","781454","0.0-117.0","601ffb441dc6d959b855eea5","60242478c74f84097a222710","602425f07617d1097dd589df","Mozilla/5.0 (Windows NT 10.0; Win64; x64) AppleWebKit/537.36 (KHTML, like Gecko) Chrome/88.0.4324.146 Safari/537.36","v1-up-stims","","","","","","","","","","","","","","","","",""
"echo-presentation","118","784326","0.0-118.0","601ffb441dc6d959b855eea5","60242478c74f84097a222710","602425f07617d1097dd589df","Mozilla/5.0 (Windows NT 10.0; Win64; x64) AppleWebKit/537.36 (KHTML, like Gecko) Chrome/88.0.4324.146 Safari/537.36","v1-up-stims","","","","","","","","-80,-70,-60,-50,-40","media/audio/stims/spherical_300cm_s20_c10_cd-half_matched_a-50.wav","spherical","20","10","half","matched","-50","-50","1300"
"echo-presentation","119","786636","0.0-119.0","601ffb441dc6d959b855eea5","60242478c74f84097a222710","602425f07617d1097dd589df","Mozilla/5.0 (Windows NT 10.0; Win64; x64) AppleWebKit/537.36 (KHTML, like Gecko) Chrome/88.0.4324.146 Safari/537.36","v1-up-stims","","","","","","","","-80,-70,-60,-50,-40","media/audio/stims/spherical_300cm_s20_c10_cd-half_matched_a-80.wav","spherical","20","10","half","matched","-80","-50","1057"
"echo-presentation","120","789504","0.0-120.0","601ffb441dc6d959b855eea5","60242478c74f84097a222710","602425f07617d1097dd589df","Mozilla/5.0 (Windows NT 10.0; Win64; x64) AppleWebKit/537.36 (KHTML, like Gecko) Chrome/88.0.4324.146 Safari/537.36","v1-up-stims","","","","","","","","-80,-70,-60,-50,-40","media/audio/stims/spherical_300cm_s20_c10_cd-half_matched_a-70.wav","spherical","20","10","half","matched","-70","-50","1385"
"echo-presentation","121","793684","0.0-121.0","601ffb441dc6d959b855eea5","60242478c74f84097a222710","602425f07617d1097dd589df","Mozilla/5.0 (Windows NT 10.0; Win64; x64) AppleWebKit/537.36 (KHTML, like Gecko) Chrome/88.0.4324.146 Safari/537.36","v1-up-stims","","","","","","","","-80,-70,-60,-50,-40","media/audio/stims/spherical_300cm_s20_c10_cd-half_matched_a-80.wav","spherical","20","10","half","matched","-80","-60","1766"
"echo-presentation","122","796374","0.0-122.0","601ffb441dc6d959b855eea5","60242478c74f84097a222710","602425f07617d1097dd589df","Mozilla/5.0 (Windows NT 10.0; Win64; x64) AppleWebKit/537.36 (KHTML, like Gecko) Chrome/88.0.4324.146 Safari/537.36","v1-up-stims","","","","","","","","-80,-70,-60,-50,-40","media/audio/stims/spherical_300cm_s20_c10_cd-half_matched_a-50.wav","spherical","20","10","half","matched","-50","-70","1608"
"echo-presentation","123","798624","0.0-123.0","601ffb441dc6d959b855eea5","60242478c74f84097a222710","602425f07617d1097dd589df","Mozilla/5.0 (Windows NT 10.0; Win64; x64) AppleWebKit/537.36 (KHTML, like Gecko) Chrome/88.0.4324.146 Safari/537.36","v1-up-stims","","","","","","","","-80,-70,-60,-50,-40","media/audio/stims/spherical_300cm_s20_c10_cd-half_matched_a-60.wav","spherical","20","10","half","matched","-60","-60","1354"
"echo-presentation","124","801654","0.0-124.0","601ffb441dc6d959b855eea5","60242478c74f84097a222710","602425f07617d1097dd589df","Mozilla/5.0 (Windows NT 10.0; Win64; x64) AppleWebKit/537.36 (KHTML, like Gecko) Chrome/88.0.4324.146 Safari/537.36","v1-up-stims","","","","","","","","-80,-70,-60,-50,-40","media/audio/stims/spherical_300cm_s20_c10_cd-half_matched_a-70.wav","spherical","20","10","half","matched","-70","-60","1947"
"echo-presentation","125","803874","0.0-125.0","601ffb441dc6d959b855eea5","60242478c74f84097a222710","602425f07617d1097dd589df","Mozilla/5.0 (Windows NT 10.0; Win64; x64) AppleWebKit/537.36 (KHTML, like Gecko) Chrome/88.0.4324.146 Safari/537.36","v1-up-stims","","","","","","","","-80,-70,-60,-50,-40","media/audio/stims/spherical_300cm_s20_c10_cd-half_matched_a-80.wav","spherical","20","10","half","matched","-80","-60","1173"
"echo-presentation","126","806334","0.0-126.0","601ffb441dc6d959b855eea5","60242478c74f84097a222710","602425f07617d1097dd589df","Mozilla/5.0 (Windows NT 10.0; Win64; x64) AppleWebKit/537.36 (KHTML, like Gecko) Chrome/88.0.4324.146 Safari/537.36","v1-up-stims","","","","","","","","-80,-70,-60,-50,-40","media/audio/stims/spherical_300cm_s20_c10_cd-half_matched_a-40.wav","spherical","20","10","half","matched","-40","-70","1044"
"echo-presentation","127","808834","0.0-127.0","601ffb441dc6d959b855eea5","60242478c74f84097a222710","602425f07617d1097dd589df","Mozilla/5.0 (Windows NT 10.0; Win64; x64) AppleWebKit/537.36 (KHTML, like Gecko) Chrome/88.0.4324.146 Safari/537.36","v1-up-stims","","","","","","","","-80,-70,-60,-50,-40","media/audio/stims/spherical_300cm_s20_c10_cd-half_matched_a-40.wav","spherical","20","10","half","matched","-40","-70","1272"
"echo-presentation","128","810824","0.0-128.0","601ffb441dc6d959b855eea5","60242478c74f84097a222710","602425f07617d1097dd589df","Mozilla/5.0 (Windows NT 10.0; Win64; x64) AppleWebKit/537.36 (KHTML, like Gecko) Chrome/88.0.4324.146 Safari/537.36","v1-up-stims","","","","","","","","-80,-70,-60,-50,-40","media/audio/stims/spherical_300cm_s20_c10_cd-half_matched_a-60.wav","spherical","20","10","half","matched","-60","-50","857"
"echo-presentation","129","812854","0.0-129.0","601ffb441dc6d959b855eea5","60242478c74f84097a222710","602425f07617d1097dd589df","Mozilla/5.0 (Windows NT 10.0; Win64; x64) AppleWebKit/537.36 (KHTML, like Gecko) Chrome/88.0.4324.146 Safari/537.36","v1-up-stims","","","","","","","","-80,-70,-60,-50,-40","media/audio/stims/spherical_300cm_s20_c10_cd-half_matched_a-40.wav","spherical","20","10","half","matched","-40","-50","978"
"echo-presentation","130","815214","0.0-130.0","601ffb441dc6d959b855eea5","60242478c74f84097a222710","602425f07617d1097dd589df","Mozilla/5.0 (Windows NT 10.0; Win64; x64) AppleWebKit/537.36 (KHTML, like Gecko) Chrome/88.0.4324.146 Safari/537.36","v1-up-stims","","","","","","","","-80,-70,-60,-50,-40","media/audio/stims/spherical_300cm_s20_c10_cd-half_matched_a-60.wav","spherical","20","10","half","matched","-60","-40","1299"
"echo-presentation","131","818008","0.0-131.0","601ffb441dc6d959b855eea5","60242478c74f84097a222710","602425f07617d1097dd589df","Mozilla/5.0 (Windows NT 10.0; Win64; x64) AppleWebKit/537.36 (KHTML, like Gecko) Chrome/88.0.4324.146 Safari/537.36","v1-up-stims","","","","","","","","-80,-70,-60,-50,-40","media/audio/stims/spherical_300cm_s20_c10_cd-half_matched_a-50.wav","spherical","20","10","half","matched","-50","-40","1951"
"echo-presentation","132","820734","0.0-132.0","601ffb441dc6d959b855eea5","60242478c74f84097a222710","602425f07617d1097dd589df","Mozilla/5.0 (Windows NT 10.0; Win64; x64) AppleWebKit/537.36 (KHTML, like Gecko) Chrome/88.0.4324.146 Safari/537.36","v1-up-stims","","","","","","","","-80,-70,-60,-50,-40","media/audio/stims/spherical_300cm_s20_c10_cd-half_matched_a-70.wav","spherical","20","10","half","matched","-70","-40","1585"
"echo-presentation","133","823364","0.0-133.0","601ffb441dc6d959b855eea5","60242478c74f84097a222710","602425f07617d1097dd589df","Mozilla/5.0 (Windows NT 10.0; Win64; x64) AppleWebKit/537.36 (KHTML, like Gecko) Chrome/88.0.4324.146 Safari/537.36","v1-up-stims","","","","","","","","-80,-70,-60,-50,-40","media/audio/stims/spherical_300cm_s20_c10_cd-half_matched_a-80.wav","spherical","20","10","half","matched","-80","-40","2012"
"echo-presentation","134","825974","0.0-134.0","601ffb441dc6d959b855eea5","60242478c74f84097a222710","602425f07617d1097dd589df","Mozilla/5.0 (Windows NT 10.0; Win64; x64) AppleWebKit/537.36 (KHTML, like Gecko) Chrome/88.0.4324.146 Safari/537.36","v1-up-stims","","","","","","","","-80,-70,-60,-50,-40","media/audio/stims/spherical_300cm_s20_c10_cd-half_matched_a-60.wav","spherical","20","10","half","matched","-60","-60","1441"
"echo-presentation","135","828294","0.0-135.0","601ffb441dc6d959b855eea5","60242478c74f84097a222710","602425f07617d1097dd589df","Mozilla/5.0 (Windows NT 10.0; Win64; x64) AppleWebKit/537.36 (KHTML, like Gecko) Chrome/88.0.4324.146 Safari/537.36","v1-up-stims","","","","","","","","-80,-70,-60,-50,-40","media/audio/stims/spherical_300cm_s20_c10_cd-half_matched_a-70.wav","spherical","20","10","half","matched","-70","-40","1227"
"echo-presentation","136","830534","0.0-136.0","601ffb441dc6d959b855eea5","60242478c74f84097a222710","602425f07617d1097dd589df","Mozilla/5.0 (Windows NT 10.0; Win64; x64) AppleWebKit/537.36 (KHTML, like Gecko) Chrome/88.0.4324.146 Safari/537.36","v1-up-stims","","","","","","","","-80,-70,-60,-50,-40","media/audio/stims/spherical_300cm_s20_c10_cd-half_matched_a-50.wav","spherical","20","10","half","matched","-50","-50","954"
"echo-presentation","137","835094","0.0-137.0","601ffb441dc6d959b855eea5","60242478c74f84097a222710","602425f07617d1097dd589df","Mozilla/5.0 (Windows NT 10.0; Win64; x64) AppleWebKit/537.36 (KHTML, like Gecko) Chrome/88.0.4324.146 Safari/537.36","v1-up-stims","","","","","","","","-80,-70,-60,-50,-40","media/audio/stims/spherical_300cm_s20_c10_cd-half_matched_a-40.wav","spherical","20","10","half","matched","-40","-50","2637"
"block-bookend","138","835990","0.0-138.0","601ffb441dc6d959b855eea5","60242478c74f84097a222710","602425f07617d1097dd589df","Mozilla/5.0 (Windows NT 10.0; Win64; x64) AppleWebKit/537.36 (KHTML, like Gecko) Chrome/88.0.4324.146 Safari/537.36","v1-up-stims","","","","","","","","","","","","","","","","",""
