"trial_type","trial_index","time_elapsed","internal_node_id","rt","stimulus","key_press","chosenKeyset","failureCount","testIndex","globalVolume","choices","filename","slowdown","compensationDenominator","receiverOrientationType","azimuth","responseAzimuth","responseDelay"
"pavlovia","0","4","0.0-0.0","","","","","","","","","","","","","","",""
"html-keyboard-response","1","678","0.0-1.0","674","<div><h1>Welcome!</h1><p>Beep bloop bloop. Press any key to continue.</p></div>","32","","","","","","","","","","","",""
"keyset-select","2","2526","0.0-2.0","","","","Left hand (home row)","","","","","","","","","","",""
"headphone-check","3","5235","0.0-3.0","","","","","0","-1","0.3","","","","","","","",""
"training","4","16544","0.0-4.0","","","","","","","","","","","","","","",""
"block-bookend","5","17102","0.0-5.0","","","","","","","","","","","","","","",""
"echo-presentation","6","19883","0.0-6.0","","","","","","","","-10,-5,0,5,10","media/audio/stims/spherical_300cm_s21_c2_matched_a0.wav","21","2","matched","0","0","1534"
"echo-presentation","7","21296","0.0-7.0","","","","","","","","-10,-5,0,5,10","media/audio/stims/spherical_300cm_s21_c2_matched_a5.wav","21","2","matched","5","0","709"
"echo-presentation","8","23169","0.0-8.0","","","","","","","","-10,-5,0,5,10","media/audio/stims/spherical_300cm_s21_c2_matched_a10.wav","21","2","matched","10","0","1029"
"block-bookend","9","23416","0.0-9.0","","","","","","","","","","","","","","",""
"block-bookend","10","23770","0.0-10.0","","","","","","","","","","","","","","",""
"echo-presentation","11","25700","0.0-11.0","","","","","","","","50,55,60,65,70","media/audio/stims/spherical_300cm_s14_c0_matched_a60.wav","14","0","matched","60","65","1038"
"echo-presentation","12","27279","0.0-12.0","","","","","","","","50,55,60,65,70","media/audio/stims/spherical_300cm_s14_c0_matched_a70.wav","14","0","matched","70","65","903"
"echo-presentation","13","29105","0.0-13.0","","","","","","","","50,55,60,65,70","media/audio/stims/spherical_300cm_s14_c0_matched_a50.wav","14","0","matched","50","65","1107"
"block-bookend","14","29437","0.0-14.0","","","","","","","","","","","","","","",""
"block-bookend","15","29821","0.0-15.0","","","","","","","","","","","","","","",""
"echo-presentation","16","31446","0.0-16.0","","","","","","","","20,25,30,35,40","media/audio/stims/spherical_300cm_s7_c1_matched_a25.wav","7","1","matched","25","35","723"
"echo-presentation","17","32996","0.0-17.0","","","","","","","","20,25,30,35,40","media/audio/stims/spherical_300cm_s7_c1_matched_a40.wav","7","1","matched","40","30","799"
"echo-presentation","18","34260","0.0-18.0","","","","","","","","20,25,30,35,40","media/audio/stims/spherical_300cm_s7_c1_matched_a40.wav","7","1","matched","40","30","614"
"block-bookend","19","34483","0.0-19.0","","","","","","","","","","","","","","",""
"block-bookend","20","34927","0.0-20.0","","","","","","","","","","","","","","",""
"echo-presentation","21","37082","0.0-21.0","","","","","","","","-40,-35,-30,-25,-20","media/audio/stims/spherical_300cm_s21_c2_matched_a-20.wav","21","2","matched","-20","-35","1155"
"echo-presentation","22","38924","0.0-22.0","","","","","","","","-40,-35,-30,-25,-20","media/audio/stims/spherical_300cm_s21_c2_matched_a-40.wav","21","2","matched","-40","-35","1087"
"echo-presentation","23","40916","0.0-23.0","","","","","","","","-40,-35,-30,-25,-20","media/audio/stims/spherical_300cm_s21_c2_matched_a-35.wav","21","2","matched","-35","-35","1160"
"block-bookend","24","41343","0.0-24.0","","","","","","","","","","","","","","",""
"block-bookend","25","41787","0.0-25.0","","","","","","","","","","","","","","",""
"echo-presentation","26","43675","0.0-26.0","","","","","","","","-70,-65,-60,-55,-50","media/audio/stims/spherical_300cm_s7_c1_matched_a-60.wav","7","1","matched","-60","-65","774"
"echo-presentation","27","44886","0.0-27.0","","","","","","","","-70,-65,-60,-55,-50","media/audio/stims/spherical_300cm_s7_c1_matched_a-55.wav","7","1","matched","-55","-65","596"
"echo-presentation","28","46222","0.0-28.0","","","","","","","","-70,-65,-60,-55,-50","media/audio/stims/spherical_300cm_s7_c1_matched_a-65.wav","7","1","matched","-65","-65","610"
"block-bookend","29","48788","0.0-29.0","","","","","","","","","","","","","","",""
