"trial_type","trial_index","time_elapsed","internal_node_id","prolificPid","studyId","sessionId","userAgent","version","rt","stimulus","key_press","chosenKeyset","failureCount","testIndex","globalVolume","choices","filename","modelName","slowdown","compensation","compensationDescriptor","receiverOrientationType","azimuth","responseAzimuth","responseDelay"
"pavlovia","0","3","0.0-0.0","5f5c2c3e564c56422ca91c12","5fef55e628823a0076ec12ee","601f4479f47e0a46d39974ce","Mozilla/5.0 (Windows NT 10.0; Win64; x64) AppleWebKit/537.36 (KHTML, like Gecko) Chrome/88.0.4324.146 Safari/537.36","v1","","","","","","","","","","","","","","","","",""
"html-keyboard-response","1","12332","0.0-1.0","5f5c2c3e564c56422ca91c12","5fef55e628823a0076ec12ee","601f4479f47e0a46d39974ce","Mozilla/5.0 (Windows NT 10.0; Win64; x64) AppleWebKit/537.36 (KHTML, like Gecko) Chrome/88.0.4324.146 Safari/537.36","v1","12328.299999935552","<div><h1>Welcome!</h1><p>Press any key to continue.</p></div>","32","","","","","","","","","","","","","",""
"consent-form","2","60013","0.0-2.0","5f5c2c3e564c56422ca91c12","5fef55e628823a0076ec12ee","601f4479f47e0a46d39974ce","Mozilla/5.0 (Windows NT 10.0; Win64; x64) AppleWebKit/537.36 (KHTML, like Gecko) Chrome/88.0.4324.146 Safari/537.36","v1","","","","","","","","","","","","","","","","",""
"keyset-select","3","84749","0.0-3.0","5f5c2c3e564c56422ca91c12","5fef55e628823a0076ec12ee","601f4479f47e0a46d39974ce","Mozilla/5.0 (Windows NT 10.0; Win64; x64) AppleWebKit/537.36 (KHTML, like Gecko) Chrome/88.0.4324.146 Safari/537.36","v1","","","","left-hand","","","","","","","","","","","","",""
"headphone-check","4","138841","0.0-4.0","5f5c2c3e564c56422ca91c12","5fef55e628823a0076ec12ee","601f4479f47e0a46d39974ce","Mozilla/5.0 (Windows NT 10.0; Win64; x64) AppleWebKit/537.36 (KHTML, like Gecko) Chrome/88.0.4324.146 Safari/537.36","v1","","","","","0","6","0.7","","","","","","","","","",""
"headphone-backwards-check","5","146791","0.0-5.0","5f5c2c3e564c56422ca91c12","5fef55e628823a0076ec12ee","601f4479f47e0a46d39974ce","Mozilla/5.0 (Windows NT 10.0; Win64; x64) AppleWebKit/537.36 (KHTML, like Gecko) Chrome/88.0.4324.146 Safari/537.36","v1","","","","","0","","","","","","","","","","","",""
"training","6","215167","0.0-6.0","5f5c2c3e564c56422ca91c12","5fef55e628823a0076ec12ee","601f4479f47e0a46d39974ce","Mozilla/5.0 (Windows NT 10.0; Win64; x64) AppleWebKit/537.36 (KHTML, like Gecko) Chrome/88.0.4324.146 Safari/537.36","v1","","","","","","","","","","","","","","","","",""
"block-bookend","7","226400","0.0-7.0","5f5c2c3e564c56422ca91c12","5fef55e628823a0076ec12ee","601f4479f47e0a46d39974ce","Mozilla/5.0 (Windows NT 10.0; Win64; x64) AppleWebKit/537.36 (KHTML, like Gecko) Chrome/88.0.4324.146 Safari/537.36","v1","","","","","","","","","","","","","","","","",""
"echo-presentation","8","231580","0.0-8.0","5f5c2c3e564c56422ca91c12","5fef55e628823a0076ec12ee","601f4479f47e0a46d39974ce","Mozilla/5.0 (Windows NT 10.0; Win64; x64) AppleWebKit/537.36 (KHTML, like Gecko) Chrome/88.0.4324.146 Safari/537.36","v1","","","","","","","","-20,-10,0,10,20","media/audio/stims/spherical_300cm_s20_c20_cd-full_matched_a-10.wav","spherical","20","20","full","matched","-10","-20","2013"
"echo-presentation","9","234269","0.0-9.0","5f5c2c3e564c56422ca91c12","5fef55e628823a0076ec12ee","601f4479f47e0a46d39974ce","Mozilla/5.0 (Windows NT 10.0; Win64; x64) AppleWebKit/537.36 (KHTML, like Gecko) Chrome/88.0.4324.146 Safari/537.36","v1","","","","","","","","-20,-10,0,10,20","media/audio/stims/spherical_300cm_s20_c20_cd-full_matched_a-20.wav","spherical","20","20","full","matched","-20","-20","1346"
"echo-presentation","10","236652","0.0-10.0","5f5c2c3e564c56422ca91c12","5fef55e628823a0076ec12ee","601f4479f47e0a46d39974ce","Mozilla/5.0 (Windows NT 10.0; Win64; x64) AppleWebKit/537.36 (KHTML, like Gecko) Chrome/88.0.4324.146 Safari/537.36","v1","","","","","","","","-20,-10,0,10,20","media/audio/stims/spherical_300cm_s20_c20_cd-full_matched_a-20.wav","spherical","20","20","full","matched","-20","-20","1126"
"echo-presentation","11","239114","0.0-11.0","5f5c2c3e564c56422ca91c12","5fef55e628823a0076ec12ee","601f4479f47e0a46d39974ce","Mozilla/5.0 (Windows NT 10.0; Win64; x64) AppleWebKit/537.36 (KHTML, like Gecko) Chrome/88.0.4324.146 Safari/537.36","v1","","","","","","","","-20,-10,0,10,20","media/audio/stims/spherical_300cm_s20_c20_cd-full_matched_a-10.wav","spherical","20","20","full","matched","-10","-20","1053"
"echo-presentation","12","241658","0.0-12.0","5f5c2c3e564c56422ca91c12","5fef55e628823a0076ec12ee","601f4479f47e0a46d39974ce","Mozilla/5.0 (Windows NT 10.0; Win64; x64) AppleWebKit/537.36 (KHTML, like Gecko) Chrome/88.0.4324.146 Safari/537.36","v1","","","","","","","","-20,-10,0,10,20","media/audio/stims/spherical_300cm_s20_c20_cd-full_matched_a0.wav","spherical","20","20","full","matched","0","-10","1397"
"echo-presentation","13","244173","0.0-13.0","5f5c2c3e564c56422ca91c12","5fef55e628823a0076ec12ee","601f4479f47e0a46d39974ce","Mozilla/5.0 (Windows NT 10.0; Win64; x64) AppleWebKit/537.36 (KHTML, like Gecko) Chrome/88.0.4324.146 Safari/537.36","v1","","","","","","","","-20,-10,0,10,20","media/audio/stims/spherical_300cm_s20_c20_cd-full_matched_a0.wav","spherical","20","20","full","matched","0","0","1280"
"echo-presentation","14","250765","0.0-14.0","5f5c2c3e564c56422ca91c12","5fef55e628823a0076ec12ee","601f4479f47e0a46d39974ce","Mozilla/5.0 (Windows NT 10.0; Win64; x64) AppleWebKit/537.36 (KHTML, like Gecko) Chrome/88.0.4324.146 Safari/537.36","v1","","","","","","","","-20,-10,0,10,20","media/audio/stims/spherical_300cm_s20_c20_cd-full_matched_a-20.wav","spherical","20","20","full","matched","-20","-20","1009"
"echo-presentation","15","254714","0.0-15.0","5f5c2c3e564c56422ca91c12","5fef55e628823a0076ec12ee","601f4479f47e0a46d39974ce","Mozilla/5.0 (Windows NT 10.0; Win64; x64) AppleWebKit/537.36 (KHTML, like Gecko) Chrome/88.0.4324.146 Safari/537.36","v1","","","","","","","","-20,-10,0,10,20","media/audio/stims/spherical_300cm_s20_c20_cd-full_matched_a10.wav","spherical","20","20","full","matched","10","10","2809"
"echo-presentation","16","258124","0.0-16.0","5f5c2c3e564c56422ca91c12","5fef55e628823a0076ec12ee","601f4479f47e0a46d39974ce","Mozilla/5.0 (Windows NT 10.0; Win64; x64) AppleWebKit/537.36 (KHTML, like Gecko) Chrome/88.0.4324.146 Safari/537.36","v1","","","","","","","","-20,-10,0,10,20","media/audio/stims/spherical_300cm_s20_c20_cd-full_matched_a20.wav","spherical","20","20","full","matched","20","0","2349"
"echo-presentation","17","260344","0.0-17.0","5f5c2c3e564c56422ca91c12","5fef55e628823a0076ec12ee","601f4479f47e0a46d39974ce","Mozilla/5.0 (Windows NT 10.0; Win64; x64) AppleWebKit/537.36 (KHTML, like Gecko) Chrome/88.0.4324.146 Safari/537.36","v1","","","","","","","","-20,-10,0,10,20","media/audio/stims/spherical_300cm_s20_c20_cd-full_matched_a10.wav","spherical","20","20","full","matched","10","0","1254"
"echo-presentation","18","262958","0.0-18.0","5f5c2c3e564c56422ca91c12","5fef55e628823a0076ec12ee","601f4479f47e0a46d39974ce","Mozilla/5.0 (Windows NT 10.0; Win64; x64) AppleWebKit/537.36 (KHTML, like Gecko) Chrome/88.0.4324.146 Safari/537.36","v1","","","","","","","","-20,-10,0,10,20","media/audio/stims/spherical_300cm_s20_c20_cd-full_matched_a10.wav","spherical","20","20","full","matched","10","10","1585"
"echo-presentation","19","265412","0.0-19.0","5f5c2c3e564c56422ca91c12","5fef55e628823a0076ec12ee","601f4479f47e0a46d39974ce","Mozilla/5.0 (Windows NT 10.0; Win64; x64) AppleWebKit/537.36 (KHTML, like Gecko) Chrome/88.0.4324.146 Safari/537.36","v1","","","","","","","","-20,-10,0,10,20","media/audio/stims/spherical_300cm_s20_c20_cd-full_matched_a-10.wav","spherical","20","20","full","matched","-10","0","1530"
"echo-presentation","20","267599","0.0-20.0","5f5c2c3e564c56422ca91c12","5fef55e628823a0076ec12ee","601f4479f47e0a46d39974ce","Mozilla/5.0 (Windows NT 10.0; Win64; x64) AppleWebKit/537.36 (KHTML, like Gecko) Chrome/88.0.4324.146 Safari/537.36","v1","","","","","","","","-20,-10,0,10,20","media/audio/stims/spherical_300cm_s20_c20_cd-full_matched_a-10.wav","spherical","20","20","full","matched","-10","-20","1186"
"echo-presentation","21","270688","0.0-21.0","5f5c2c3e564c56422ca91c12","5fef55e628823a0076ec12ee","601f4479f47e0a46d39974ce","Mozilla/5.0 (Windows NT 10.0; Win64; x64) AppleWebKit/537.36 (KHTML, like Gecko) Chrome/88.0.4324.146 Safari/537.36","v1","","","","","","","","-20,-10,0,10,20","media/audio/stims/spherical_300cm_s20_c20_cd-full_matched_a20.wav","spherical","20","20","full","matched","20","10","1906"
"echo-presentation","22","273096","0.0-22.0","5f5c2c3e564c56422ca91c12","5fef55e628823a0076ec12ee","601f4479f47e0a46d39974ce","Mozilla/5.0 (Windows NT 10.0; Win64; x64) AppleWebKit/537.36 (KHTML, like Gecko) Chrome/88.0.4324.146 Safari/537.36","v1","","","","","","","","-20,-10,0,10,20","media/audio/stims/spherical_300cm_s20_c20_cd-full_matched_a0.wav","spherical","20","20","full","matched","0","0","1289"
"echo-presentation","23","274852","0.0-23.0","5f5c2c3e564c56422ca91c12","5fef55e628823a0076ec12ee","601f4479f47e0a46d39974ce","Mozilla/5.0 (Windows NT 10.0; Win64; x64) AppleWebKit/537.36 (KHTML, like Gecko) Chrome/88.0.4324.146 Safari/537.36","v1","","","","","","","","-20,-10,0,10,20","media/audio/stims/spherical_300cm_s20_c20_cd-full_matched_a-20.wav","spherical","20","20","full","matched","-20","-20","846"
"echo-presentation","24","276954","0.0-24.0","5f5c2c3e564c56422ca91c12","5fef55e628823a0076ec12ee","601f4479f47e0a46d39974ce","Mozilla/5.0 (Windows NT 10.0; Win64; x64) AppleWebKit/537.36 (KHTML, like Gecko) Chrome/88.0.4324.146 Safari/537.36","v1","","","","","","","","-20,-10,0,10,20","media/audio/stims/spherical_300cm_s20_c20_cd-full_matched_a0.wav","spherical","20","20","full","matched","0","-10","1217"
"echo-presentation","25","279237","0.0-25.0","5f5c2c3e564c56422ca91c12","5fef55e628823a0076ec12ee","601f4479f47e0a46d39974ce","Mozilla/5.0 (Windows NT 10.0; Win64; x64) AppleWebKit/537.36 (KHTML, like Gecko) Chrome/88.0.4324.146 Safari/537.36","v1","","","","","","","","-20,-10,0,10,20","media/audio/stims/spherical_300cm_s20_c20_cd-full_matched_a20.wav","spherical","20","20","full","matched","20","0","1478"
"echo-presentation","26","281246","0.0-26.0","5f5c2c3e564c56422ca91c12","5fef55e628823a0076ec12ee","601f4479f47e0a46d39974ce","Mozilla/5.0 (Windows NT 10.0; Win64; x64) AppleWebKit/537.36 (KHTML, like Gecko) Chrome/88.0.4324.146 Safari/537.36","v1","","","","","","","","-20,-10,0,10,20","media/audio/stims/spherical_300cm_s20_c20_cd-full_matched_a10.wav","spherical","20","20","full","matched","10","0","1122"
"echo-presentation","27","283930","0.0-27.0","5f5c2c3e564c56422ca91c12","5fef55e628823a0076ec12ee","601f4479f47e0a46d39974ce","Mozilla/5.0 (Windows NT 10.0; Win64; x64) AppleWebKit/537.36 (KHTML, like Gecko) Chrome/88.0.4324.146 Safari/537.36","v1","","","","","","","","-20,-10,0,10,20","media/audio/stims/spherical_300cm_s20_c20_cd-full_matched_a20.wav","spherical","20","20","full","matched","20","10","1421"
"block-bookend","28","286330","0.0-28.0","5f5c2c3e564c56422ca91c12","5fef55e628823a0076ec12ee","601f4479f47e0a46d39974ce","Mozilla/5.0 (Windows NT 10.0; Win64; x64) AppleWebKit/537.36 (KHTML, like Gecko) Chrome/88.0.4324.146 Safari/537.36","v1","","","","","","","","","","","","","","","","",""
"block-bookend","29","293407","0.0-29.0","5f5c2c3e564c56422ca91c12","5fef55e628823a0076ec12ee","601f4479f47e0a46d39974ce","Mozilla/5.0 (Windows NT 10.0; Win64; x64) AppleWebKit/537.36 (KHTML, like Gecko) Chrome/88.0.4324.146 Safari/537.36","v1","","","","","","","","","","","","","","","","",""
"echo-presentation","30","297055","0.0-30.0","5f5c2c3e564c56422ca91c12","5fef55e628823a0076ec12ee","601f4479f47e0a46d39974ce","Mozilla/5.0 (Windows NT 10.0; Win64; x64) AppleWebKit/537.36 (KHTML, like Gecko) Chrome/88.0.4324.146 Safari/537.36","v1","","","","","","","","-20,-10,0,10,20","media/audio/stims/spherical_300cm_s20_c20_cd-full_matched_a10.wav","spherical","20","20","full","matched","10","10","1753"
"echo-presentation","31","299844","0.0-31.0","5f5c2c3e564c56422ca91c12","5fef55e628823a0076ec12ee","601f4479f47e0a46d39974ce","Mozilla/5.0 (Windows NT 10.0; Win64; x64) AppleWebKit/537.36 (KHTML, like Gecko) Chrome/88.0.4324.146 Safari/537.36","v1","","","","","","","","-20,-10,0,10,20","media/audio/stims/spherical_300cm_s20_c20_cd-full_matched_a20.wav","spherical","20","20","full","matched","20","20","1457"
"echo-presentation","32","301975","0.0-32.0","5f5c2c3e564c56422ca91c12","5fef55e628823a0076ec12ee","601f4479f47e0a46d39974ce","Mozilla/5.0 (Windows NT 10.0; Win64; x64) AppleWebKit/537.36 (KHTML, like Gecko) Chrome/88.0.4324.146 Safari/537.36","v1","","","","","","","","-20,-10,0,10,20","media/audio/stims/spherical_300cm_s20_c20_cd-full_matched_a0.wav","spherical","20","20","full","matched","0","-10","1173"
"echo-presentation","33","303777","0.0-33.0","5f5c2c3e564c56422ca91c12","5fef55e628823a0076ec12ee","601f4479f47e0a46d39974ce","Mozilla/5.0 (Windows NT 10.0; Win64; x64) AppleWebKit/537.36 (KHTML, like Gecko) Chrome/88.0.4324.146 Safari/537.36","v1","","","","","","","","-20,-10,0,10,20","media/audio/stims/spherical_300cm_s20_c20_cd-full_matched_a-20.wav","spherical","20","20","full","matched","-20","-20","957"
"echo-presentation","34","306225","0.0-34.0","5f5c2c3e564c56422ca91c12","5fef55e628823a0076ec12ee","601f4479f47e0a46d39974ce","Mozilla/5.0 (Windows NT 10.0; Win64; x64) AppleWebKit/537.36 (KHTML, like Gecko) Chrome/88.0.4324.146 Safari/537.36","v1","","","","","","","","-20,-10,0,10,20","media/audio/stims/spherical_300cm_s20_c20_cd-full_matched_a20.wav","spherical","20","20","full","matched","20","0","1649"
"echo-presentation","35","308272","0.0-35.0","5f5c2c3e564c56422ca91c12","5fef55e628823a0076ec12ee","601f4479f47e0a46d39974ce","Mozilla/5.0 (Windows NT 10.0; Win64; x64) AppleWebKit/537.36 (KHTML, like Gecko) Chrome/88.0.4324.146 Safari/537.36","v1","","","","","","","","-20,-10,0,10,20","media/audio/stims/spherical_300cm_s20_c20_cd-full_matched_a20.wav","spherical","20","20","full","matched","20","20","1309"
"echo-presentation","36","310569","0.0-36.0","5f5c2c3e564c56422ca91c12","5fef55e628823a0076ec12ee","601f4479f47e0a46d39974ce","Mozilla/5.0 (Windows NT 10.0; Win64; x64) AppleWebKit/537.36 (KHTML, like Gecko) Chrome/88.0.4324.146 Safari/537.36","v1","","","","","","","","-20,-10,0,10,20","media/audio/stims/spherical_300cm_s20_c20_cd-full_matched_a0.wav","spherical","20","20","full","matched","0","0","1314"
"echo-presentation","37","312515","0.0-37.0","5f5c2c3e564c56422ca91c12","5fef55e628823a0076ec12ee","601f4479f47e0a46d39974ce","Mozilla/5.0 (Windows NT 10.0; Win64; x64) AppleWebKit/537.36 (KHTML, like Gecko) Chrome/88.0.4324.146 Safari/537.36","v1","","","","","","","","-20,-10,0,10,20","media/audio/stims/spherical_300cm_s20_c20_cd-full_matched_a-20.wav","spherical","20","20","full","matched","-20","-20","1042"
"echo-presentation","38","314848","0.0-38.0","5f5c2c3e564c56422ca91c12","5fef55e628823a0076ec12ee","601f4479f47e0a46d39974ce","Mozilla/5.0 (Windows NT 10.0; Win64; x64) AppleWebKit/537.36 (KHTML, like Gecko) Chrome/88.0.4324.146 Safari/537.36","v1","","","","","","","","-20,-10,0,10,20","media/audio/stims/spherical_300cm_s20_c20_cd-full_matched_a10.wav","spherical","20","20","full","matched","10","-10","1140"
"echo-presentation","39","316780","0.0-39.0","5f5c2c3e564c56422ca91c12","5fef55e628823a0076ec12ee","601f4479f47e0a46d39974ce","Mozilla/5.0 (Windows NT 10.0; Win64; x64) AppleWebKit/537.36 (KHTML, like Gecko) Chrome/88.0.4324.146 Safari/537.36","v1","","","","","","","","-20,-10,0,10,20","media/audio/stims/spherical_300cm_s20_c20_cd-full_matched_a-10.wav","spherical","20","20","full","matched","-10","-20","1081"
"echo-presentation","40","318749","0.0-40.0","5f5c2c3e564c56422ca91c12","5fef55e628823a0076ec12ee","601f4479f47e0a46d39974ce","Mozilla/5.0 (Windows NT 10.0; Win64; x64) AppleWebKit/537.36 (KHTML, like Gecko) Chrome/88.0.4324.146 Safari/537.36","v1","","","","","","","","-20,-10,0,10,20","media/audio/stims/spherical_300cm_s20_c20_cd-full_matched_a0.wav","spherical","20","20","full","matched","0","-10","1064"
"echo-presentation","41","320786","0.0-41.0","5f5c2c3e564c56422ca91c12","5fef55e628823a0076ec12ee","601f4479f47e0a46d39974ce","Mozilla/5.0 (Windows NT 10.0; Win64; x64) AppleWebKit/537.36 (KHTML, like Gecko) Chrome/88.0.4324.146 Safari/537.36","v1","","","","","","","","-20,-10,0,10,20","media/audio/stims/spherical_300cm_s20_c20_cd-full_matched_a10.wav","spherical","20","20","full","matched","10","0","1062"
"echo-presentation","42","323285","0.0-42.0","5f5c2c3e564c56422ca91c12","5fef55e628823a0076ec12ee","601f4479f47e0a46d39974ce","Mozilla/5.0 (Windows NT 10.0; Win64; x64) AppleWebKit/537.36 (KHTML, like Gecko) Chrome/88.0.4324.146 Safari/537.36","v1","","","","","","","","-20,-10,0,10,20","media/audio/stims/spherical_300cm_s20_c20_cd-full_matched_a-10.wav","spherical","20","20","full","matched","-10","10","1511"
"echo-presentation","43","325399","0.0-43.0","5f5c2c3e564c56422ca91c12","5fef55e628823a0076ec12ee","601f4479f47e0a46d39974ce","Mozilla/5.0 (Windows NT 10.0; Win64; x64) AppleWebKit/537.36 (KHTML, like Gecko) Chrome/88.0.4324.146 Safari/537.36","v1","","","","","","","","-20,-10,0,10,20","media/audio/stims/spherical_300cm_s20_c20_cd-full_matched_a-20.wav","spherical","20","20","full","matched","-20","10","1206"
"echo-presentation","44","327580","0.0-44.0","5f5c2c3e564c56422ca91c12","5fef55e628823a0076ec12ee","601f4479f47e0a46d39974ce","Mozilla/5.0 (Windows NT 10.0; Win64; x64) AppleWebKit/537.36 (KHTML, like Gecko) Chrome/88.0.4324.146 Safari/537.36","v1","","","","","","","","-20,-10,0,10,20","media/audio/stims/spherical_300cm_s20_c20_cd-full_matched_a10.wav","spherical","20","20","full","matched","10","10","1246"
"echo-presentation","45","334976","0.0-45.0","5f5c2c3e564c56422ca91c12","5fef55e628823a0076ec12ee","601f4479f47e0a46d39974ce","Mozilla/5.0 (Windows NT 10.0; Win64; x64) AppleWebKit/537.36 (KHTML, like Gecko) Chrome/88.0.4324.146 Safari/537.36","v1","","","","","","","","-20,-10,0,10,20","media/audio/stims/spherical_300cm_s20_c20_cd-full_matched_a-20.wav","spherical","20","20","full","matched","-20","-20","883"
"echo-presentation","46","337225","0.0-46.0","5f5c2c3e564c56422ca91c12","5fef55e628823a0076ec12ee","601f4479f47e0a46d39974ce","Mozilla/5.0 (Windows NT 10.0; Win64; x64) AppleWebKit/537.36 (KHTML, like Gecko) Chrome/88.0.4324.146 Safari/537.36","v1","","","","","","","","-20,-10,0,10,20","media/audio/stims/spherical_300cm_s20_c20_cd-full_matched_a20.wav","spherical","20","20","full","matched","20","10","1250"
"echo-presentation","47","339207","0.0-47.0","5f5c2c3e564c56422ca91c12","5fef55e628823a0076ec12ee","601f4479f47e0a46d39974ce","Mozilla/5.0 (Windows NT 10.0; Win64; x64) AppleWebKit/537.36 (KHTML, like Gecko) Chrome/88.0.4324.146 Safari/537.36","v1","","","","","","","","-20,-10,0,10,20","media/audio/stims/spherical_300cm_s20_c20_cd-full_matched_a0.wav","spherical","20","20","full","matched","0","10","1204"
"echo-presentation","48","341759","0.0-48.0","5f5c2c3e564c56422ca91c12","5fef55e628823a0076ec12ee","601f4479f47e0a46d39974ce","Mozilla/5.0 (Windows NT 10.0; Win64; x64) AppleWebKit/537.36 (KHTML, like Gecko) Chrome/88.0.4324.146 Safari/537.36","v1","","","","","","","","-20,-10,0,10,20","media/audio/stims/spherical_300cm_s20_c20_cd-full_matched_a-10.wav","spherical","20","20","full","matched","-10","20","1478"
"echo-presentation","49","343685","0.0-49.0","5f5c2c3e564c56422ca91c12","5fef55e628823a0076ec12ee","601f4479f47e0a46d39974ce","Mozilla/5.0 (Windows NT 10.0; Win64; x64) AppleWebKit/537.36 (KHTML, like Gecko) Chrome/88.0.4324.146 Safari/537.36","v1","","","","","","","","-20,-10,0,10,20","media/audio/stims/spherical_300cm_s20_c20_cd-full_matched_a-10.wav","spherical","20","20","full","matched","-10","-20","817"
"block-bookend","50","344626","0.0-50.0","5f5c2c3e564c56422ca91c12","5fef55e628823a0076ec12ee","601f4479f47e0a46d39974ce","Mozilla/5.0 (Windows NT 10.0; Win64; x64) AppleWebKit/537.36 (KHTML, like Gecko) Chrome/88.0.4324.146 Safari/537.36","v1","","","","","","","","","","","","","","","","",""
"block-bookend","51","353458","0.0-51.0","5f5c2c3e564c56422ca91c12","5fef55e628823a0076ec12ee","601f4479f47e0a46d39974ce","Mozilla/5.0 (Windows NT 10.0; Win64; x64) AppleWebKit/537.36 (KHTML, like Gecko) Chrome/88.0.4324.146 Safari/537.36","v1","","","","","","","","","","","","","","","","",""
"echo-presentation","52","356398","0.0-52.0","5f5c2c3e564c56422ca91c12","5fef55e628823a0076ec12ee","601f4479f47e0a46d39974ce","Mozilla/5.0 (Windows NT 10.0; Win64; x64) AppleWebKit/537.36 (KHTML, like Gecko) Chrome/88.0.4324.146 Safari/537.36","v1","","","","","","","","-80,-70,-60,-50,-40","media/audio/stims/spherical_300cm_s20_c20_cd-full_matched_a-70.wav","spherical","20","20","full","matched","-70","-80","1221"
"echo-presentation","53","359991","0.0-53.0","5f5c2c3e564c56422ca91c12","5fef55e628823a0076ec12ee","601f4479f47e0a46d39974ce","Mozilla/5.0 (Windows NT 10.0; Win64; x64) AppleWebKit/537.36 (KHTML, like Gecko) Chrome/88.0.4324.146 Safari/537.36","v1","","","","","","","","-80,-70,-60,-50,-40","media/audio/stims/spherical_300cm_s20_c20_cd-full_matched_a-70.wav","spherical","20","20","full","matched","-70","-80","2754"
"echo-presentation","54","362166","0.0-54.0","5f5c2c3e564c56422ca91c12","5fef55e628823a0076ec12ee","601f4479f47e0a46d39974ce","Mozilla/5.0 (Windows NT 10.0; Win64; x64) AppleWebKit/537.36 (KHTML, like Gecko) Chrome/88.0.4324.146 Safari/537.36","v1","","","","","","","","-80,-70,-60,-50,-40","media/audio/stims/spherical_300cm_s20_c20_cd-full_matched_a-40.wav","spherical","20","20","full","matched","-40","-80","914"
"echo-presentation","55","363749","0.0-55.0","5f5c2c3e564c56422ca91c12","5fef55e628823a0076ec12ee","601f4479f47e0a46d39974ce","Mozilla/5.0 (Windows NT 10.0; Win64; x64) AppleWebKit/537.36 (KHTML, like Gecko) Chrome/88.0.4324.146 Safari/537.36","v1","","","","","","","","-80,-70,-60,-50,-40","media/audio/stims/spherical_300cm_s20_c20_cd-full_matched_a-80.wav","spherical","20","20","full","matched","-80","-80","846"
"echo-presentation","56","365383","0.0-56.0","5f5c2c3e564c56422ca91c12","5fef55e628823a0076ec12ee","601f4479f47e0a46d39974ce","Mozilla/5.0 (Windows NT 10.0; Win64; x64) AppleWebKit/537.36 (KHTML, like Gecko) Chrome/88.0.4324.146 Safari/537.36","v1","","","","","","","","-80,-70,-60,-50,-40","media/audio/stims/spherical_300cm_s20_c20_cd-full_matched_a-80.wav","spherical","20","20","full","matched","-80","-80","892"
"echo-presentation","57","367069","0.0-57.0","5f5c2c3e564c56422ca91c12","5fef55e628823a0076ec12ee","601f4479f47e0a46d39974ce","Mozilla/5.0 (Windows NT 10.0; Win64; x64) AppleWebKit/537.36 (KHTML, like Gecko) Chrome/88.0.4324.146 Safari/537.36","v1","","","","","","","","-80,-70,-60,-50,-40","media/audio/stims/spherical_300cm_s20_c20_cd-full_matched_a-50.wav","spherical","20","20","full","matched","-50","-80","919"
"echo-presentation","58","369219","0.0-58.0","5f5c2c3e564c56422ca91c12","5fef55e628823a0076ec12ee","601f4479f47e0a46d39974ce","Mozilla/5.0 (Windows NT 10.0; Win64; x64) AppleWebKit/537.36 (KHTML, like Gecko) Chrome/88.0.4324.146 Safari/537.36","v1","","","","","","","","-80,-70,-60,-50,-40","media/audio/stims/spherical_300cm_s20_c20_cd-full_matched_a-40.wav","spherical","20","20","full","matched","-40","-80","1074"
"echo-presentation","59","371013","0.0-59.0","5f5c2c3e564c56422ca91c12","5fef55e628823a0076ec12ee","601f4479f47e0a46d39974ce","Mozilla/5.0 (Windows NT 10.0; Win64; x64) AppleWebKit/537.36 (KHTML, like Gecko) Chrome/88.0.4324.146 Safari/537.36","v1","","","","","","","","-80,-70,-60,-50,-40","media/audio/stims/spherical_300cm_s20_c20_cd-full_matched_a-50.wav","spherical","20","20","full","matched","-50","-80","1013"
"echo-presentation","60","373162","0.0-60.0","5f5c2c3e564c56422ca91c12","5fef55e628823a0076ec12ee","601f4479f47e0a46d39974ce","Mozilla/5.0 (Windows NT 10.0; Win64; x64) AppleWebKit/537.36 (KHTML, like Gecko) Chrome/88.0.4324.146 Safari/537.36","v1","","","","","","","","-80,-70,-60,-50,-40","media/audio/stims/spherical_300cm_s20_c20_cd-full_matched_a-40.wav","spherical","20","20","full","matched","-40","-80","1066"
"echo-presentation","61","375079","0.0-61.0","5f5c2c3e564c56422ca91c12","5fef55e628823a0076ec12ee","601f4479f47e0a46d39974ce","Mozilla/5.0 (Windows NT 10.0; Win64; x64) AppleWebKit/537.36 (KHTML, like Gecko) Chrome/88.0.4324.146 Safari/537.36","v1","","","","","","","","-80,-70,-60,-50,-40","media/audio/stims/spherical_300cm_s20_c20_cd-full_matched_a-80.wav","spherical","20","20","full","matched","-80","-80","1173"
"echo-presentation","62","376804","0.0-62.0","5f5c2c3e564c56422ca91c12","5fef55e628823a0076ec12ee","601f4479f47e0a46d39974ce","Mozilla/5.0 (Windows NT 10.0; Win64; x64) AppleWebKit/537.36 (KHTML, like Gecko) Chrome/88.0.4324.146 Safari/537.36","v1","","","","","","","","-80,-70,-60,-50,-40","media/audio/stims/spherical_300cm_s20_c20_cd-full_matched_a-50.wav","spherical","20","20","full","matched","-50","-70","1078"
"echo-presentation","63","378854","0.0-63.0","5f5c2c3e564c56422ca91c12","5fef55e628823a0076ec12ee","601f4479f47e0a46d39974ce","Mozilla/5.0 (Windows NT 10.0; Win64; x64) AppleWebKit/537.36 (KHTML, like Gecko) Chrome/88.0.4324.146 Safari/537.36","v1","","","","","","","","-80,-70,-60,-50,-40","media/audio/stims/spherical_300cm_s20_c20_cd-full_matched_a-60.wav","spherical","20","20","full","matched","-60","-80","1227"
"echo-presentation","64","380866","0.0-64.0","5f5c2c3e564c56422ca91c12","5fef55e628823a0076ec12ee","601f4479f47e0a46d39974ce","Mozilla/5.0 (Windows NT 10.0; Win64; x64) AppleWebKit/537.36 (KHTML, like Gecko) Chrome/88.0.4324.146 Safari/537.36","v1","","","","","","","","-80,-70,-60,-50,-40","media/audio/stims/spherical_300cm_s20_c20_cd-full_matched_a-60.wav","spherical","20","20","full","matched","-60","-80","961"
"echo-presentation","65","383228","0.0-65.0","5f5c2c3e564c56422ca91c12","5fef55e628823a0076ec12ee","601f4479f47e0a46d39974ce","Mozilla/5.0 (Windows NT 10.0; Win64; x64) AppleWebKit/537.36 (KHTML, like Gecko) Chrome/88.0.4324.146 Safari/537.36","v1","","","","","","","","-80,-70,-60,-50,-40","media/audio/stims/spherical_300cm_s20_c20_cd-full_matched_a-70.wav","spherical","20","20","full","matched","-70","-80","1265"
"echo-presentation","66","385667","0.0-66.0","5f5c2c3e564c56422ca91c12","5fef55e628823a0076ec12ee","601f4479f47e0a46d39974ce","Mozilla/5.0 (Windows NT 10.0; Win64; x64) AppleWebKit/537.36 (KHTML, like Gecko) Chrome/88.0.4324.146 Safari/537.36","v1","","","","","","","","-80,-70,-60,-50,-40","media/audio/stims/spherical_300cm_s20_c20_cd-full_matched_a-60.wav","spherical","20","20","full","matched","-60","-70","1405"
"echo-presentation","67","387793","0.0-67.0","5f5c2c3e564c56422ca91c12","5fef55e628823a0076ec12ee","601f4479f47e0a46d39974ce","Mozilla/5.0 (Windows NT 10.0; Win64; x64) AppleWebKit/537.36 (KHTML, like Gecko) Chrome/88.0.4324.146 Safari/537.36","v1","","","","","","","","-80,-70,-60,-50,-40","media/audio/stims/spherical_300cm_s20_c20_cd-full_matched_a-80.wav","spherical","20","20","full","matched","-80","-80","1378"
"echo-presentation","68","402947","0.0-68.0","5f5c2c3e564c56422ca91c12","5fef55e628823a0076ec12ee","601f4479f47e0a46d39974ce","Mozilla/5.0 (Windows NT 10.0; Win64; x64) AppleWebKit/537.36 (KHTML, like Gecko) Chrome/88.0.4324.146 Safari/537.36","v1","","","","","","","","-80,-70,-60,-50,-40","media/audio/stims/spherical_300cm_s20_c20_cd-full_matched_a-50.wav","spherical","20","20","full","matched","-50","-80","930"
"echo-presentation","69","405732","0.0-69.0","5f5c2c3e564c56422ca91c12","5fef55e628823a0076ec12ee","601f4479f47e0a46d39974ce","Mozilla/5.0 (Windows NT 10.0; Win64; x64) AppleWebKit/537.36 (KHTML, like Gecko) Chrome/88.0.4324.146 Safari/537.36","v1","","","","","","","","-80,-70,-60,-50,-40","media/audio/stims/spherical_300cm_s20_c20_cd-full_matched_a-60.wav","spherical","20","20","full","matched","-60","-80","1717"
"echo-presentation","70","408155","0.0-70.0","5f5c2c3e564c56422ca91c12","5fef55e628823a0076ec12ee","601f4479f47e0a46d39974ce","Mozilla/5.0 (Windows NT 10.0; Win64; x64) AppleWebKit/537.36 (KHTML, like Gecko) Chrome/88.0.4324.146 Safari/537.36","v1","","","","","","","","-80,-70,-60,-50,-40","media/audio/stims/spherical_300cm_s20_c20_cd-full_matched_a-70.wav","spherical","20","20","full","matched","-70","-70","1550"
"echo-presentation","71","410648","0.0-71.0","5f5c2c3e564c56422ca91c12","5fef55e628823a0076ec12ee","601f4479f47e0a46d39974ce","Mozilla/5.0 (Windows NT 10.0; Win64; x64) AppleWebKit/537.36 (KHTML, like Gecko) Chrome/88.0.4324.146 Safari/537.36","v1","","","","","","","","-80,-70,-60,-50,-40","media/audio/stims/spherical_300cm_s20_c20_cd-full_matched_a-40.wav","spherical","20","20","full","matched","-40","-80","1278"
"block-bookend","72","411439","0.0-72.0","5f5c2c3e564c56422ca91c12","5fef55e628823a0076ec12ee","601f4479f47e0a46d39974ce","Mozilla/5.0 (Windows NT 10.0; Win64; x64) AppleWebKit/537.36 (KHTML, like Gecko) Chrome/88.0.4324.146 Safari/537.36","v1","","","","","","","","","","","","","","","","",""
"block-bookend","73","417650","0.0-73.0","5f5c2c3e564c56422ca91c12","5fef55e628823a0076ec12ee","601f4479f47e0a46d39974ce","Mozilla/5.0 (Windows NT 10.0; Win64; x64) AppleWebKit/537.36 (KHTML, like Gecko) Chrome/88.0.4324.146 Safari/537.36","v1","","","","","","","","","","","","","","","","",""
"echo-presentation","74","420009","0.0-74.0","5f5c2c3e564c56422ca91c12","5fef55e628823a0076ec12ee","601f4479f47e0a46d39974ce","Mozilla/5.0 (Windows NT 10.0; Win64; x64) AppleWebKit/537.36 (KHTML, like Gecko) Chrome/88.0.4324.146 Safari/537.36","v1","","","","","","","","-80,-70,-60,-50,-40","media/audio/stims/spherical_300cm_s20_c20_cd-full_matched_a-80.wav","spherical","20","20","full","matched","-80","-60","781"
"echo-presentation","75","421435","0.0-75.0","5f5c2c3e564c56422ca91c12","5fef55e628823a0076ec12ee","601f4479f47e0a46d39974ce","Mozilla/5.0 (Windows NT 10.0; Win64; x64) AppleWebKit/537.36 (KHTML, like Gecko) Chrome/88.0.4324.146 Safari/537.36","v1","","","","","","","","-80,-70,-60,-50,-40","media/audio/stims/spherical_300cm_s20_c20_cd-full_matched_a-70.wav","spherical","20","20","full","matched","-70","-60","614"
"echo-presentation","76","423089","0.0-76.0","5f5c2c3e564c56422ca91c12","5fef55e628823a0076ec12ee","601f4479f47e0a46d39974ce","Mozilla/5.0 (Windows NT 10.0; Win64; x64) AppleWebKit/537.36 (KHTML, like Gecko) Chrome/88.0.4324.146 Safari/537.36","v1","","","","","","","","-80,-70,-60,-50,-40","media/audio/stims/spherical_300cm_s20_c20_cd-full_matched_a-70.wav","spherical","20","20","full","matched","-70","-60","806"
"echo-presentation","77","425635","0.0-77.0","5f5c2c3e564c56422ca91c12","5fef55e628823a0076ec12ee","601f4479f47e0a46d39974ce","Mozilla/5.0 (Windows NT 10.0; Win64; x64) AppleWebKit/537.36 (KHTML, like Gecko) Chrome/88.0.4324.146 Safari/537.36","v1","","","","","","","","-80,-70,-60,-50,-40","media/audio/stims/spherical_300cm_s20_c20_cd-full_matched_a-60.wav","spherical","20","20","full","matched","-60","-70","1586"
"echo-presentation","78","427462","0.0-78.0","5f5c2c3e564c56422ca91c12","5fef55e628823a0076ec12ee","601f4479f47e0a46d39974ce","Mozilla/5.0 (Windows NT 10.0; Win64; x64) AppleWebKit/537.36 (KHTML, like Gecko) Chrome/88.0.4324.146 Safari/537.36","v1","","","","","","","","-80,-70,-60,-50,-40","media/audio/stims/spherical_300cm_s20_c20_cd-full_matched_a-70.wav","spherical","20","20","full","matched","-70","-70","1073"
"echo-presentation","79","428970","0.0-79.0","5f5c2c3e564c56422ca91c12","5fef55e628823a0076ec12ee","601f4479f47e0a46d39974ce","Mozilla/5.0 (Windows NT 10.0; Win64; x64) AppleWebKit/537.36 (KHTML, like Gecko) Chrome/88.0.4324.146 Safari/537.36","v1","","","","","","","","-80,-70,-60,-50,-40","media/audio/stims/spherical_300cm_s20_c20_cd-full_matched_a-70.wav","spherical","20","20","full","matched","-70","-60","866"
"echo-presentation","80","431107","0.0-80.0","5f5c2c3e564c56422ca91c12","5fef55e628823a0076ec12ee","601f4479f47e0a46d39974ce","Mozilla/5.0 (Windows NT 10.0; Win64; x64) AppleWebKit/537.36 (KHTML, like Gecko) Chrome/88.0.4324.146 Safari/537.36","v1","","","","","","","","-80,-70,-60,-50,-40","media/audio/stims/spherical_300cm_s20_c20_cd-full_matched_a-80.wav","spherical","20","20","full","matched","-80","-80","1154"
"echo-presentation","81","432636","0.0-81.0","5f5c2c3e564c56422ca91c12","5fef55e628823a0076ec12ee","601f4479f47e0a46d39974ce","Mozilla/5.0 (Windows NT 10.0; Win64; x64) AppleWebKit/537.36 (KHTML, like Gecko) Chrome/88.0.4324.146 Safari/537.36","v1","","","","","","","","-80,-70,-60,-50,-40","media/audio/stims/spherical_300cm_s20_c20_cd-full_matched_a-80.wav","spherical","20","20","full","matched","-80","-80","770"
"echo-presentation","82","434244","0.0-82.0","5f5c2c3e564c56422ca91c12","5fef55e628823a0076ec12ee","601f4479f47e0a46d39974ce","Mozilla/5.0 (Windows NT 10.0; Win64; x64) AppleWebKit/537.36 (KHTML, like Gecko) Chrome/88.0.4324.146 Safari/537.36","v1","","","","","","","","-80,-70,-60,-50,-40","media/audio/stims/spherical_300cm_s20_c20_cd-full_matched_a-50.wav","spherical","20","20","full","matched","-50","-80","850"
"echo-presentation","83","436194","0.0-83.0","5f5c2c3e564c56422ca91c12","5fef55e628823a0076ec12ee","601f4479f47e0a46d39974ce","Mozilla/5.0 (Windows NT 10.0; Win64; x64) AppleWebKit/537.36 (KHTML, like Gecko) Chrome/88.0.4324.146 Safari/537.36","v1","","","","","","","","-80,-70,-60,-50,-40","media/audio/stims/spherical_300cm_s20_c20_cd-full_matched_a-40.wav","spherical","20","20","full","matched","-40","-70","1118"
"echo-presentation","84","437967","0.0-84.0","5f5c2c3e564c56422ca91c12","5fef55e628823a0076ec12ee","601f4479f47e0a46d39974ce","Mozilla/5.0 (Windows NT 10.0; Win64; x64) AppleWebKit/537.36 (KHTML, like Gecko) Chrome/88.0.4324.146 Safari/537.36","v1","","","","","","","","-80,-70,-60,-50,-40","media/audio/stims/spherical_300cm_s20_c20_cd-full_matched_a-50.wav","spherical","20","20","full","matched","-50","-60","958"
"echo-presentation","85","439649","0.0-85.0","5f5c2c3e564c56422ca91c12","5fef55e628823a0076ec12ee","601f4479f47e0a46d39974ce","Mozilla/5.0 (Windows NT 10.0; Win64; x64) AppleWebKit/537.36 (KHTML, like Gecko) Chrome/88.0.4324.146 Safari/537.36","v1","","","","","","","","-80,-70,-60,-50,-40","media/audio/stims/spherical_300cm_s20_c20_cd-full_matched_a-50.wav","spherical","20","20","full","matched","-50","-50","897"
"echo-presentation","86","441418","0.0-86.0","5f5c2c3e564c56422ca91c12","5fef55e628823a0076ec12ee","601f4479f47e0a46d39974ce","Mozilla/5.0 (Windows NT 10.0; Win64; x64) AppleWebKit/537.36 (KHTML, like Gecko) Chrome/88.0.4324.146 Safari/537.36","v1","","","","","","","","-80,-70,-60,-50,-40","media/audio/stims/spherical_300cm_s20_c20_cd-full_matched_a-60.wav","spherical","20","20","full","matched","-60","-80","1049"
"echo-presentation","87","443132","0.0-87.0","5f5c2c3e564c56422ca91c12","5fef55e628823a0076ec12ee","601f4479f47e0a46d39974ce","Mozilla/5.0 (Windows NT 10.0; Win64; x64) AppleWebKit/537.36 (KHTML, like Gecko) Chrome/88.0.4324.146 Safari/537.36","v1","","","","","","","","-80,-70,-60,-50,-40","media/audio/stims/spherical_300cm_s20_c20_cd-full_matched_a-50.wav","spherical","20","20","full","matched","-50","-80","1058"
"echo-presentation","88","444689","0.0-88.0","5f5c2c3e564c56422ca91c12","5fef55e628823a0076ec12ee","601f4479f47e0a46d39974ce","Mozilla/5.0 (Windows NT 10.0; Win64; x64) AppleWebKit/537.36 (KHTML, like Gecko) Chrome/88.0.4324.146 Safari/537.36","v1","","","","","","","","-80,-70,-60,-50,-40","media/audio/stims/spherical_300cm_s20_c20_cd-full_matched_a-60.wav","spherical","20","20","full","matched","-60","-70","822"
"echo-presentation","89","446209","0.0-89.0","5f5c2c3e564c56422ca91c12","5fef55e628823a0076ec12ee","601f4479f47e0a46d39974ce","Mozilla/5.0 (Windows NT 10.0; Win64; x64) AppleWebKit/537.36 (KHTML, like Gecko) Chrome/88.0.4324.146 Safari/537.36","v1","","","","","","","","-80,-70,-60,-50,-40","media/audio/stims/spherical_300cm_s20_c20_cd-full_matched_a-40.wav","spherical","20","20","full","matched","-40","-80","778"
"echo-presentation","90","447699","0.0-90.0","5f5c2c3e564c56422ca91c12","5fef55e628823a0076ec12ee","601f4479f47e0a46d39974ce","Mozilla/5.0 (Windows NT 10.0; Win64; x64) AppleWebKit/537.36 (KHTML, like Gecko) Chrome/88.0.4324.146 Safari/537.36","v1","","","","","","","","-80,-70,-60,-50,-40","media/audio/stims/spherical_300cm_s20_c20_cd-full_matched_a-40.wav","spherical","20","20","full","matched","-40","-70","737"
"echo-presentation","91","449213","0.0-91.0","5f5c2c3e564c56422ca91c12","5fef55e628823a0076ec12ee","601f4479f47e0a46d39974ce","Mozilla/5.0 (Windows NT 10.0; Win64; x64) AppleWebKit/537.36 (KHTML, like Gecko) Chrome/88.0.4324.146 Safari/537.36","v1","","","","","","","","-80,-70,-60,-50,-40","media/audio/stims/spherical_300cm_s20_c20_cd-full_matched_a-80.wav","spherical","20","20","full","matched","-80","-80","758"
"echo-presentation","92","450769","0.0-92.0","5f5c2c3e564c56422ca91c12","5fef55e628823a0076ec12ee","601f4479f47e0a46d39974ce","Mozilla/5.0 (Windows NT 10.0; Win64; x64) AppleWebKit/537.36 (KHTML, like Gecko) Chrome/88.0.4324.146 Safari/537.36","v1","","","","","","","","-80,-70,-60,-50,-40","media/audio/stims/spherical_300cm_s20_c20_cd-full_matched_a-60.wav","spherical","20","20","full","matched","-60","-70","779"
"echo-presentation","93","452297","0.0-93.0","5f5c2c3e564c56422ca91c12","5fef55e628823a0076ec12ee","601f4479f47e0a46d39974ce","Mozilla/5.0 (Windows NT 10.0; Win64; x64) AppleWebKit/537.36 (KHTML, like Gecko) Chrome/88.0.4324.146 Safari/537.36","v1","","","","","","","","-80,-70,-60,-50,-40","media/audio/stims/spherical_300cm_s20_c20_cd-full_matched_a-40.wav","spherical","20","20","full","matched","-40","-80","686"
"block-bookend","94","453726","0.0-94.0","5f5c2c3e564c56422ca91c12","5fef55e628823a0076ec12ee","601f4479f47e0a46d39974ce","Mozilla/5.0 (Windows NT 10.0; Win64; x64) AppleWebKit/537.36 (KHTML, like Gecko) Chrome/88.0.4324.146 Safari/537.36","v1","","","","","","","","","","","","","","","","",""
"block-bookend","95","473154","0.0-95.0","5f5c2c3e564c56422ca91c12","5fef55e628823a0076ec12ee","601f4479f47e0a46d39974ce","Mozilla/5.0 (Windows NT 10.0; Win64; x64) AppleWebKit/537.36 (KHTML, like Gecko) Chrome/88.0.4324.146 Safari/537.36","v1","","","","","","","","","","","","","","","","",""
"echo-presentation","96","475875","0.0-96.0","5f5c2c3e564c56422ca91c12","5fef55e628823a0076ec12ee","601f4479f47e0a46d39974ce","Mozilla/5.0 (Windows NT 10.0; Win64; x64) AppleWebKit/537.36 (KHTML, like Gecko) Chrome/88.0.4324.146 Safari/537.36","v1","","","","","","","","40,50,60,70,80","media/audio/stims/spherical_300cm_s20_c20_cd-full_matched_a40.wav","spherical","20","20","full","matched","40","70","1549"
"echo-presentation","97","477843","0.0-97.0","5f5c2c3e564c56422ca91c12","5fef55e628823a0076ec12ee","601f4479f47e0a46d39974ce","Mozilla/5.0 (Windows NT 10.0; Win64; x64) AppleWebKit/537.36 (KHTML, like Gecko) Chrome/88.0.4324.146 Safari/537.36","v1","","","","","","","","40,50,60,70,80","media/audio/stims/spherical_300cm_s20_c20_cd-full_matched_a70.wav","spherical","20","20","full","matched","70","70","1038"
"echo-presentation","98","479734","0.0-98.0","5f5c2c3e564c56422ca91c12","5fef55e628823a0076ec12ee","601f4479f47e0a46d39974ce","Mozilla/5.0 (Windows NT 10.0; Win64; x64) AppleWebKit/537.36 (KHTML, like Gecko) Chrome/88.0.4324.146 Safari/537.36","v1","","","","","","","","40,50,60,70,80","media/audio/stims/spherical_300cm_s20_c20_cd-full_matched_a70.wav","spherical","20","20","full","matched","70","60","1018"
"echo-presentation","99","481646","0.0-99.0","5f5c2c3e564c56422ca91c12","5fef55e628823a0076ec12ee","601f4479f47e0a46d39974ce","Mozilla/5.0 (Windows NT 10.0; Win64; x64) AppleWebKit/537.36 (KHTML, like Gecko) Chrome/88.0.4324.146 Safari/537.36","v1","","","","","","","","40,50,60,70,80","media/audio/stims/spherical_300cm_s20_c20_cd-full_matched_a80.wav","spherical","20","20","full","matched","80","50","1218"
"echo-presentation","100","483312","0.0-100.0","5f5c2c3e564c56422ca91c12","5fef55e628823a0076ec12ee","601f4479f47e0a46d39974ce","Mozilla/5.0 (Windows NT 10.0; Win64; x64) AppleWebKit/537.36 (KHTML, like Gecko) Chrome/88.0.4324.146 Safari/537.36","v1","","","","","","","","40,50,60,70,80","media/audio/stims/spherical_300cm_s20_c20_cd-full_matched_a50.wav","spherical","20","20","full","matched","50","70","1074"
"echo-presentation","101","484795","0.0-101.0","5f5c2c3e564c56422ca91c12","5fef55e628823a0076ec12ee","601f4479f47e0a46d39974ce","Mozilla/5.0 (Windows NT 10.0; Win64; x64) AppleWebKit/537.36 (KHTML, like Gecko) Chrome/88.0.4324.146 Safari/537.36","v1","","","","","","","","40,50,60,70,80","media/audio/stims/spherical_300cm_s20_c20_cd-full_matched_a50.wav","spherical","20","20","full","matched","50","60","750"
"echo-presentation","102","486060","0.0-102.0","5f5c2c3e564c56422ca91c12","5fef55e628823a0076ec12ee","601f4479f47e0a46d39974ce","Mozilla/5.0 (Windows NT 10.0; Win64; x64) AppleWebKit/537.36 (KHTML, like Gecko) Chrome/88.0.4324.146 Safari/537.36","v1","","","","","","","","40,50,60,70,80","media/audio/stims/spherical_300cm_s20_c20_cd-full_matched_a60.wav","spherical","20","20","full","matched","60","70","610"
"echo-presentation","103","487593","0.0-103.0","5f5c2c3e564c56422ca91c12","5fef55e628823a0076ec12ee","601f4479f47e0a46d39974ce","Mozilla/5.0 (Windows NT 10.0; Win64; x64) AppleWebKit/537.36 (KHTML, like Gecko) Chrome/88.0.4324.146 Safari/537.36","v1","","","","","","","","40,50,60,70,80","media/audio/stims/spherical_300cm_s20_c20_cd-full_matched_a80.wav","spherical","20","20","full","matched","80","80","770"
"echo-presentation","104","488843","0.0-104.0","5f5c2c3e564c56422ca91c12","5fef55e628823a0076ec12ee","601f4479f47e0a46d39974ce","Mozilla/5.0 (Windows NT 10.0; Win64; x64) AppleWebKit/537.36 (KHTML, like Gecko) Chrome/88.0.4324.146 Safari/537.36","v1","","","","","","","","40,50,60,70,80","media/audio/stims/spherical_300cm_s20_c20_cd-full_matched_a70.wav","spherical","20","20","full","matched","70","50","711"
"echo-presentation","105","490851","0.0-105.0","5f5c2c3e564c56422ca91c12","5fef55e628823a0076ec12ee","601f4479f47e0a46d39974ce","Mozilla/5.0 (Windows NT 10.0; Win64; x64) AppleWebKit/537.36 (KHTML, like Gecko) Chrome/88.0.4324.146 Safari/537.36","v1","","","","","","","","40,50,60,70,80","media/audio/stims/spherical_300cm_s20_c20_cd-full_matched_a60.wav","spherical","20","20","full","matched","60","80","1338"
"echo-presentation","106","493323","0.0-106.0","5f5c2c3e564c56422ca91c12","5fef55e628823a0076ec12ee","601f4479f47e0a46d39974ce","Mozilla/5.0 (Windows NT 10.0; Win64; x64) AppleWebKit/537.36 (KHTML, like Gecko) Chrome/88.0.4324.146 Safari/537.36","v1","","","","","","","","40,50,60,70,80","media/audio/stims/spherical_300cm_s20_c20_cd-full_matched_a50.wav","spherical","20","20","full","matched","50","70","821"
"echo-presentation","107","494894","0.0-107.0","5f5c2c3e564c56422ca91c12","5fef55e628823a0076ec12ee","601f4479f47e0a46d39974ce","Mozilla/5.0 (Windows NT 10.0; Win64; x64) AppleWebKit/537.36 (KHTML, like Gecko) Chrome/88.0.4324.146 Safari/537.36","v1","","","","","","","","40,50,60,70,80","media/audio/stims/spherical_300cm_s20_c20_cd-full_matched_a40.wav","spherical","20","20","full","matched","40","80","794"
"echo-presentation","108","496412","0.0-108.0","5f5c2c3e564c56422ca91c12","5fef55e628823a0076ec12ee","601f4479f47e0a46d39974ce","Mozilla/5.0 (Windows NT 10.0; Win64; x64) AppleWebKit/537.36 (KHTML, like Gecko) Chrome/88.0.4324.146 Safari/537.36","v1","","","","","","","","40,50,60,70,80","media/audio/stims/spherical_300cm_s20_c20_cd-full_matched_a80.wav","spherical","20","20","full","matched","80","50","717"
"echo-presentation","109","497972","0.0-109.0","5f5c2c3e564c56422ca91c12","5fef55e628823a0076ec12ee","601f4479f47e0a46d39974ce","Mozilla/5.0 (Windows NT 10.0; Win64; x64) AppleWebKit/537.36 (KHTML, like Gecko) Chrome/88.0.4324.146 Safari/537.36","v1","","","","","","","","40,50,60,70,80","media/audio/stims/spherical_300cm_s20_c20_cd-full_matched_a70.wav","spherical","20","20","full","matched","70","60","786"
"echo-presentation","110","499596","0.0-110.0","5f5c2c3e564c56422ca91c12","5fef55e628823a0076ec12ee","601f4479f47e0a46d39974ce","Mozilla/5.0 (Windows NT 10.0; Win64; x64) AppleWebKit/537.36 (KHTML, like Gecko) Chrome/88.0.4324.146 Safari/537.36","v1","","","","","","","","40,50,60,70,80","media/audio/stims/spherical_300cm_s20_c20_cd-full_matched_a50.wav","spherical","20","20","full","matched","50","70","758"
"echo-presentation","111","501152","0.0-111.0","5f5c2c3e564c56422ca91c12","5fef55e628823a0076ec12ee","601f4479f47e0a46d39974ce","Mozilla/5.0 (Windows NT 10.0; Win64; x64) AppleWebKit/537.36 (KHTML, like Gecko) Chrome/88.0.4324.146 Safari/537.36","v1","","","","","","","","40,50,60,70,80","media/audio/stims/spherical_300cm_s20_c20_cd-full_matched_a60.wav","spherical","20","20","full","matched","60","80","773"
"echo-presentation","112","502589","0.0-112.0","5f5c2c3e564c56422ca91c12","5fef55e628823a0076ec12ee","601f4479f47e0a46d39974ce","Mozilla/5.0 (Windows NT 10.0; Win64; x64) AppleWebKit/537.36 (KHTML, like Gecko) Chrome/88.0.4324.146 Safari/537.36","v1","","","","","","","","40,50,60,70,80","media/audio/stims/spherical_300cm_s20_c20_cd-full_matched_a40.wav","spherical","20","20","full","matched","40","70","642"
"echo-presentation","113","504084","0.0-113.0","5f5c2c3e564c56422ca91c12","5fef55e628823a0076ec12ee","601f4479f47e0a46d39974ce","Mozilla/5.0 (Windows NT 10.0; Win64; x64) AppleWebKit/537.36 (KHTML, like Gecko) Chrome/88.0.4324.146 Safari/537.36","v1","","","","","","","","40,50,60,70,80","media/audio/stims/spherical_300cm_s20_c20_cd-full_matched_a60.wav","spherical","20","20","full","matched","60","80","641"
"echo-presentation","114","505834","0.0-114.0","5f5c2c3e564c56422ca91c12","5fef55e628823a0076ec12ee","601f4479f47e0a46d39974ce","Mozilla/5.0 (Windows NT 10.0; Win64; x64) AppleWebKit/537.36 (KHTML, like Gecko) Chrome/88.0.4324.146 Safari/537.36","v1","","","","","","","","40,50,60,70,80","media/audio/stims/spherical_300cm_s20_c20_cd-full_matched_a80.wav","spherical","20","20","full","matched","80","80","810"
"echo-presentation","115","507717","0.0-115.0","5f5c2c3e564c56422ca91c12","5fef55e628823a0076ec12ee","601f4479f47e0a46d39974ce","Mozilla/5.0 (Windows NT 10.0; Win64; x64) AppleWebKit/537.36 (KHTML, like Gecko) Chrome/88.0.4324.146 Safari/537.36","v1","","","","","","","","40,50,60,70,80","media/audio/stims/spherical_300cm_s20_c20_cd-full_matched_a40.wav","spherical","20","20","full","matched","40","60","842"
"block-bookend","116","508702","0.0-116.0","5f5c2c3e564c56422ca91c12","5fef55e628823a0076ec12ee","601f4479f47e0a46d39974ce","Mozilla/5.0 (Windows NT 10.0; Win64; x64) AppleWebKit/537.36 (KHTML, like Gecko) Chrome/88.0.4324.146 Safari/537.36","v1","","","","","","","","","","","","","","","","",""
"block-bookend","117","513893","0.0-117.0","5f5c2c3e564c56422ca91c12","5fef55e628823a0076ec12ee","601f4479f47e0a46d39974ce","Mozilla/5.0 (Windows NT 10.0; Win64; x64) AppleWebKit/537.36 (KHTML, like Gecko) Chrome/88.0.4324.146 Safari/537.36","v1","","","","","","","","","","","","","","","","",""
"echo-presentation","118","516488","0.0-118.0","5f5c2c3e564c56422ca91c12","5fef55e628823a0076ec12ee","601f4479f47e0a46d39974ce","Mozilla/5.0 (Windows NT 10.0; Win64; x64) AppleWebKit/537.36 (KHTML, like Gecko) Chrome/88.0.4324.146 Safari/537.36","v1","","","","","","","","40,50,60,70,80","media/audio/stims/spherical_300cm_s20_c20_cd-full_matched_a70.wav","spherical","20","20","full","matched","70","70","1178"
"echo-presentation","119","517985","0.0-119.0","5f5c2c3e564c56422ca91c12","5fef55e628823a0076ec12ee","601f4479f47e0a46d39974ce","Mozilla/5.0 (Windows NT 10.0; Win64; x64) AppleWebKit/537.36 (KHTML, like Gecko) Chrome/88.0.4324.146 Safari/537.36","v1","","","","","","","","40,50,60,70,80","media/audio/stims/spherical_300cm_s20_c20_cd-full_matched_a70.wav","spherical","20","20","full","matched","70","60","939"
"echo-presentation","120","519373","0.0-120.0","5f5c2c3e564c56422ca91c12","5fef55e628823a0076ec12ee","601f4479f47e0a46d39974ce","Mozilla/5.0 (Windows NT 10.0; Win64; x64) AppleWebKit/537.36 (KHTML, like Gecko) Chrome/88.0.4324.146 Safari/537.36","v1","","","","","","","","40,50,60,70,80","media/audio/stims/spherical_300cm_s20_c20_cd-full_matched_a60.wav","spherical","20","20","full","matched","60","50","645"
"echo-presentation","121","521288","0.0-121.0","5f5c2c3e564c56422ca91c12","5fef55e628823a0076ec12ee","601f4479f47e0a46d39974ce","Mozilla/5.0 (Windows NT 10.0; Win64; x64) AppleWebKit/537.36 (KHTML, like Gecko) Chrome/88.0.4324.146 Safari/537.36","v1","","","","","","","","40,50,60,70,80","media/audio/stims/spherical_300cm_s20_c20_cd-full_matched_a40.wav","spherical","20","20","full","matched","40","70","995"
"echo-presentation","122","522928","0.0-122.0","5f5c2c3e564c56422ca91c12","5fef55e628823a0076ec12ee","601f4479f47e0a46d39974ce","Mozilla/5.0 (Windows NT 10.0; Win64; x64) AppleWebKit/537.36 (KHTML, like Gecko) Chrome/88.0.4324.146 Safari/537.36","v1","","","","","","","","40,50,60,70,80","media/audio/stims/spherical_300cm_s20_c20_cd-full_matched_a50.wav","spherical","20","20","full","matched","50","80","937"
"echo-presentation","123","524691","0.0-123.0","5f5c2c3e564c56422ca91c12","5fef55e628823a0076ec12ee","601f4479f47e0a46d39974ce","Mozilla/5.0 (Windows NT 10.0; Win64; x64) AppleWebKit/537.36 (KHTML, like Gecko) Chrome/88.0.4324.146 Safari/537.36","v1","","","","","","","","40,50,60,70,80","media/audio/stims/spherical_300cm_s20_c20_cd-full_matched_a40.wav","spherical","20","20","full","matched","40","70","998"
"echo-presentation","124","526208","0.0-124.0","5f5c2c3e564c56422ca91c12","5fef55e628823a0076ec12ee","601f4479f47e0a46d39974ce","Mozilla/5.0 (Windows NT 10.0; Win64; x64) AppleWebKit/537.36 (KHTML, like Gecko) Chrome/88.0.4324.146 Safari/537.36","v1","","","","","","","","40,50,60,70,80","media/audio/stims/spherical_300cm_s20_c20_cd-full_matched_a70.wav","spherical","20","20","full","matched","70","70","894"
"echo-presentation","125","527995","0.0-125.0","5f5c2c3e564c56422ca91c12","5fef55e628823a0076ec12ee","601f4479f47e0a46d39974ce","Mozilla/5.0 (Windows NT 10.0; Win64; x64) AppleWebKit/537.36 (KHTML, like Gecko) Chrome/88.0.4324.146 Safari/537.36","v1","","","","","","","","40,50,60,70,80","media/audio/stims/spherical_300cm_s20_c20_cd-full_matched_a60.wav","spherical","20","20","full","matched","60","70","949"
"echo-presentation","126","529587","0.0-126.0","5f5c2c3e564c56422ca91c12","5fef55e628823a0076ec12ee","601f4479f47e0a46d39974ce","Mozilla/5.0 (Windows NT 10.0; Win64; x64) AppleWebKit/537.36 (KHTML, like Gecko) Chrome/88.0.4324.146 Safari/537.36","v1","","","","","","","","40,50,60,70,80","media/audio/stims/spherical_300cm_s20_c20_cd-full_matched_a60.wav","spherical","20","20","full","matched","60","70","954"
"echo-presentation","127","532195","0.0-127.0","5f5c2c3e564c56422ca91c12","5fef55e628823a0076ec12ee","601f4479f47e0a46d39974ce","Mozilla/5.0 (Windows NT 10.0; Win64; x64) AppleWebKit/537.36 (KHTML, like Gecko) Chrome/88.0.4324.146 Safari/537.36","v1","","","","","","","","40,50,60,70,80","media/audio/stims/spherical_300cm_s20_c20_cd-full_matched_a80.wav","spherical","20","20","full","matched","80","50","1650"
"echo-presentation","128","533881","0.0-128.0","5f5c2c3e564c56422ca91c12","5fef55e628823a0076ec12ee","601f4479f47e0a46d39974ce","Mozilla/5.0 (Windows NT 10.0; Win64; x64) AppleWebKit/537.36 (KHTML, like Gecko) Chrome/88.0.4324.146 Safari/537.36","v1","","","","","","","","40,50,60,70,80","media/audio/stims/spherical_300cm_s20_c20_cd-full_matched_a80.wav","spherical","20","20","full","matched","80","50","1021"
"echo-presentation","129","535812","0.0-129.0","5f5c2c3e564c56422ca91c12","5fef55e628823a0076ec12ee","601f4479f47e0a46d39974ce","Mozilla/5.0 (Windows NT 10.0; Win64; x64) AppleWebKit/537.36 (KHTML, like Gecko) Chrome/88.0.4324.146 Safari/537.36","v1","","","","","","","","40,50,60,70,80","media/audio/stims/spherical_300cm_s20_c20_cd-full_matched_a50.wav","spherical","20","20","full","matched","50","70","1149"
"echo-presentation","130","537659","0.0-130.0","5f5c2c3e564c56422ca91c12","5fef55e628823a0076ec12ee","601f4479f47e0a46d39974ce","Mozilla/5.0 (Windows NT 10.0; Win64; x64) AppleWebKit/537.36 (KHTML, like Gecko) Chrome/88.0.4324.146 Safari/537.36","v1","","","","","","","","40,50,60,70,80","media/audio/stims/spherical_300cm_s20_c20_cd-full_matched_a40.wav","spherical","20","20","full","matched","40","70","1098"
"echo-presentation","131","539523","0.0-131.0","5f5c2c3e564c56422ca91c12","5fef55e628823a0076ec12ee","601f4479f47e0a46d39974ce","Mozilla/5.0 (Windows NT 10.0; Win64; x64) AppleWebKit/537.36 (KHTML, like Gecko) Chrome/88.0.4324.146 Safari/537.36","v1","","","","","","","","40,50,60,70,80","media/audio/stims/spherical_300cm_s20_c20_cd-full_matched_a50.wav","spherical","20","20","full","matched","50","80","1073"
"echo-presentation","132","541134","0.0-132.0","5f5c2c3e564c56422ca91c12","5fef55e628823a0076ec12ee","601f4479f47e0a46d39974ce","Mozilla/5.0 (Windows NT 10.0; Win64; x64) AppleWebKit/537.36 (KHTML, like Gecko) Chrome/88.0.4324.146 Safari/537.36","v1","","","","","","","","40,50,60,70,80","media/audio/stims/spherical_300cm_s20_c20_cd-full_matched_a80.wav","spherical","20","20","full","matched","80","50","898"
"echo-presentation","133","543477","0.0-133.0","5f5c2c3e564c56422ca91c12","5fef55e628823a0076ec12ee","601f4479f47e0a46d39974ce","Mozilla/5.0 (Windows NT 10.0; Win64; x64) AppleWebKit/537.36 (KHTML, like Gecko) Chrome/88.0.4324.146 Safari/537.36","v1","","","","","","","","40,50,60,70,80","media/audio/stims/spherical_300cm_s20_c20_cd-full_matched_a60.wav","spherical","20","20","full","matched","60","60","1374"
"echo-presentation","134","545395","0.0-134.0","5f5c2c3e564c56422ca91c12","5fef55e628823a0076ec12ee","601f4479f47e0a46d39974ce","Mozilla/5.0 (Windows NT 10.0; Win64; x64) AppleWebKit/537.36 (KHTML, like Gecko) Chrome/88.0.4324.146 Safari/537.36","v1","","","","","","","","40,50,60,70,80","media/audio/stims/spherical_300cm_s20_c20_cd-full_matched_a70.wav","spherical","20","20","full","matched","70","60","1162"
"echo-presentation","135","547269","0.0-135.0","5f5c2c3e564c56422ca91c12","5fef55e628823a0076ec12ee","601f4479f47e0a46d39974ce","Mozilla/5.0 (Windows NT 10.0; Win64; x64) AppleWebKit/537.36 (KHTML, like Gecko) Chrome/88.0.4324.146 Safari/537.36","v1","","","","","","","","40,50,60,70,80","media/audio/stims/spherical_300cm_s20_c20_cd-full_matched_a50.wav","spherical","20","20","full","matched","50","70","1045"
"echo-presentation","136","548983","0.0-136.0","5f5c2c3e564c56422ca91c12","5fef55e628823a0076ec12ee","601f4479f47e0a46d39974ce","Mozilla/5.0 (Windows NT 10.0; Win64; x64) AppleWebKit/537.36 (KHTML, like Gecko) Chrome/88.0.4324.146 Safari/537.36","v1","","","","","","","","40,50,60,70,80","media/audio/stims/spherical_300cm_s20_c20_cd-full_matched_a40.wav","spherical","20","20","full","matched","40","80","954"
"echo-presentation","137","551330","0.0-137.0","5f5c2c3e564c56422ca91c12","5fef55e628823a0076ec12ee","601f4479f47e0a46d39974ce","Mozilla/5.0 (Windows NT 10.0; Win64; x64) AppleWebKit/537.36 (KHTML, like Gecko) Chrome/88.0.4324.146 Safari/537.36","v1","","","","","","","","40,50,60,70,80","media/audio/stims/spherical_300cm_s20_c20_cd-full_matched_a80.wav","spherical","20","20","full","matched","80","50","1208"
"block-bookend","138","552878","0.0-138.0","5f5c2c3e564c56422ca91c12","5fef55e628823a0076ec12ee","601f4479f47e0a46d39974ce","Mozilla/5.0 (Windows NT 10.0; Win64; x64) AppleWebKit/537.36 (KHTML, like Gecko) Chrome/88.0.4324.146 Safari/537.36","v1","","","","","","","","","","","","","","","","",""
