"trial_type","trial_index","time_elapsed","internal_node_id","prolificPid","studyId","sessionId","userAgent","version","rt","stimulus","key_press","chosenKeyset","failureCount","testIndex","globalVolume","choices","filename","modelName","slowdown","compensation","compensationDescriptor","receiverOrientationType","azimuth","responseAzimuth","responseDelay"
"pavlovia","0","5","0.0-0.0","6009ded729d8400a50dd70e0","60201dea606b8d5e5aa9e528","60202725a178895e16b776c1","Mozilla/5.0 (Windows NT 10.0; Win64; x64) AppleWebKit/537.36 (KHTML, like Gecko) Chrome/88.0.4324.150 Safari/537.36","v1-up-stims","","","","","","","","","","","","","","","","",""
"html-keyboard-response","1","1253","0.0-1.0","6009ded729d8400a50dd70e0","60201dea606b8d5e5aa9e528","60202725a178895e16b776c1","Mozilla/5.0 (Windows NT 10.0; Win64; x64) AppleWebKit/537.36 (KHTML, like Gecko) Chrome/88.0.4324.150 Safari/537.36","v1-up-stims","1247.239999996964","<div><h1>Welcome!</h1><p>Press any key to continue.</p></div>","32","","","","","","","","","","","","","",""
"consent-form","2","7102","0.0-2.0","6009ded729d8400a50dd70e0","60201dea606b8d5e5aa9e528","60202725a178895e16b776c1","Mozilla/5.0 (Windows NT 10.0; Win64; x64) AppleWebKit/537.36 (KHTML, like Gecko) Chrome/88.0.4324.150 Safari/537.36","v1-up-stims","","","","","","","","","","","","","","","","",""
"keyset-select","3","12270","0.0-3.0","6009ded729d8400a50dd70e0","60201dea606b8d5e5aa9e528","60202725a178895e16b776c1","Mozilla/5.0 (Windows NT 10.0; Win64; x64) AppleWebKit/537.36 (KHTML, like Gecko) Chrome/88.0.4324.150 Safari/537.36","v1-up-stims","","","","left-hand","","","","","","","","","","","","",""
"headphone-check","4","65638","0.0-4.0","6009ded729d8400a50dd70e0","60201dea606b8d5e5aa9e528","60202725a178895e16b776c1","Mozilla/5.0 (Windows NT 10.0; Win64; x64) AppleWebKit/537.36 (KHTML, like Gecko) Chrome/88.0.4324.150 Safari/537.36","v1-up-stims","","","","","0","6","1","","","","","","","","","",""
"headphone-backwards-check","5","76935","0.0-5.0","6009ded729d8400a50dd70e0","60201dea606b8d5e5aa9e528","60202725a178895e16b776c1","Mozilla/5.0 (Windows NT 10.0; Win64; x64) AppleWebKit/537.36 (KHTML, like Gecko) Chrome/88.0.4324.150 Safari/537.36","v1-up-stims","","","","","0","","","","","","","","","","","",""
"training","6","223048","0.0-6.0","6009ded729d8400a50dd70e0","60201dea606b8d5e5aa9e528","60202725a178895e16b776c1","Mozilla/5.0 (Windows NT 10.0; Win64; x64) AppleWebKit/537.36 (KHTML, like Gecko) Chrome/88.0.4324.150 Safari/537.36","v1-up-stims","","","","","","","","","","","","","","","","",""
"block-bookend","7","250995","0.0-7.0","6009ded729d8400a50dd70e0","60201dea606b8d5e5aa9e528","60202725a178895e16b776c1","Mozilla/5.0 (Windows NT 10.0; Win64; x64) AppleWebKit/537.36 (KHTML, like Gecko) Chrome/88.0.4324.150 Safari/537.36","v1-up-stims","","","","","","","","","","","","","","","","",""
"echo-presentation","8","259036","0.0-8.0","6009ded729d8400a50dd70e0","60201dea606b8d5e5aa9e528","60202725a178895e16b776c1","Mozilla/5.0 (Windows NT 10.0; Win64; x64) AppleWebKit/537.36 (KHTML, like Gecko) Chrome/88.0.4324.150 Safari/537.36","v1-up-stims","","","","","","","","-20,-10,0,10,20","media/audio/stims/spherical_300cm_s20_c1_cd-1_matched_a-10.wav","spherical","20","1","1","matched","-10","-20","4645"
"echo-presentation","9","272750","0.0-9.0","6009ded729d8400a50dd70e0","60201dea606b8d5e5aa9e528","60202725a178895e16b776c1","Mozilla/5.0 (Windows NT 10.0; Win64; x64) AppleWebKit/537.36 (KHTML, like Gecko) Chrome/88.0.4324.150 Safari/537.36","v1-up-stims","","","","","","","","-20,-10,0,10,20","media/audio/stims/spherical_300cm_s20_c1_cd-1_matched_a-20.wav","spherical","20","1","1","matched","-20","-10","12312"
"echo-presentation","10","279200","0.0-10.0","6009ded729d8400a50dd70e0","60201dea606b8d5e5aa9e528","60202725a178895e16b776c1","Mozilla/5.0 (Windows NT 10.0; Win64; x64) AppleWebKit/537.36 (KHTML, like Gecko) Chrome/88.0.4324.150 Safari/537.36","v1-up-stims","","","","","","","","-20,-10,0,10,20","media/audio/stims/spherical_300cm_s20_c1_cd-1_matched_a10.wav","spherical","20","1","1","matched","10","10","5080"
"echo-presentation","11","284282","0.0-11.0","6009ded729d8400a50dd70e0","60201dea606b8d5e5aa9e528","60202725a178895e16b776c1","Mozilla/5.0 (Windows NT 10.0; Win64; x64) AppleWebKit/537.36 (KHTML, like Gecko) Chrome/88.0.4324.150 Safari/537.36","v1-up-stims","","","","","","","","-20,-10,0,10,20","media/audio/stims/spherical_300cm_s20_c1_cd-1_matched_a0.wav","spherical","20","1","1","matched","0","0","3799"
"echo-presentation","12","287766","0.0-12.0","6009ded729d8400a50dd70e0","60201dea606b8d5e5aa9e528","60202725a178895e16b776c1","Mozilla/5.0 (Windows NT 10.0; Win64; x64) AppleWebKit/537.36 (KHTML, like Gecko) Chrome/88.0.4324.150 Safari/537.36","v1-up-stims","","","","","","","","-20,-10,0,10,20","media/audio/stims/spherical_300cm_s20_c1_cd-1_matched_a-10.wav","spherical","20","1","1","matched","-10","-10","2285"
"echo-presentation","13","293396","0.0-13.0","6009ded729d8400a50dd70e0","60201dea606b8d5e5aa9e528","60202725a178895e16b776c1","Mozilla/5.0 (Windows NT 10.0; Win64; x64) AppleWebKit/537.36 (KHTML, like Gecko) Chrome/88.0.4324.150 Safari/537.36","v1-up-stims","","","","","","","","-20,-10,0,10,20","media/audio/stims/spherical_300cm_s20_c1_cd-1_matched_a0.wav","spherical","20","1","1","matched","0","-10","4415"
"echo-presentation","14","298180","0.0-14.0","6009ded729d8400a50dd70e0","60201dea606b8d5e5aa9e528","60202725a178895e16b776c1","Mozilla/5.0 (Windows NT 10.0; Win64; x64) AppleWebKit/537.36 (KHTML, like Gecko) Chrome/88.0.4324.150 Safari/537.36","v1-up-stims","","","","","","","","-20,-10,0,10,20","media/audio/stims/spherical_300cm_s20_c1_cd-1_matched_a0.wav","spherical","20","1","1","matched","0","0","3111"
"echo-presentation","15","302611","0.0-15.0","6009ded729d8400a50dd70e0","60201dea606b8d5e5aa9e528","60202725a178895e16b776c1","Mozilla/5.0 (Windows NT 10.0; Win64; x64) AppleWebKit/537.36 (KHTML, like Gecko) Chrome/88.0.4324.150 Safari/537.36","v1-up-stims","","","","","","","","-20,-10,0,10,20","media/audio/stims/spherical_300cm_s20_c1_cd-1_matched_a20.wav","spherical","20","1","1","matched","20","10","3143"
"echo-presentation","16","306692","0.0-16.0","6009ded729d8400a50dd70e0","60201dea606b8d5e5aa9e528","60202725a178895e16b776c1","Mozilla/5.0 (Windows NT 10.0; Win64; x64) AppleWebKit/537.36 (KHTML, like Gecko) Chrome/88.0.4324.150 Safari/537.36","v1-up-stims","","","","","","","","-20,-10,0,10,20","media/audio/stims/spherical_300cm_s20_c1_cd-1_matched_a20.wav","spherical","20","1","1","matched","20","20","2928"
"echo-presentation","17","310092","0.0-17.0","6009ded729d8400a50dd70e0","60201dea606b8d5e5aa9e528","60202725a178895e16b776c1","Mozilla/5.0 (Windows NT 10.0; Win64; x64) AppleWebKit/537.36 (KHTML, like Gecko) Chrome/88.0.4324.150 Safari/537.36","v1-up-stims","","","","","","","","-20,-10,0,10,20","media/audio/stims/spherical_300cm_s20_c1_cd-1_matched_a20.wav","spherical","20","1","1","matched","20","10","2367"
"echo-presentation","18","313431","0.0-18.0","6009ded729d8400a50dd70e0","60201dea606b8d5e5aa9e528","60202725a178895e16b776c1","Mozilla/5.0 (Windows NT 10.0; Win64; x64) AppleWebKit/537.36 (KHTML, like Gecko) Chrome/88.0.4324.150 Safari/537.36","v1-up-stims","","","","","","","","-20,-10,0,10,20","media/audio/stims/spherical_300cm_s20_c1_cd-1_matched_a-20.wav","spherical","20","1","1","matched","-20","-20","2271"
"echo-presentation","19","316665","0.0-19.0","6009ded729d8400a50dd70e0","60201dea606b8d5e5aa9e528","60202725a178895e16b776c1","Mozilla/5.0 (Windows NT 10.0; Win64; x64) AppleWebKit/537.36 (KHTML, like Gecko) Chrome/88.0.4324.150 Safari/537.36","v1-up-stims","","","","","","","","-20,-10,0,10,20","media/audio/stims/spherical_300cm_s20_c1_cd-1_matched_a0.wav","spherical","20","1","1","matched","0","0","1638"
"echo-presentation","20","320475","0.0-20.0","6009ded729d8400a50dd70e0","60201dea606b8d5e5aa9e528","60202725a178895e16b776c1","Mozilla/5.0 (Windows NT 10.0; Win64; x64) AppleWebKit/537.36 (KHTML, like Gecko) Chrome/88.0.4324.150 Safari/537.36","v1-up-stims","","","","","","","","-20,-10,0,10,20","media/audio/stims/spherical_300cm_s20_c1_cd-1_matched_a20.wav","spherical","20","1","1","matched","20","10","2558"
"echo-presentation","21","323397","0.0-21.0","6009ded729d8400a50dd70e0","60201dea606b8d5e5aa9e528","60202725a178895e16b776c1","Mozilla/5.0 (Windows NT 10.0; Win64; x64) AppleWebKit/537.36 (KHTML, like Gecko) Chrome/88.0.4324.150 Safari/537.36","v1-up-stims","","","","","","","","-20,-10,0,10,20","media/audio/stims/spherical_300cm_s20_c1_cd-1_matched_a-10.wav","spherical","20","1","1","matched","-10","-10","2015"
"echo-presentation","22","326348","0.0-22.0","6009ded729d8400a50dd70e0","60201dea606b8d5e5aa9e528","60202725a178895e16b776c1","Mozilla/5.0 (Windows NT 10.0; Win64; x64) AppleWebKit/537.36 (KHTML, like Gecko) Chrome/88.0.4324.150 Safari/537.36","v1-up-stims","","","","","","","","-20,-10,0,10,20","media/audio/stims/spherical_300cm_s20_c1_cd-1_matched_a10.wav","spherical","20","1","1","matched","10","20","1902"
"echo-presentation","23","328764","0.0-23.0","6009ded729d8400a50dd70e0","60201dea606b8d5e5aa9e528","60202725a178895e16b776c1","Mozilla/5.0 (Windows NT 10.0; Win64; x64) AppleWebKit/537.36 (KHTML, like Gecko) Chrome/88.0.4324.150 Safari/537.36","v1-up-stims","","","","","","","","-20,-10,0,10,20","media/audio/stims/spherical_300cm_s20_c1_cd-1_matched_a-20.wav","spherical","20","1","1","matched","-20","-20","1279"
"echo-presentation","24","331581","0.0-24.0","6009ded729d8400a50dd70e0","60201dea606b8d5e5aa9e528","60202725a178895e16b776c1","Mozilla/5.0 (Windows NT 10.0; Win64; x64) AppleWebKit/537.36 (KHTML, like Gecko) Chrome/88.0.4324.150 Safari/537.36","v1-up-stims","","","","","","","","-20,-10,0,10,20","media/audio/stims/spherical_300cm_s20_c1_cd-1_matched_a10.wav","spherical","20","1","1","matched","10","20","1733"
"echo-presentation","25","334554","0.0-25.0","6009ded729d8400a50dd70e0","60201dea606b8d5e5aa9e528","60202725a178895e16b776c1","Mozilla/5.0 (Windows NT 10.0; Win64; x64) AppleWebKit/537.36 (KHTML, like Gecko) Chrome/88.0.4324.150 Safari/537.36","v1-up-stims","","","","","","","","-20,-10,0,10,20","media/audio/stims/spherical_300cm_s20_c1_cd-1_matched_a10.wav","spherical","20","1","1","matched","10","10","2044"
"echo-presentation","26","336931","0.0-26.0","6009ded729d8400a50dd70e0","60201dea606b8d5e5aa9e528","60202725a178895e16b776c1","Mozilla/5.0 (Windows NT 10.0; Win64; x64) AppleWebKit/537.36 (KHTML, like Gecko) Chrome/88.0.4324.150 Safari/537.36","v1-up-stims","","","","","","","","-20,-10,0,10,20","media/audio/stims/spherical_300cm_s20_c1_cd-1_matched_a-20.wav","spherical","20","1","1","matched","-20","-20","1311"
"echo-presentation","27","340144","0.0-27.0","6009ded729d8400a50dd70e0","60201dea606b8d5e5aa9e528","60202725a178895e16b776c1","Mozilla/5.0 (Windows NT 10.0; Win64; x64) AppleWebKit/537.36 (KHTML, like Gecko) Chrome/88.0.4324.150 Safari/537.36","v1-up-stims","","","","","","","","-20,-10,0,10,20","media/audio/stims/spherical_300cm_s20_c1_cd-1_matched_a-10.wav","spherical","20","1","1","matched","-10","-20","1334"
"block-bookend","28","344678","0.0-28.0","6009ded729d8400a50dd70e0","60201dea606b8d5e5aa9e528","60202725a178895e16b776c1","Mozilla/5.0 (Windows NT 10.0; Win64; x64) AppleWebKit/537.36 (KHTML, like Gecko) Chrome/88.0.4324.150 Safari/537.36","v1-up-stims","","","","","","","","","","","","","","","","",""
"block-bookend","29","359064","0.0-29.0","6009ded729d8400a50dd70e0","60201dea606b8d5e5aa9e528","60202725a178895e16b776c1","Mozilla/5.0 (Windows NT 10.0; Win64; x64) AppleWebKit/537.36 (KHTML, like Gecko) Chrome/88.0.4324.150 Safari/537.36","v1-up-stims","","","","","","","","","","","","","","","","",""
"echo-presentation","30","363591","0.0-30.0","6009ded729d8400a50dd70e0","60201dea606b8d5e5aa9e528","60202725a178895e16b776c1","Mozilla/5.0 (Windows NT 10.0; Win64; x64) AppleWebKit/537.36 (KHTML, like Gecko) Chrome/88.0.4324.150 Safari/537.36","v1-up-stims","","","","","","","","-20,-10,0,10,20","media/audio/stims/spherical_300cm_s20_c1_cd-1_matched_a-20.wav","spherical","20","1","1","matched","-20","-10","2766"
"echo-presentation","31","365881","0.0-31.0","6009ded729d8400a50dd70e0","60201dea606b8d5e5aa9e528","60202725a178895e16b776c1","Mozilla/5.0 (Windows NT 10.0; Win64; x64) AppleWebKit/537.36 (KHTML, like Gecko) Chrome/88.0.4324.150 Safari/537.36","v1-up-stims","","","","","","","","-20,-10,0,10,20","media/audio/stims/spherical_300cm_s20_c1_cd-1_matched_a10.wav","spherical","20","1","1","matched","10","20","1470"
"echo-presentation","32","368864","0.0-32.0","6009ded729d8400a50dd70e0","60201dea606b8d5e5aa9e528","60202725a178895e16b776c1","Mozilla/5.0 (Windows NT 10.0; Win64; x64) AppleWebKit/537.36 (KHTML, like Gecko) Chrome/88.0.4324.150 Safari/537.36","v1-up-stims","","","","","","","","-20,-10,0,10,20","media/audio/stims/spherical_300cm_s20_c1_cd-1_matched_a0.wav","spherical","20","1","1","matched","0","-10","1967"
"echo-presentation","33","370860","0.0-33.0","6009ded729d8400a50dd70e0","60201dea606b8d5e5aa9e528","60202725a178895e16b776c1","Mozilla/5.0 (Windows NT 10.0; Win64; x64) AppleWebKit/537.36 (KHTML, like Gecko) Chrome/88.0.4324.150 Safari/537.36","v1-up-stims","","","","","","","","-20,-10,0,10,20","media/audio/stims/spherical_300cm_s20_c1_cd-1_matched_a-20.wav","spherical","20","1","1","matched","-20","-20","1190"
"echo-presentation","34","373045","0.0-34.0","6009ded729d8400a50dd70e0","60201dea606b8d5e5aa9e528","60202725a178895e16b776c1","Mozilla/5.0 (Windows NT 10.0; Win64; x64) AppleWebKit/537.36 (KHTML, like Gecko) Chrome/88.0.4324.150 Safari/537.36","v1-up-stims","","","","","","","","-20,-10,0,10,20","media/audio/stims/spherical_300cm_s20_c1_cd-1_matched_a-10.wav","spherical","20","1","1","matched","-10","-10","1375"
"echo-presentation","35","375418","0.0-35.0","6009ded729d8400a50dd70e0","60201dea606b8d5e5aa9e528","60202725a178895e16b776c1","Mozilla/5.0 (Windows NT 10.0; Win64; x64) AppleWebKit/537.36 (KHTML, like Gecko) Chrome/88.0.4324.150 Safari/537.36","v1-up-stims","","","","","","","","-20,-10,0,10,20","media/audio/stims/spherical_300cm_s20_c1_cd-1_matched_a0.wav","spherical","20","1","1","matched","0","-10","1407"
"echo-presentation","36","378097","0.0-36.0","6009ded729d8400a50dd70e0","60201dea606b8d5e5aa9e528","60202725a178895e16b776c1","Mozilla/5.0 (Windows NT 10.0; Win64; x64) AppleWebKit/537.36 (KHTML, like Gecko) Chrome/88.0.4324.150 Safari/537.36","v1-up-stims","","","","","","","","-20,-10,0,10,20","media/audio/stims/spherical_300cm_s20_c1_cd-1_matched_a0.wav","spherical","20","1","1","matched","0","-10","1839"
"echo-presentation","37","380964","0.0-37.0","6009ded729d8400a50dd70e0","60201dea606b8d5e5aa9e528","60202725a178895e16b776c1","Mozilla/5.0 (Windows NT 10.0; Win64; x64) AppleWebKit/537.36 (KHTML, like Gecko) Chrome/88.0.4324.150 Safari/537.36","v1-up-stims","","","","","","","","-20,-10,0,10,20","media/audio/stims/spherical_300cm_s20_c1_cd-1_matched_a20.wav","spherical","20","1","1","matched","20","10","2039"
"echo-presentation","38","382977","0.0-38.0","6009ded729d8400a50dd70e0","60201dea606b8d5e5aa9e528","60202725a178895e16b776c1","Mozilla/5.0 (Windows NT 10.0; Win64; x64) AppleWebKit/537.36 (KHTML, like Gecko) Chrome/88.0.4324.150 Safari/537.36","v1-up-stims","","","","","","","","-20,-10,0,10,20","media/audio/stims/spherical_300cm_s20_c1_cd-1_matched_a-20.wav","spherical","20","1","1","matched","-20","-20","1207"
"echo-presentation","39","385160","0.0-39.0","6009ded729d8400a50dd70e0","60201dea606b8d5e5aa9e528","60202725a178895e16b776c1","Mozilla/5.0 (Windows NT 10.0; Win64; x64) AppleWebKit/537.36 (KHTML, like Gecko) Chrome/88.0.4324.150 Safari/537.36","v1-up-stims","","","","","","","","-20,-10,0,10,20","media/audio/stims/spherical_300cm_s20_c1_cd-1_matched_a-10.wav","spherical","20","1","1","matched","-10","-20","1311"
"echo-presentation","40","389380","0.0-40.0","6009ded729d8400a50dd70e0","60201dea606b8d5e5aa9e528","60202725a178895e16b776c1","Mozilla/5.0 (Windows NT 10.0; Win64; x64) AppleWebKit/537.36 (KHTML, like Gecko) Chrome/88.0.4324.150 Safari/537.36","v1-up-stims","","","","","","","","-20,-10,0,10,20","media/audio/stims/spherical_300cm_s20_c1_cd-1_matched_a10.wav","spherical","20","1","1","matched","10","10","3399"
"echo-presentation","41","391180","0.0-41.0","6009ded729d8400a50dd70e0","60201dea606b8d5e5aa9e528","60202725a178895e16b776c1","Mozilla/5.0 (Windows NT 10.0; Win64; x64) AppleWebKit/537.36 (KHTML, like Gecko) Chrome/88.0.4324.150 Safari/537.36","v1-up-stims","","","","","","","","-20,-10,0,10,20","media/audio/stims/spherical_300cm_s20_c1_cd-1_matched_a20.wav","spherical","20","1","1","matched","20","20","1119"
"echo-presentation","42","393206","0.0-42.0","6009ded729d8400a50dd70e0","60201dea606b8d5e5aa9e528","60202725a178895e16b776c1","Mozilla/5.0 (Windows NT 10.0; Win64; x64) AppleWebKit/537.36 (KHTML, like Gecko) Chrome/88.0.4324.150 Safari/537.36","v1-up-stims","","","","","","","","-20,-10,0,10,20","media/audio/stims/spherical_300cm_s20_c1_cd-1_matched_a20.wav","spherical","20","1","1","matched","20","20","1159"
"echo-presentation","43","395479","0.0-43.0","6009ded729d8400a50dd70e0","60201dea606b8d5e5aa9e528","60202725a178895e16b776c1","Mozilla/5.0 (Windows NT 10.0; Win64; x64) AppleWebKit/537.36 (KHTML, like Gecko) Chrome/88.0.4324.150 Safari/537.36","v1-up-stims","","","","","","","","-20,-10,0,10,20","media/audio/stims/spherical_300cm_s20_c1_cd-1_matched_a0.wav","spherical","20","1","1","matched","0","10","1503"
"echo-presentation","44","397712","0.0-44.0","6009ded729d8400a50dd70e0","60201dea606b8d5e5aa9e528","60202725a178895e16b776c1","Mozilla/5.0 (Windows NT 10.0; Win64; x64) AppleWebKit/537.36 (KHTML, like Gecko) Chrome/88.0.4324.150 Safari/537.36","v1-up-stims","","","","","","","","-20,-10,0,10,20","media/audio/stims/spherical_300cm_s20_c1_cd-1_matched_a-10.wav","spherical","20","1","1","matched","-10","-20","1399"
"echo-presentation","45","399879","0.0-45.0","6009ded729d8400a50dd70e0","60201dea606b8d5e5aa9e528","60202725a178895e16b776c1","Mozilla/5.0 (Windows NT 10.0; Win64; x64) AppleWebKit/537.36 (KHTML, like Gecko) Chrome/88.0.4324.150 Safari/537.36","v1-up-stims","","","","","","","","-20,-10,0,10,20","media/audio/stims/spherical_300cm_s20_c1_cd-1_matched_a10.wav","spherical","20","1","1","matched","10","20","1359"
"echo-presentation","46","402796","0.0-46.0","6009ded729d8400a50dd70e0","60201dea606b8d5e5aa9e528","60202725a178895e16b776c1","Mozilla/5.0 (Windows NT 10.0; Win64; x64) AppleWebKit/537.36 (KHTML, like Gecko) Chrome/88.0.4324.150 Safari/537.36","v1-up-stims","","","","","","","","-20,-10,0,10,20","media/audio/stims/spherical_300cm_s20_c1_cd-1_matched_a10.wav","spherical","20","1","1","matched","10","20","2007"
"echo-presentation","47","405332","0.0-47.0","6009ded729d8400a50dd70e0","60201dea606b8d5e5aa9e528","60202725a178895e16b776c1","Mozilla/5.0 (Windows NT 10.0; Win64; x64) AppleWebKit/537.36 (KHTML, like Gecko) Chrome/88.0.4324.150 Safari/537.36","v1-up-stims","","","","","","","","-20,-10,0,10,20","media/audio/stims/spherical_300cm_s20_c1_cd-1_matched_a-10.wav","spherical","20","1","1","matched","-10","-20","1767"
"echo-presentation","48","407361","0.0-48.0","6009ded729d8400a50dd70e0","60201dea606b8d5e5aa9e528","60202725a178895e16b776c1","Mozilla/5.0 (Windows NT 10.0; Win64; x64) AppleWebKit/537.36 (KHTML, like Gecko) Chrome/88.0.4324.150 Safari/537.36","v1-up-stims","","","","","","","","-20,-10,0,10,20","media/audio/stims/spherical_300cm_s20_c1_cd-1_matched_a20.wav","spherical","20","1","1","matched","20","20","1127"
"echo-presentation","49","411103","0.0-49.0","6009ded729d8400a50dd70e0","60201dea606b8d5e5aa9e528","60202725a178895e16b776c1","Mozilla/5.0 (Windows NT 10.0; Win64; x64) AppleWebKit/537.36 (KHTML, like Gecko) Chrome/88.0.4324.150 Safari/537.36","v1-up-stims","","","","","","","","-20,-10,0,10,20","media/audio/stims/spherical_300cm_s20_c1_cd-1_matched_a-20.wav","spherical","20","1","1","matched","-20","-10","1447"
"block-bookend","50","413447","0.0-50.0","6009ded729d8400a50dd70e0","60201dea606b8d5e5aa9e528","60202725a178895e16b776c1","Mozilla/5.0 (Windows NT 10.0; Win64; x64) AppleWebKit/537.36 (KHTML, like Gecko) Chrome/88.0.4324.150 Safari/537.36","v1-up-stims","","","","","","","","","","","","","","","","",""
"block-bookend","51","425329","0.0-51.0","6009ded729d8400a50dd70e0","60201dea606b8d5e5aa9e528","60202725a178895e16b776c1","Mozilla/5.0 (Windows NT 10.0; Win64; x64) AppleWebKit/537.36 (KHTML, like Gecko) Chrome/88.0.4324.150 Safari/537.36","v1-up-stims","","","","","","","","","","","","","","","","",""
"echo-presentation","52","432440","0.0-52.0","6009ded729d8400a50dd70e0","60201dea606b8d5e5aa9e528","60202725a178895e16b776c1","Mozilla/5.0 (Windows NT 10.0; Win64; x64) AppleWebKit/537.36 (KHTML, like Gecko) Chrome/88.0.4324.150 Safari/537.36","v1-up-stims","","","","","","","","-80,-70,-60,-50,-40","media/audio/stims/spherical_300cm_s20_c1_cd-1_matched_a-80.wav","spherical","20","1","1","matched","-80","-70","3871"
"echo-presentation","53","439112","0.0-53.0","6009ded729d8400a50dd70e0","60201dea606b8d5e5aa9e528","60202725a178895e16b776c1","Mozilla/5.0 (Windows NT 10.0; Win64; x64) AppleWebKit/537.36 (KHTML, like Gecko) Chrome/88.0.4324.150 Safari/537.36","v1-up-stims","","","","","","","","-80,-70,-60,-50,-40","media/audio/stims/spherical_300cm_s20_c1_cd-1_matched_a-80.wav","spherical","20","1","1","matched","-80","-70","5663"
"echo-presentation","54","441943","0.0-54.0","6009ded729d8400a50dd70e0","60201dea606b8d5e5aa9e528","60202725a178895e16b776c1","Mozilla/5.0 (Windows NT 10.0; Win64; x64) AppleWebKit/537.36 (KHTML, like Gecko) Chrome/88.0.4324.150 Safari/537.36","v1-up-stims","","","","","","","","-80,-70,-60,-50,-40","media/audio/stims/spherical_300cm_s20_c1_cd-1_matched_a-70.wav","spherical","20","1","1","matched","-70","-80","1710"
"echo-presentation","55","449378","0.0-55.0","6009ded729d8400a50dd70e0","60201dea606b8d5e5aa9e528","60202725a178895e16b776c1","Mozilla/5.0 (Windows NT 10.0; Win64; x64) AppleWebKit/537.36 (KHTML, like Gecko) Chrome/88.0.4324.150 Safari/537.36","v1-up-stims","","","","","","","","-80,-70,-60,-50,-40","media/audio/stims/spherical_300cm_s20_c1_cd-1_matched_a-40.wav","spherical","20","1","1","matched","-40","-80","6544"
"echo-presentation","56","451710","0.0-56.0","6009ded729d8400a50dd70e0","60201dea606b8d5e5aa9e528","60202725a178895e16b776c1","Mozilla/5.0 (Windows NT 10.0; Win64; x64) AppleWebKit/537.36 (KHTML, like Gecko) Chrome/88.0.4324.150 Safari/537.36","v1-up-stims","","","","","","","","-80,-70,-60,-50,-40","media/audio/stims/spherical_300cm_s20_c1_cd-1_matched_a-50.wav","spherical","20","1","1","matched","-50","-80","1343"
"echo-presentation","57","454644","0.0-57.0","6009ded729d8400a50dd70e0","60201dea606b8d5e5aa9e528","60202725a178895e16b776c1","Mozilla/5.0 (Windows NT 10.0; Win64; x64) AppleWebKit/537.36 (KHTML, like Gecko) Chrome/88.0.4324.150 Safari/537.36","v1-up-stims","","","","","","","","-80,-70,-60,-50,-40","media/audio/stims/spherical_300cm_s20_c1_cd-1_matched_a-40.wav","spherical","20","1","1","matched","-40","-70","1735"
"echo-presentation","58","457111","0.0-58.0","6009ded729d8400a50dd70e0","60201dea606b8d5e5aa9e528","60202725a178895e16b776c1","Mozilla/5.0 (Windows NT 10.0; Win64; x64) AppleWebKit/537.36 (KHTML, like Gecko) Chrome/88.0.4324.150 Safari/537.36","v1-up-stims","","","","","","","","-80,-70,-60,-50,-40","media/audio/stims/spherical_300cm_s20_c1_cd-1_matched_a-50.wav","spherical","20","1","1","matched","-50","-80","1678"
"echo-presentation","59","459441","0.0-59.0","6009ded729d8400a50dd70e0","60201dea606b8d5e5aa9e528","60202725a178895e16b776c1","Mozilla/5.0 (Windows NT 10.0; Win64; x64) AppleWebKit/537.36 (KHTML, like Gecko) Chrome/88.0.4324.150 Safari/537.36","v1-up-stims","","","","","","","","-80,-70,-60,-50,-40","media/audio/stims/spherical_300cm_s20_c1_cd-1_matched_a-70.wav","spherical","20","1","1","matched","-70","-80","1407"
"echo-presentation","60","462028","0.0-60.0","6009ded729d8400a50dd70e0","60201dea606b8d5e5aa9e528","60202725a178895e16b776c1","Mozilla/5.0 (Windows NT 10.0; Win64; x64) AppleWebKit/537.36 (KHTML, like Gecko) Chrome/88.0.4324.150 Safari/537.36","v1-up-stims","","","","","","","","-80,-70,-60,-50,-40","media/audio/stims/spherical_300cm_s20_c1_cd-1_matched_a-70.wav","spherical","20","1","1","matched","-70","-80","1759"
"echo-presentation","61","464684","0.0-61.0","6009ded729d8400a50dd70e0","60201dea606b8d5e5aa9e528","60202725a178895e16b776c1","Mozilla/5.0 (Windows NT 10.0; Win64; x64) AppleWebKit/537.36 (KHTML, like Gecko) Chrome/88.0.4324.150 Safari/537.36","v1-up-stims","","","","","","","","-80,-70,-60,-50,-40","media/audio/stims/spherical_300cm_s20_c1_cd-1_matched_a-50.wav","spherical","20","1","1","matched","-50","-80","1799"
"echo-presentation","62","466844","0.0-62.0","6009ded729d8400a50dd70e0","60201dea606b8d5e5aa9e528","60202725a178895e16b776c1","Mozilla/5.0 (Windows NT 10.0; Win64; x64) AppleWebKit/537.36 (KHTML, like Gecko) Chrome/88.0.4324.150 Safari/537.36","v1-up-stims","","","","","","","","-80,-70,-60,-50,-40","media/audio/stims/spherical_300cm_s20_c1_cd-1_matched_a-40.wav","spherical","20","1","1","matched","-40","-70","1430"
"echo-presentation","63","469004","0.0-63.0","6009ded729d8400a50dd70e0","60201dea606b8d5e5aa9e528","60202725a178895e16b776c1","Mozilla/5.0 (Windows NT 10.0; Win64; x64) AppleWebKit/537.36 (KHTML, like Gecko) Chrome/88.0.4324.150 Safari/537.36","v1-up-stims","","","","","","","","-80,-70,-60,-50,-40","media/audio/stims/spherical_300cm_s20_c1_cd-1_matched_a-60.wav","spherical","20","1","1","matched","-60","-80","1263"
"echo-presentation","64","471476","0.0-64.0","6009ded729d8400a50dd70e0","60201dea606b8d5e5aa9e528","60202725a178895e16b776c1","Mozilla/5.0 (Windows NT 10.0; Win64; x64) AppleWebKit/537.36 (KHTML, like Gecko) Chrome/88.0.4324.150 Safari/537.36","v1-up-stims","","","","","","","","-80,-70,-60,-50,-40","media/audio/stims/spherical_300cm_s20_c1_cd-1_matched_a-70.wav","spherical","20","1","1","matched","-70","-80","1671"
"echo-presentation","65","477510","0.0-65.0","6009ded729d8400a50dd70e0","60201dea606b8d5e5aa9e528","60202725a178895e16b776c1","Mozilla/5.0 (Windows NT 10.0; Win64; x64) AppleWebKit/537.36 (KHTML, like Gecko) Chrome/88.0.4324.150 Safari/537.36","v1-up-stims","","","","","","","","-80,-70,-60,-50,-40","media/audio/stims/spherical_300cm_s20_c1_cd-1_matched_a-60.wav","spherical","20","1","1","matched","-60","-80","1927"
"echo-presentation","66","479353","0.0-66.0","6009ded729d8400a50dd70e0","60201dea606b8d5e5aa9e528","60202725a178895e16b776c1","Mozilla/5.0 (Windows NT 10.0; Win64; x64) AppleWebKit/537.36 (KHTML, like Gecko) Chrome/88.0.4324.150 Safari/537.36","v1-up-stims","","","","","","","","-80,-70,-60,-50,-40","media/audio/stims/spherical_300cm_s20_c1_cd-1_matched_a-50.wav","spherical","20","1","1","matched","-50","-80","1071"
"echo-presentation","67","481308","0.0-67.0","6009ded729d8400a50dd70e0","60201dea606b8d5e5aa9e528","60202725a178895e16b776c1","Mozilla/5.0 (Windows NT 10.0; Win64; x64) AppleWebKit/537.36 (KHTML, like Gecko) Chrome/88.0.4324.150 Safari/537.36","v1-up-stims","","","","","","","","-80,-70,-60,-50,-40","media/audio/stims/spherical_300cm_s20_c1_cd-1_matched_a-60.wav","spherical","20","1","1","matched","-60","-70","1166"
"echo-presentation","68","483462","0.0-68.0","6009ded729d8400a50dd70e0","60201dea606b8d5e5aa9e528","60202725a178895e16b776c1","Mozilla/5.0 (Windows NT 10.0; Win64; x64) AppleWebKit/537.36 (KHTML, like Gecko) Chrome/88.0.4324.150 Safari/537.36","v1-up-stims","","","","","","","","-80,-70,-60,-50,-40","media/audio/stims/spherical_300cm_s20_c1_cd-1_matched_a-60.wav","spherical","20","1","1","matched","-60","-80","1351"
"echo-presentation","69","486823","0.0-69.0","6009ded729d8400a50dd70e0","60201dea606b8d5e5aa9e528","60202725a178895e16b776c1","Mozilla/5.0 (Windows NT 10.0; Win64; x64) AppleWebKit/537.36 (KHTML, like Gecko) Chrome/88.0.4324.150 Safari/537.36","v1-up-stims","","","","","","","","-80,-70,-60,-50,-40","media/audio/stims/spherical_300cm_s20_c1_cd-1_matched_a-40.wav","spherical","20","1","1","matched","-40","-60","2471"
"echo-presentation","70","489643","0.0-70.0","6009ded729d8400a50dd70e0","60201dea606b8d5e5aa9e528","60202725a178895e16b776c1","Mozilla/5.0 (Windows NT 10.0; Win64; x64) AppleWebKit/537.36 (KHTML, like Gecko) Chrome/88.0.4324.150 Safari/537.36","v1-up-stims","","","","","","","","-80,-70,-60,-50,-40","media/audio/stims/spherical_300cm_s20_c1_cd-1_matched_a-80.wav","spherical","20","1","1","matched","-80","-60","2006"
"echo-presentation","71","491807","0.0-71.0","6009ded729d8400a50dd70e0","60201dea606b8d5e5aa9e528","60202725a178895e16b776c1","Mozilla/5.0 (Windows NT 10.0; Win64; x64) AppleWebKit/537.36 (KHTML, like Gecko) Chrome/88.0.4324.150 Safari/537.36","v1-up-stims","","","","","","","","-80,-70,-60,-50,-40","media/audio/stims/spherical_300cm_s20_c1_cd-1_matched_a-80.wav","spherical","20","1","1","matched","-80","-70","1398"
"block-bookend","72","493369","0.0-72.0","6009ded729d8400a50dd70e0","60201dea606b8d5e5aa9e528","60202725a178895e16b776c1","Mozilla/5.0 (Windows NT 10.0; Win64; x64) AppleWebKit/537.36 (KHTML, like Gecko) Chrome/88.0.4324.150 Safari/537.36","v1-up-stims","","","","","","","","","","","","","","","","",""
"block-bookend","73","499905","0.0-73.0","6009ded729d8400a50dd70e0","60201dea606b8d5e5aa9e528","60202725a178895e16b776c1","Mozilla/5.0 (Windows NT 10.0; Win64; x64) AppleWebKit/537.36 (KHTML, like Gecko) Chrome/88.0.4324.150 Safari/537.36","v1-up-stims","","","","","","","","","","","","","","","","",""
"echo-presentation","74","502760","0.0-74.0","6009ded729d8400a50dd70e0","60201dea606b8d5e5aa9e528","60202725a178895e16b776c1","Mozilla/5.0 (Windows NT 10.0; Win64; x64) AppleWebKit/537.36 (KHTML, like Gecko) Chrome/88.0.4324.150 Safari/537.36","v1-up-stims","","","","","","","","-80,-70,-60,-50,-40","media/audio/stims/spherical_300cm_s20_c1_cd-1_matched_a-40.wav","spherical","20","1","1","matched","-40","-70","1278"
"echo-presentation","75","505076","0.0-75.0","6009ded729d8400a50dd70e0","60201dea606b8d5e5aa9e528","60202725a178895e16b776c1","Mozilla/5.0 (Windows NT 10.0; Win64; x64) AppleWebKit/537.36 (KHTML, like Gecko) Chrome/88.0.4324.150 Safari/537.36","v1-up-stims","","","","","","","","-80,-70,-60,-50,-40","media/audio/stims/spherical_300cm_s20_c1_cd-1_matched_a-70.wav","spherical","20","1","1","matched","-70","-80","1471"
"echo-presentation","76","509746","0.0-76.0","6009ded729d8400a50dd70e0","60201dea606b8d5e5aa9e528","60202725a178895e16b776c1","Mozilla/5.0 (Windows NT 10.0; Win64; x64) AppleWebKit/537.36 (KHTML, like Gecko) Chrome/88.0.4324.150 Safari/537.36","v1-up-stims","","","","","","","","-80,-70,-60,-50,-40","media/audio/stims/spherical_300cm_s20_c1_cd-1_matched_a-60.wav","spherical","20","1","1","matched","-60","-60","3792"
"echo-presentation","77","511759","0.0-77.0","6009ded729d8400a50dd70e0","60201dea606b8d5e5aa9e528","60202725a178895e16b776c1","Mozilla/5.0 (Windows NT 10.0; Win64; x64) AppleWebKit/537.36 (KHTML, like Gecko) Chrome/88.0.4324.150 Safari/537.36","v1-up-stims","","","","","","","","-80,-70,-60,-50,-40","media/audio/stims/spherical_300cm_s20_c1_cd-1_matched_a-80.wav","spherical","20","1","1","matched","-80","-70","1320"
"echo-presentation","78","513606","0.0-78.0","6009ded729d8400a50dd70e0","60201dea606b8d5e5aa9e528","60202725a178895e16b776c1","Mozilla/5.0 (Windows NT 10.0; Win64; x64) AppleWebKit/537.36 (KHTML, like Gecko) Chrome/88.0.4324.150 Safari/537.36","v1-up-stims","","","","","","","","-80,-70,-60,-50,-40","media/audio/stims/spherical_300cm_s20_c1_cd-1_matched_a-80.wav","spherical","20","1","1","matched","-80","-80","1103"
"echo-presentation","79","515723","0.0-79.0","6009ded729d8400a50dd70e0","60201dea606b8d5e5aa9e528","60202725a178895e16b776c1","Mozilla/5.0 (Windows NT 10.0; Win64; x64) AppleWebKit/537.36 (KHTML, like Gecko) Chrome/88.0.4324.150 Safari/537.36","v1-up-stims","","","","","","","","-80,-70,-60,-50,-40","media/audio/stims/spherical_300cm_s20_c1_cd-1_matched_a-60.wav","spherical","20","1","1","matched","-60","-80","1318"
"echo-presentation","80","518100","0.0-80.0","6009ded729d8400a50dd70e0","60201dea606b8d5e5aa9e528","60202725a178895e16b776c1","Mozilla/5.0 (Windows NT 10.0; Win64; x64) AppleWebKit/537.36 (KHTML, like Gecko) Chrome/88.0.4324.150 Safari/537.36","v1-up-stims","","","","","","","","-80,-70,-60,-50,-40","media/audio/stims/spherical_300cm_s20_c1_cd-1_matched_a-40.wav","spherical","20","1","1","matched","-40","-80","1623"
"echo-presentation","81","519873","0.0-81.0","6009ded729d8400a50dd70e0","60201dea606b8d5e5aa9e528","60202725a178895e16b776c1","Mozilla/5.0 (Windows NT 10.0; Win64; x64) AppleWebKit/537.36 (KHTML, like Gecko) Chrome/88.0.4324.150 Safari/537.36","v1-up-stims","","","","","","","","-80,-70,-60,-50,-40","media/audio/stims/spherical_300cm_s20_c1_cd-1_matched_a-70.wav","spherical","20","1","1","matched","-70","-70","1062"
"echo-presentation","82","521892","0.0-82.0","6009ded729d8400a50dd70e0","60201dea606b8d5e5aa9e528","60202725a178895e16b776c1","Mozilla/5.0 (Windows NT 10.0; Win64; x64) AppleWebKit/537.36 (KHTML, like Gecko) Chrome/88.0.4324.150 Safari/537.36","v1-up-stims","","","","","","","","-80,-70,-60,-50,-40","media/audio/stims/spherical_300cm_s20_c1_cd-1_matched_a-40.wav","spherical","20","1","1","matched","-40","-70","1214"
"echo-presentation","83","524369","0.0-83.0","6009ded729d8400a50dd70e0","60201dea606b8d5e5aa9e528","60202725a178895e16b776c1","Mozilla/5.0 (Windows NT 10.0; Win64; x64) AppleWebKit/537.36 (KHTML, like Gecko) Chrome/88.0.4324.150 Safari/537.36","v1-up-stims","","","","","","","","-80,-70,-60,-50,-40","media/audio/stims/spherical_300cm_s20_c1_cd-1_matched_a-50.wav","spherical","20","1","1","matched","-50","-70","1566"
"echo-presentation","84","526526","0.0-84.0","6009ded729d8400a50dd70e0","60201dea606b8d5e5aa9e528","60202725a178895e16b776c1","Mozilla/5.0 (Windows NT 10.0; Win64; x64) AppleWebKit/537.36 (KHTML, like Gecko) Chrome/88.0.4324.150 Safari/537.36","v1-up-stims","","","","","","","","-80,-70,-60,-50,-40","media/audio/stims/spherical_300cm_s20_c1_cd-1_matched_a-50.wav","spherical","20","1","1","matched","-50","-80","1407"
"echo-presentation","85","528558","0.0-85.0","6009ded729d8400a50dd70e0","60201dea606b8d5e5aa9e528","60202725a178895e16b776c1","Mozilla/5.0 (Windows NT 10.0; Win64; x64) AppleWebKit/537.36 (KHTML, like Gecko) Chrome/88.0.4324.150 Safari/537.36","v1-up-stims","","","","","","","","-80,-70,-60,-50,-40","media/audio/stims/spherical_300cm_s20_c1_cd-1_matched_a-50.wav","spherical","20","1","1","matched","-50","-80","1119"
"echo-presentation","86","530659","0.0-86.0","6009ded729d8400a50dd70e0","60201dea606b8d5e5aa9e528","60202725a178895e16b776c1","Mozilla/5.0 (Windows NT 10.0; Win64; x64) AppleWebKit/537.36 (KHTML, like Gecko) Chrome/88.0.4324.150 Safari/537.36","v1-up-stims","","","","","","","","-80,-70,-60,-50,-40","media/audio/stims/spherical_300cm_s20_c1_cd-1_matched_a-40.wav","spherical","20","1","1","matched","-40","-70","1295"
"echo-presentation","87","533290","0.0-87.0","6009ded729d8400a50dd70e0","60201dea606b8d5e5aa9e528","60202725a178895e16b776c1","Mozilla/5.0 (Windows NT 10.0; Win64; x64) AppleWebKit/537.36 (KHTML, like Gecko) Chrome/88.0.4324.150 Safari/537.36","v1-up-stims","","","","","","","","-80,-70,-60,-50,-40","media/audio/stims/spherical_300cm_s20_c1_cd-1_matched_a-70.wav","spherical","20","1","1","matched","-70","-70","1384"
"echo-presentation","88","535709","0.0-88.0","6009ded729d8400a50dd70e0","60201dea606b8d5e5aa9e528","60202725a178895e16b776c1","Mozilla/5.0 (Windows NT 10.0; Win64; x64) AppleWebKit/537.36 (KHTML, like Gecko) Chrome/88.0.4324.150 Safari/537.36","v1-up-stims","","","","","","","","-80,-70,-60,-50,-40","media/audio/stims/spherical_300cm_s20_c1_cd-1_matched_a-80.wav","spherical","20","1","1","matched","-80","-80","1390"
"echo-presentation","89","537581","0.0-89.0","6009ded729d8400a50dd70e0","60201dea606b8d5e5aa9e528","60202725a178895e16b776c1","Mozilla/5.0 (Windows NT 10.0; Win64; x64) AppleWebKit/537.36 (KHTML, like Gecko) Chrome/88.0.4324.150 Safari/537.36","v1-up-stims","","","","","","","","-80,-70,-60,-50,-40","media/audio/stims/spherical_300cm_s20_c1_cd-1_matched_a-50.wav","spherical","20","1","1","matched","-50","-80","1127"
"echo-presentation","90","539611","0.0-90.0","6009ded729d8400a50dd70e0","60201dea606b8d5e5aa9e528","60202725a178895e16b776c1","Mozilla/5.0 (Windows NT 10.0; Win64; x64) AppleWebKit/537.36 (KHTML, like Gecko) Chrome/88.0.4324.150 Safari/537.36","v1-up-stims","","","","","","","","-80,-70,-60,-50,-40","media/audio/stims/spherical_300cm_s20_c1_cd-1_matched_a-60.wav","spherical","20","1","1","matched","-60","-70","1230"
"echo-presentation","91","541326","0.0-91.0","6009ded729d8400a50dd70e0","60201dea606b8d5e5aa9e528","60202725a178895e16b776c1","Mozilla/5.0 (Windows NT 10.0; Win64; x64) AppleWebKit/537.36 (KHTML, like Gecko) Chrome/88.0.4324.150 Safari/537.36","v1-up-stims","","","","","","","","-80,-70,-60,-50,-40","media/audio/stims/spherical_300cm_s20_c1_cd-1_matched_a-80.wav","spherical","20","1","1","matched","-80","-80","997"
"echo-presentation","92","543537","0.0-92.0","6009ded729d8400a50dd70e0","60201dea606b8d5e5aa9e528","60202725a178895e16b776c1","Mozilla/5.0 (Windows NT 10.0; Win64; x64) AppleWebKit/537.36 (KHTML, like Gecko) Chrome/88.0.4324.150 Safari/537.36","v1-up-stims","","","","","","","","-80,-70,-60,-50,-40","media/audio/stims/spherical_300cm_s20_c1_cd-1_matched_a-60.wav","spherical","20","1","1","matched","-60","-80","1367"
"echo-presentation","93","545754","0.0-93.0","6009ded729d8400a50dd70e0","60201dea606b8d5e5aa9e528","60202725a178895e16b776c1","Mozilla/5.0 (Windows NT 10.0; Win64; x64) AppleWebKit/537.36 (KHTML, like Gecko) Chrome/88.0.4324.150 Safari/537.36","v1-up-stims","","","","","","","","-80,-70,-60,-50,-40","media/audio/stims/spherical_300cm_s20_c1_cd-1_matched_a-70.wav","spherical","20","1","1","matched","-70","-70","1038"
"block-bookend","94","547631","0.0-94.0","6009ded729d8400a50dd70e0","60201dea606b8d5e5aa9e528","60202725a178895e16b776c1","Mozilla/5.0 (Windows NT 10.0; Win64; x64) AppleWebKit/537.36 (KHTML, like Gecko) Chrome/88.0.4324.150 Safari/537.36","v1-up-stims","","","","","","","","","","","","","","","","",""
"block-bookend","95","554673","0.0-95.0","6009ded729d8400a50dd70e0","60201dea606b8d5e5aa9e528","60202725a178895e16b776c1","Mozilla/5.0 (Windows NT 10.0; Win64; x64) AppleWebKit/537.36 (KHTML, like Gecko) Chrome/88.0.4324.150 Safari/537.36","v1-up-stims","","","","","","","","","","","","","","","","",""
"echo-presentation","96","560092","0.0-96.0","6009ded729d8400a50dd70e0","60201dea606b8d5e5aa9e528","60202725a178895e16b776c1","Mozilla/5.0 (Windows NT 10.0; Win64; x64) AppleWebKit/537.36 (KHTML, like Gecko) Chrome/88.0.4324.150 Safari/537.36","v1-up-stims","","","","","","","","40,50,60,70,80","media/audio/stims/spherical_300cm_s20_c1_cd-1_matched_a70.wav","spherical","20","1","1","matched","70","80","2238"
"echo-presentation","97","562158","0.0-97.0","6009ded729d8400a50dd70e0","60201dea606b8d5e5aa9e528","60202725a178895e16b776c1","Mozilla/5.0 (Windows NT 10.0; Win64; x64) AppleWebKit/537.36 (KHTML, like Gecko) Chrome/88.0.4324.150 Safari/537.36","v1-up-stims","","","","","","","","40,50,60,70,80","media/audio/stims/spherical_300cm_s20_c1_cd-1_matched_a40.wav","spherical","20","1","1","matched","40","80","1405"
"echo-presentation","98","564442","0.0-98.0","6009ded729d8400a50dd70e0","60201dea606b8d5e5aa9e528","60202725a178895e16b776c1","Mozilla/5.0 (Windows NT 10.0; Win64; x64) AppleWebKit/537.36 (KHTML, like Gecko) Chrome/88.0.4324.150 Safari/537.36","v1-up-stims","","","","","","","","40,50,60,70,80","media/audio/stims/spherical_300cm_s20_c1_cd-1_matched_a70.wav","spherical","20","1","1","matched","70","80","1415"
"echo-presentation","99","567321","0.0-99.0","6009ded729d8400a50dd70e0","60201dea606b8d5e5aa9e528","60202725a178895e16b776c1","Mozilla/5.0 (Windows NT 10.0; Win64; x64) AppleWebKit/537.36 (KHTML, like Gecko) Chrome/88.0.4324.150 Safari/537.36","v1-up-stims","","","","","","","","40,50,60,70,80","media/audio/stims/spherical_300cm_s20_c1_cd-1_matched_a80.wav","spherical","20","1","1","matched","80","80","2015"
"echo-presentation","100","569432","0.0-100.0","6009ded729d8400a50dd70e0","60201dea606b8d5e5aa9e528","60202725a178895e16b776c1","Mozilla/5.0 (Windows NT 10.0; Win64; x64) AppleWebKit/537.36 (KHTML, like Gecko) Chrome/88.0.4324.150 Safari/537.36","v1-up-stims","","","","","","","","40,50,60,70,80","media/audio/stims/spherical_300cm_s20_c1_cd-1_matched_a80.wav","spherical","20","1","1","matched","80","80","1335"
"echo-presentation","101","573954","0.0-101.0","6009ded729d8400a50dd70e0","60201dea606b8d5e5aa9e528","60202725a178895e16b776c1","Mozilla/5.0 (Windows NT 10.0; Win64; x64) AppleWebKit/537.36 (KHTML, like Gecko) Chrome/88.0.4324.150 Safari/537.36","v1-up-stims","","","","","","","","40,50,60,70,80","media/audio/stims/spherical_300cm_s20_c1_cd-1_matched_a70.wav","spherical","20","1","1","matched","70","70","2974"
"echo-presentation","102","575996","0.0-102.0","6009ded729d8400a50dd70e0","60201dea606b8d5e5aa9e528","60202725a178895e16b776c1","Mozilla/5.0 (Windows NT 10.0; Win64; x64) AppleWebKit/537.36 (KHTML, like Gecko) Chrome/88.0.4324.150 Safari/537.36","v1-up-stims","","","","","","","","40,50,60,70,80","media/audio/stims/spherical_300cm_s20_c1_cd-1_matched_a80.wav","spherical","20","1","1","matched","80","80","1231"
"echo-presentation","103","578273","0.0-103.0","6009ded729d8400a50dd70e0","60201dea606b8d5e5aa9e528","60202725a178895e16b776c1","Mozilla/5.0 (Windows NT 10.0; Win64; x64) AppleWebKit/537.36 (KHTML, like Gecko) Chrome/88.0.4324.150 Safari/537.36","v1-up-stims","","","","","","","","40,50,60,70,80","media/audio/stims/spherical_300cm_s20_c1_cd-1_matched_a80.wav","spherical","20","1","1","matched","80","80","1431"
"echo-presentation","104","580124","0.0-104.0","6009ded729d8400a50dd70e0","60201dea606b8d5e5aa9e528","60202725a178895e16b776c1","Mozilla/5.0 (Windows NT 10.0; Win64; x64) AppleWebKit/537.36 (KHTML, like Gecko) Chrome/88.0.4324.150 Safari/537.36","v1-up-stims","","","","","","","","40,50,60,70,80","media/audio/stims/spherical_300cm_s20_c1_cd-1_matched_a50.wav","spherical","20","1","1","matched","50","80","1151"
"echo-presentation","105","582124","0.0-105.0","6009ded729d8400a50dd70e0","60201dea606b8d5e5aa9e528","60202725a178895e16b776c1","Mozilla/5.0 (Windows NT 10.0; Win64; x64) AppleWebKit/537.36 (KHTML, like Gecko) Chrome/88.0.4324.150 Safari/537.36","v1-up-stims","","","","","","","","40,50,60,70,80","media/audio/stims/spherical_300cm_s20_c1_cd-1_matched_a40.wav","spherical","20","1","1","matched","40","80","1134"
"echo-presentation","106","584491","0.0-106.0","6009ded729d8400a50dd70e0","60201dea606b8d5e5aa9e528","60202725a178895e16b776c1","Mozilla/5.0 (Windows NT 10.0; Win64; x64) AppleWebKit/537.36 (KHTML, like Gecko) Chrome/88.0.4324.150 Safari/537.36","v1-up-stims","","","","","","","","40,50,60,70,80","media/audio/stims/spherical_300cm_s20_c1_cd-1_matched_a60.wav","spherical","20","1","1","matched","60","80","1527"
"echo-presentation","107","587109","0.0-107.0","6009ded729d8400a50dd70e0","60201dea606b8d5e5aa9e528","60202725a178895e16b776c1","Mozilla/5.0 (Windows NT 10.0; Win64; x64) AppleWebKit/537.36 (KHTML, like Gecko) Chrome/88.0.4324.150 Safari/537.36","v1-up-stims","","","","","","","","40,50,60,70,80","media/audio/stims/spherical_300cm_s20_c1_cd-1_matched_a40.wav","spherical","20","1","1","matched","40","80","1480"
"echo-presentation","108","589191","0.0-108.0","6009ded729d8400a50dd70e0","60201dea606b8d5e5aa9e528","60202725a178895e16b776c1","Mozilla/5.0 (Windows NT 10.0; Win64; x64) AppleWebKit/537.36 (KHTML, like Gecko) Chrome/88.0.4324.150 Safari/537.36","v1-up-stims","","","","","","","","40,50,60,70,80","media/audio/stims/spherical_300cm_s20_c1_cd-1_matched_a70.wav","spherical","20","1","1","matched","70","80","1310"
"echo-presentation","109","591269","0.0-109.0","6009ded729d8400a50dd70e0","60201dea606b8d5e5aa9e528","60202725a178895e16b776c1","Mozilla/5.0 (Windows NT 10.0; Win64; x64) AppleWebKit/537.36 (KHTML, like Gecko) Chrome/88.0.4324.150 Safari/537.36","v1-up-stims","","","","","","","","40,50,60,70,80","media/audio/stims/spherical_300cm_s20_c1_cd-1_matched_a50.wav","spherical","20","1","1","matched","50","70","1343"
"echo-presentation","110","593224","0.0-110.0","6009ded729d8400a50dd70e0","60201dea606b8d5e5aa9e528","60202725a178895e16b776c1","Mozilla/5.0 (Windows NT 10.0; Win64; x64) AppleWebKit/537.36 (KHTML, like Gecko) Chrome/88.0.4324.150 Safari/537.36","v1-up-stims","","","","","","","","40,50,60,70,80","media/audio/stims/spherical_300cm_s20_c1_cd-1_matched_a60.wav","spherical","20","1","1","matched","60","80","1263"
"echo-presentation","111","595287","0.0-111.0","6009ded729d8400a50dd70e0","60201dea606b8d5e5aa9e528","60202725a178895e16b776c1","Mozilla/5.0 (Windows NT 10.0; Win64; x64) AppleWebKit/537.36 (KHTML, like Gecko) Chrome/88.0.4324.150 Safari/537.36","v1-up-stims","","","","","","","","40,50,60,70,80","media/audio/stims/spherical_300cm_s20_c1_cd-1_matched_a40.wav","spherical","20","1","1","matched","40","80","1239"
"echo-presentation","112","597673","0.0-112.0","6009ded729d8400a50dd70e0","60201dea606b8d5e5aa9e528","60202725a178895e16b776c1","Mozilla/5.0 (Windows NT 10.0; Win64; x64) AppleWebKit/537.36 (KHTML, like Gecko) Chrome/88.0.4324.150 Safari/537.36","v1-up-stims","","","","","","","","40,50,60,70,80","media/audio/stims/spherical_300cm_s20_c1_cd-1_matched_a60.wav","spherical","20","1","1","matched","60","80","1623"
"echo-presentation","113","599723","0.0-113.0","6009ded729d8400a50dd70e0","60201dea606b8d5e5aa9e528","60202725a178895e16b776c1","Mozilla/5.0 (Windows NT 10.0; Win64; x64) AppleWebKit/537.36 (KHTML, like Gecko) Chrome/88.0.4324.150 Safari/537.36","v1-up-stims","","","","","","","","40,50,60,70,80","media/audio/stims/spherical_300cm_s20_c1_cd-1_matched_a60.wav","spherical","20","1","1","matched","60","80","1311"
"echo-presentation","114","601772","0.0-114.0","6009ded729d8400a50dd70e0","60201dea606b8d5e5aa9e528","60202725a178895e16b776c1","Mozilla/5.0 (Windows NT 10.0; Win64; x64) AppleWebKit/537.36 (KHTML, like Gecko) Chrome/88.0.4324.150 Safari/537.36","v1-up-stims","","","","","","","","40,50,60,70,80","media/audio/stims/spherical_300cm_s20_c1_cd-1_matched_a50.wav","spherical","20","1","1","matched","50","70","1175"
"echo-presentation","115","604274","0.0-115.0","6009ded729d8400a50dd70e0","60201dea606b8d5e5aa9e528","60202725a178895e16b776c1","Mozilla/5.0 (Windows NT 10.0; Win64; x64) AppleWebKit/537.36 (KHTML, like Gecko) Chrome/88.0.4324.150 Safari/537.36","v1-up-stims","","","","","","","","40,50,60,70,80","media/audio/stims/spherical_300cm_s20_c1_cd-1_matched_a50.wav","spherical","20","1","1","matched","50","80","1383"
"block-bookend","116","605854","0.0-116.0","6009ded729d8400a50dd70e0","60201dea606b8d5e5aa9e528","60202725a178895e16b776c1","Mozilla/5.0 (Windows NT 10.0; Win64; x64) AppleWebKit/537.36 (KHTML, like Gecko) Chrome/88.0.4324.150 Safari/537.36","v1-up-stims","","","","","","","","","","","","","","","","",""
"block-bookend","117","612023","0.0-117.0","6009ded729d8400a50dd70e0","60201dea606b8d5e5aa9e528","60202725a178895e16b776c1","Mozilla/5.0 (Windows NT 10.0; Win64; x64) AppleWebKit/537.36 (KHTML, like Gecko) Chrome/88.0.4324.150 Safari/537.36","v1-up-stims","","","","","","","","","","","","","","","","",""
"echo-presentation","118","615152","0.0-118.0","6009ded729d8400a50dd70e0","60201dea606b8d5e5aa9e528","60202725a178895e16b776c1","Mozilla/5.0 (Windows NT 10.0; Win64; x64) AppleWebKit/537.36 (KHTML, like Gecko) Chrome/88.0.4324.150 Safari/537.36","v1-up-stims","","","","","","","","40,50,60,70,80","media/audio/stims/spherical_300cm_s20_c1_cd-1_matched_a70.wav","spherical","20","1","1","matched","70","70","1550"
"echo-presentation","119","617756","0.0-119.0","6009ded729d8400a50dd70e0","60201dea606b8d5e5aa9e528","60202725a178895e16b776c1","Mozilla/5.0 (Windows NT 10.0; Win64; x64) AppleWebKit/537.36 (KHTML, like Gecko) Chrome/88.0.4324.150 Safari/537.36","v1-up-stims","","","","","","","","40,50,60,70,80","media/audio/stims/spherical_300cm_s20_c1_cd-1_matched_a40.wav","spherical","20","1","1","matched","40","80","1864"
"echo-presentation","120","619756","0.0-120.0","6009ded729d8400a50dd70e0","60201dea606b8d5e5aa9e528","60202725a178895e16b776c1","Mozilla/5.0 (Windows NT 10.0; Win64; x64) AppleWebKit/537.36 (KHTML, like Gecko) Chrome/88.0.4324.150 Safari/537.36","v1-up-stims","","","","","","","","40,50,60,70,80","media/audio/stims/spherical_300cm_s20_c1_cd-1_matched_a50.wav","spherical","20","1","1","matched","50","80","1239"
"echo-presentation","121","621989","0.0-121.0","6009ded729d8400a50dd70e0","60201dea606b8d5e5aa9e528","60202725a178895e16b776c1","Mozilla/5.0 (Windows NT 10.0; Win64; x64) AppleWebKit/537.36 (KHTML, like Gecko) Chrome/88.0.4324.150 Safari/537.36","v1-up-stims","","","","","","","","40,50,60,70,80","media/audio/stims/spherical_300cm_s20_c1_cd-1_matched_a80.wav","spherical","20","1","1","matched","80","70","1206"
"echo-presentation","122","624222","0.0-122.0","6009ded729d8400a50dd70e0","60201dea606b8d5e5aa9e528","60202725a178895e16b776c1","Mozilla/5.0 (Windows NT 10.0; Win64; x64) AppleWebKit/537.36 (KHTML, like Gecko) Chrome/88.0.4324.150 Safari/537.36","v1-up-stims","","","","","","","","40,50,60,70,80","media/audio/stims/spherical_300cm_s20_c1_cd-1_matched_a50.wav","spherical","20","1","1","matched","50","70","1350"
"echo-presentation","123","626399","0.0-123.0","6009ded729d8400a50dd70e0","60201dea606b8d5e5aa9e528","60202725a178895e16b776c1","Mozilla/5.0 (Windows NT 10.0; Win64; x64) AppleWebKit/537.36 (KHTML, like Gecko) Chrome/88.0.4324.150 Safari/537.36","v1-up-stims","","","","","","","","40,50,60,70,80","media/audio/stims/spherical_300cm_s20_c1_cd-1_matched_a40.wav","spherical","20","1","1","matched","40","70","1391"
"echo-presentation","124","628323","0.0-124.0","6009ded729d8400a50dd70e0","60201dea606b8d5e5aa9e528","60202725a178895e16b776c1","Mozilla/5.0 (Windows NT 10.0; Win64; x64) AppleWebKit/537.36 (KHTML, like Gecko) Chrome/88.0.4324.150 Safari/537.36","v1-up-stims","","","","","","","","40,50,60,70,80","media/audio/stims/spherical_300cm_s20_c1_cd-1_matched_a80.wav","spherical","20","1","1","matched","80","80","1159"
"echo-presentation","125","630056","0.0-125.0","6009ded729d8400a50dd70e0","60201dea606b8d5e5aa9e528","60202725a178895e16b776c1","Mozilla/5.0 (Windows NT 10.0; Win64; x64) AppleWebKit/537.36 (KHTML, like Gecko) Chrome/88.0.4324.150 Safari/537.36","v1-up-stims","","","","","","","","40,50,60,70,80","media/audio/stims/spherical_300cm_s20_c1_cd-1_matched_a40.wav","spherical","20","1","1","matched","40","70","935"
"echo-presentation","126","632056","0.0-126.0","6009ded729d8400a50dd70e0","60201dea606b8d5e5aa9e528","60202725a178895e16b776c1","Mozilla/5.0 (Windows NT 10.0; Win64; x64) AppleWebKit/537.36 (KHTML, like Gecko) Chrome/88.0.4324.150 Safari/537.36","v1-up-stims","","","","","","","","40,50,60,70,80","media/audio/stims/spherical_300cm_s20_c1_cd-1_matched_a60.wav","spherical","20","1","1","matched","60","80","1215"
"echo-presentation","127","634906","0.0-127.0","6009ded729d8400a50dd70e0","60201dea606b8d5e5aa9e528","60202725a178895e16b776c1","Mozilla/5.0 (Windows NT 10.0; Win64; x64) AppleWebKit/537.36 (KHTML, like Gecko) Chrome/88.0.4324.150 Safari/537.36","v1-up-stims","","","","","","","","40,50,60,70,80","media/audio/stims/spherical_300cm_s20_c1_cd-1_matched_a60.wav","spherical","20","1","1","matched","60","70","2031"
"echo-presentation","128","638039","0.0-128.0","6009ded729d8400a50dd70e0","60201dea606b8d5e5aa9e528","60202725a178895e16b776c1","Mozilla/5.0 (Windows NT 10.0; Win64; x64) AppleWebKit/537.36 (KHTML, like Gecko) Chrome/88.0.4324.150 Safari/537.36","v1-up-stims","","","","","","","","40,50,60,70,80","media/audio/stims/spherical_300cm_s20_c1_cd-1_matched_a40.wav","spherical","20","1","1","matched","40","70","2494"
"echo-presentation","129","639855","0.0-129.0","6009ded729d8400a50dd70e0","60201dea606b8d5e5aa9e528","60202725a178895e16b776c1","Mozilla/5.0 (Windows NT 10.0; Win64; x64) AppleWebKit/537.36 (KHTML, like Gecko) Chrome/88.0.4324.150 Safari/537.36","v1-up-stims","","","","","","","","40,50,60,70,80","media/audio/stims/spherical_300cm_s20_c1_cd-1_matched_a80.wav","spherical","20","1","1","matched","80","80","1118"
"echo-presentation","130","642869","0.0-130.0","6009ded729d8400a50dd70e0","60201dea606b8d5e5aa9e528","60202725a178895e16b776c1","Mozilla/5.0 (Windows NT 10.0; Win64; x64) AppleWebKit/537.36 (KHTML, like Gecko) Chrome/88.0.4324.150 Safari/537.36","v1-up-stims","","","","","","","","40,50,60,70,80","media/audio/stims/spherical_300cm_s20_c1_cd-1_matched_a50.wav","spherical","20","1","1","matched","50","80","2119"
"echo-presentation","131","644772","0.0-131.0","6009ded729d8400a50dd70e0","60201dea606b8d5e5aa9e528","60202725a178895e16b776c1","Mozilla/5.0 (Windows NT 10.0; Win64; x64) AppleWebKit/537.36 (KHTML, like Gecko) Chrome/88.0.4324.150 Safari/537.36","v1-up-stims","","","","","","","","40,50,60,70,80","media/audio/stims/spherical_300cm_s20_c1_cd-1_matched_a70.wav","spherical","20","1","1","matched","70","70","1231"
"echo-presentation","132","646603","0.0-132.0","6009ded729d8400a50dd70e0","60201dea606b8d5e5aa9e528","60202725a178895e16b776c1","Mozilla/5.0 (Windows NT 10.0; Win64; x64) AppleWebKit/537.36 (KHTML, like Gecko) Chrome/88.0.4324.150 Safari/537.36","v1-up-stims","","","","","","","","40,50,60,70,80","media/audio/stims/spherical_300cm_s20_c1_cd-1_matched_a70.wav","spherical","20","1","1","matched","70","80","1039"
"echo-presentation","133","648722","0.0-133.0","6009ded729d8400a50dd70e0","60201dea606b8d5e5aa9e528","60202725a178895e16b776c1","Mozilla/5.0 (Windows NT 10.0; Win64; x64) AppleWebKit/537.36 (KHTML, like Gecko) Chrome/88.0.4324.150 Safari/537.36","v1-up-stims","","","","","","","","40,50,60,70,80","media/audio/stims/spherical_300cm_s20_c1_cd-1_matched_a80.wav","spherical","20","1","1","matched","80","70","1310"
"echo-presentation","134","650821","0.0-134.0","6009ded729d8400a50dd70e0","60201dea606b8d5e5aa9e528","60202725a178895e16b776c1","Mozilla/5.0 (Windows NT 10.0; Win64; x64) AppleWebKit/537.36 (KHTML, like Gecko) Chrome/88.0.4324.150 Safari/537.36","v1-up-stims","","","","","","","","40,50,60,70,80","media/audio/stims/spherical_300cm_s20_c1_cd-1_matched_a60.wav","spherical","20","1","1","matched","60","80","1414"
"echo-presentation","135","652905","0.0-135.0","6009ded729d8400a50dd70e0","60201dea606b8d5e5aa9e528","60202725a178895e16b776c1","Mozilla/5.0 (Windows NT 10.0; Win64; x64) AppleWebKit/537.36 (KHTML, like Gecko) Chrome/88.0.4324.150 Safari/537.36","v1-up-stims","","","","","","","","40,50,60,70,80","media/audio/stims/spherical_300cm_s20_c1_cd-1_matched_a50.wav","spherical","20","1","1","matched","50","80","1327"
"echo-presentation","136","656989","0.0-136.0","6009ded729d8400a50dd70e0","60201dea606b8d5e5aa9e528","60202725a178895e16b776c1","Mozilla/5.0 (Windows NT 10.0; Win64; x64) AppleWebKit/537.36 (KHTML, like Gecko) Chrome/88.0.4324.150 Safari/537.36","v1-up-stims","","","","","","","","40,50,60,70,80","media/audio/stims/spherical_300cm_s20_c1_cd-1_matched_a70.wav","spherical","20","1","1","matched","70","80","1510"
"echo-presentation","137","659901","0.0-137.0","6009ded729d8400a50dd70e0","60201dea606b8d5e5aa9e528","60202725a178895e16b776c1","Mozilla/5.0 (Windows NT 10.0; Win64; x64) AppleWebKit/537.36 (KHTML, like Gecko) Chrome/88.0.4324.150 Safari/537.36","v1-up-stims","","","","","","","","40,50,60,70,80","media/audio/stims/spherical_300cm_s20_c1_cd-1_matched_a60.wav","spherical","20","1","1","matched","60","80","1407"
"block-bookend","138","662750","0.0-138.0","6009ded729d8400a50dd70e0","60201dea606b8d5e5aa9e528","60202725a178895e16b776c1","Mozilla/5.0 (Windows NT 10.0; Win64; x64) AppleWebKit/537.36 (KHTML, like Gecko) Chrome/88.0.4324.150 Safari/537.36","v1-up-stims","","","","","","","","","","","","","","","","",""
