"trial_type","trial_index","time_elapsed","internal_node_id","prolificPid","studyId","sessionId","userAgent","version","rt","stimulus","key_press","chosenKeyset","failureCount","testIndex","globalVolume","choices","filename","modelName","slowdown","compensation","compensationDescriptor","receiverOrientationType","azimuth","responseAzimuth","responseDelay"
"pavlovia","0","2","0.0-0.0","5eacb823eb3ceb32de9b6df3","5fef55e628823a0076ec12ee","602026fb92f028605f9e8e99","Mozilla/5.0 (Windows NT 10.0; Win64; x64) AppleWebKit/537.36 (KHTML, like Gecko) Chrome/86.0.4240.198 Safari/537.36 OPR/72.0.3815.487","v1-up-stims","","","","","","","","","","","","","","","","",""
"html-keyboard-response","1","23684","0.0-1.0","5eacb823eb3ceb32de9b6df3","5fef55e628823a0076ec12ee","602026fb92f028605f9e8e99","Mozilla/5.0 (Windows NT 10.0; Win64; x64) AppleWebKit/537.36 (KHTML, like Gecko) Chrome/86.0.4240.198 Safari/537.36 OPR/72.0.3815.487","v1-up-stims","23680.90499995742","<div><h1>Welcome!</h1><p>Press any key to continue.</p></div>","83","","","","","","","","","","","","","",""
"consent-form","2","316481","0.0-2.0","5eacb823eb3ceb32de9b6df3","5fef55e628823a0076ec12ee","602026fb92f028605f9e8e99","Mozilla/5.0 (Windows NT 10.0; Win64; x64) AppleWebKit/537.36 (KHTML, like Gecko) Chrome/86.0.4240.198 Safari/537.36 OPR/72.0.3815.487","v1-up-stims","","","","","","","","","","","","","","","","",""
"keyset-select","3","341058","0.0-3.0","5eacb823eb3ceb32de9b6df3","5fef55e628823a0076ec12ee","602026fb92f028605f9e8e99","Mozilla/5.0 (Windows NT 10.0; Win64; x64) AppleWebKit/537.36 (KHTML, like Gecko) Chrome/86.0.4240.198 Safari/537.36 OPR/72.0.3815.487","v1-up-stims","","","","left-hand","","","","","","","","","","","","",""
"headphone-check","4","404343","0.0-4.0","5eacb823eb3ceb32de9b6df3","5fef55e628823a0076ec12ee","602026fb92f028605f9e8e99","Mozilla/5.0 (Windows NT 10.0; Win64; x64) AppleWebKit/537.36 (KHTML, like Gecko) Chrome/86.0.4240.198 Safari/537.36 OPR/72.0.3815.487","v1-up-stims","","","","","0","6","0.7","","","","","","","","","",""
"headphone-backwards-check","5","412935","0.0-5.0","5eacb823eb3ceb32de9b6df3","5fef55e628823a0076ec12ee","602026fb92f028605f9e8e99","Mozilla/5.0 (Windows NT 10.0; Win64; x64) AppleWebKit/537.36 (KHTML, like Gecko) Chrome/86.0.4240.198 Safari/537.36 OPR/72.0.3815.487","v1-up-stims","","","","","0","","","","","","","","","","","",""
"training","6","529571","0.0-6.0","5eacb823eb3ceb32de9b6df3","5fef55e628823a0076ec12ee","602026fb92f028605f9e8e99","Mozilla/5.0 (Windows NT 10.0; Win64; x64) AppleWebKit/537.36 (KHTML, like Gecko) Chrome/86.0.4240.198 Safari/537.36 OPR/72.0.3815.487","v1-up-stims","","","","","","","","","","","","","","","","",""
"block-bookend","7","545690","0.0-7.0","5eacb823eb3ceb32de9b6df3","5fef55e628823a0076ec12ee","602026fb92f028605f9e8e99","Mozilla/5.0 (Windows NT 10.0; Win64; x64) AppleWebKit/537.36 (KHTML, like Gecko) Chrome/86.0.4240.198 Safari/537.36 OPR/72.0.3815.487","v1-up-stims","","","","","","","","","","","","","","","","",""
"echo-presentation","8","558646","0.0-8.0","5eacb823eb3ceb32de9b6df3","5fef55e628823a0076ec12ee","602026fb92f028605f9e8e99","Mozilla/5.0 (Windows NT 10.0; Win64; x64) AppleWebKit/537.36 (KHTML, like Gecko) Chrome/86.0.4240.198 Safari/537.36 OPR/72.0.3815.487","v1-up-stims","","","","","","","","40,50,60,70,80","media/audio/stims/spherical_300cm_s20_c20_cd-full_matched_a50.wav","spherical","20","20","full","matched","50","80","9969"
"echo-presentation","9","564856","0.0-9.0","5eacb823eb3ceb32de9b6df3","5fef55e628823a0076ec12ee","602026fb92f028605f9e8e99","Mozilla/5.0 (Windows NT 10.0; Win64; x64) AppleWebKit/537.36 (KHTML, like Gecko) Chrome/86.0.4240.198 Safari/537.36 OPR/72.0.3815.487","v1-up-stims","","","","","","","","40,50,60,70,80","media/audio/stims/spherical_300cm_s20_c20_cd-full_matched_a70.wav","spherical","20","20","full","matched","70","80","4768"
"echo-presentation","10","568046","0.0-10.0","5eacb823eb3ceb32de9b6df3","5fef55e628823a0076ec12ee","602026fb92f028605f9e8e99","Mozilla/5.0 (Windows NT 10.0; Win64; x64) AppleWebKit/537.36 (KHTML, like Gecko) Chrome/86.0.4240.198 Safari/537.36 OPR/72.0.3815.487","v1-up-stims","","","","","","","","40,50,60,70,80","media/audio/stims/spherical_300cm_s20_c20_cd-full_matched_a40.wav","spherical","20","20","full","matched","40","80","1938"
"echo-presentation","11","570954","0.0-11.0","5eacb823eb3ceb32de9b6df3","5fef55e628823a0076ec12ee","602026fb92f028605f9e8e99","Mozilla/5.0 (Windows NT 10.0; Win64; x64) AppleWebKit/537.36 (KHTML, like Gecko) Chrome/86.0.4240.198 Safari/537.36 OPR/72.0.3815.487","v1-up-stims","","","","","","","","40,50,60,70,80","media/audio/stims/spherical_300cm_s20_c20_cd-full_matched_a60.wav","spherical","20","20","full","matched","60","80","1858"
"echo-presentation","12","581063","0.0-12.0","5eacb823eb3ceb32de9b6df3","5fef55e628823a0076ec12ee","602026fb92f028605f9e8e99","Mozilla/5.0 (Windows NT 10.0; Win64; x64) AppleWebKit/537.36 (KHTML, like Gecko) Chrome/86.0.4240.198 Safari/537.36 OPR/72.0.3815.487","v1-up-stims","","","","","","","","40,50,60,70,80","media/audio/stims/spherical_300cm_s20_c20_cd-full_matched_a40.wav","spherical","20","20","full","matched","40","70","8909"
"echo-presentation","13","592586","0.0-13.0","5eacb823eb3ceb32de9b6df3","5fef55e628823a0076ec12ee","602026fb92f028605f9e8e99","Mozilla/5.0 (Windows NT 10.0; Win64; x64) AppleWebKit/537.36 (KHTML, like Gecko) Chrome/86.0.4240.198 Safari/537.36 OPR/72.0.3815.487","v1-up-stims","","","","","","","","40,50,60,70,80","media/audio/stims/spherical_300cm_s20_c20_cd-full_matched_a40.wav","spherical","20","20","full","matched","40","60","10188"
"echo-presentation","14","596862","0.0-14.0","5eacb823eb3ceb32de9b6df3","5fef55e628823a0076ec12ee","602026fb92f028605f9e8e99","Mozilla/5.0 (Windows NT 10.0; Win64; x64) AppleWebKit/537.36 (KHTML, like Gecko) Chrome/86.0.4240.198 Safari/537.36 OPR/72.0.3815.487","v1-up-stims","","","","","","","","40,50,60,70,80","media/audio/stims/spherical_300cm_s20_c20_cd-full_matched_a40.wav","spherical","20","20","full","matched","40","50","2808"
"echo-presentation","15","602138","0.0-15.0","5eacb823eb3ceb32de9b6df3","5fef55e628823a0076ec12ee","602026fb92f028605f9e8e99","Mozilla/5.0 (Windows NT 10.0; Win64; x64) AppleWebKit/537.36 (KHTML, like Gecko) Chrome/86.0.4240.198 Safari/537.36 OPR/72.0.3815.487","v1-up-stims","","","","","","","","40,50,60,70,80","media/audio/stims/spherical_300cm_s20_c20_cd-full_matched_a80.wav","spherical","20","20","full","matched","80","50","3928"
"echo-presentation","16","606466","0.0-16.0","5eacb823eb3ceb32de9b6df3","5fef55e628823a0076ec12ee","602026fb92f028605f9e8e99","Mozilla/5.0 (Windows NT 10.0; Win64; x64) AppleWebKit/537.36 (KHTML, like Gecko) Chrome/86.0.4240.198 Safari/537.36 OPR/72.0.3815.487","v1-up-stims","","","","","","","","40,50,60,70,80","media/audio/stims/spherical_300cm_s20_c20_cd-full_matched_a80.wav","spherical","20","20","full","matched","80","50","3029"
"echo-presentation","17","615676","0.0-17.0","5eacb823eb3ceb32de9b6df3","5fef55e628823a0076ec12ee","602026fb92f028605f9e8e99","Mozilla/5.0 (Windows NT 10.0; Win64; x64) AppleWebKit/537.36 (KHTML, like Gecko) Chrome/86.0.4240.198 Safari/537.36 OPR/72.0.3815.487","v1-up-stims","","","","","","","","40,50,60,70,80","media/audio/stims/spherical_300cm_s20_c20_cd-full_matched_a60.wav","spherical","20","20","full","matched","60","40","4109"
"echo-presentation","18","619579","0.0-18.0","5eacb823eb3ceb32de9b6df3","5fef55e628823a0076ec12ee","602026fb92f028605f9e8e99","Mozilla/5.0 (Windows NT 10.0; Win64; x64) AppleWebKit/537.36 (KHTML, like Gecko) Chrome/86.0.4240.198 Safari/537.36 OPR/72.0.3815.487","v1-up-stims","","","","","","","","40,50,60,70,80","media/audio/stims/spherical_300cm_s20_c20_cd-full_matched_a50.wav","spherical","20","20","full","matched","50","40","2069"
"echo-presentation","19","623593","0.0-19.0","5eacb823eb3ceb32de9b6df3","5fef55e628823a0076ec12ee","602026fb92f028605f9e8e99","Mozilla/5.0 (Windows NT 10.0; Win64; x64) AppleWebKit/537.36 (KHTML, like Gecko) Chrome/86.0.4240.198 Safari/537.36 OPR/72.0.3815.487","v1-up-stims","","","","","","","","40,50,60,70,80","media/audio/stims/spherical_300cm_s20_c20_cd-full_matched_a60.wav","spherical","20","20","full","matched","60","50","2819"
"echo-presentation","20","627077","0.0-20.0","5eacb823eb3ceb32de9b6df3","5fef55e628823a0076ec12ee","602026fb92f028605f9e8e99","Mozilla/5.0 (Windows NT 10.0; Win64; x64) AppleWebKit/537.36 (KHTML, like Gecko) Chrome/86.0.4240.198 Safari/537.36 OPR/72.0.3815.487","v1-up-stims","","","","","","","","40,50,60,70,80","media/audio/stims/spherical_300cm_s20_c20_cd-full_matched_a50.wav","spherical","20","20","full","matched","50","40","2180"
"echo-presentation","21","630215","0.0-21.0","5eacb823eb3ceb32de9b6df3","5fef55e628823a0076ec12ee","602026fb92f028605f9e8e99","Mozilla/5.0 (Windows NT 10.0; Win64; x64) AppleWebKit/537.36 (KHTML, like Gecko) Chrome/86.0.4240.198 Safari/537.36 OPR/72.0.3815.487","v1-up-stims","","","","","","","","40,50,60,70,80","media/audio/stims/spherical_300cm_s20_c20_cd-full_matched_a70.wav","spherical","20","20","full","matched","70","60","2128"
"echo-presentation","22","633715","0.0-22.0","5eacb823eb3ceb32de9b6df3","5fef55e628823a0076ec12ee","602026fb92f028605f9e8e99","Mozilla/5.0 (Windows NT 10.0; Win64; x64) AppleWebKit/537.36 (KHTML, like Gecko) Chrome/86.0.4240.198 Safari/537.36 OPR/72.0.3815.487","v1-up-stims","","","","","","","","40,50,60,70,80","media/audio/stims/spherical_300cm_s20_c20_cd-full_matched_a80.wav","spherical","20","20","full","matched","80","50","2337"
"echo-presentation","23","640967","0.0-23.0","5eacb823eb3ceb32de9b6df3","5fef55e628823a0076ec12ee","602026fb92f028605f9e8e99","Mozilla/5.0 (Windows NT 10.0; Win64; x64) AppleWebKit/537.36 (KHTML, like Gecko) Chrome/86.0.4240.198 Safari/537.36 OPR/72.0.3815.487","v1-up-stims","","","","","","","","40,50,60,70,80","media/audio/stims/spherical_300cm_s20_c20_cd-full_matched_a60.wav","spherical","20","20","full","matched","60","60","5789"
"echo-presentation","24","644281","0.0-24.0","5eacb823eb3ceb32de9b6df3","5fef55e628823a0076ec12ee","602026fb92f028605f9e8e99","Mozilla/5.0 (Windows NT 10.0; Win64; x64) AppleWebKit/537.36 (KHTML, like Gecko) Chrome/86.0.4240.198 Safari/537.36 OPR/72.0.3815.487","v1-up-stims","","","","","","","","40,50,60,70,80","media/audio/stims/spherical_300cm_s20_c20_cd-full_matched_a70.wav","spherical","20","20","full","matched","70","50","1768"
"echo-presentation","25","646830","0.0-25.0","5eacb823eb3ceb32de9b6df3","5fef55e628823a0076ec12ee","602026fb92f028605f9e8e99","Mozilla/5.0 (Windows NT 10.0; Win64; x64) AppleWebKit/537.36 (KHTML, like Gecko) Chrome/86.0.4240.198 Safari/537.36 OPR/72.0.3815.487","v1-up-stims","","","","","","","","40,50,60,70,80","media/audio/stims/spherical_300cm_s20_c20_cd-full_matched_a70.wav","spherical","20","20","full","matched","70","50","1548"
"echo-presentation","26","650125","0.0-26.0","5eacb823eb3ceb32de9b6df3","5fef55e628823a0076ec12ee","602026fb92f028605f9e8e99","Mozilla/5.0 (Windows NT 10.0; Win64; x64) AppleWebKit/537.36 (KHTML, like Gecko) Chrome/86.0.4240.198 Safari/537.36 OPR/72.0.3815.487","v1-up-stims","","","","","","","","40,50,60,70,80","media/audio/stims/spherical_300cm_s20_c20_cd-full_matched_a50.wav","spherical","20","20","full","matched","50","50","2159"
"echo-presentation","27","652755","0.0-27.0","5eacb823eb3ceb32de9b6df3","5fef55e628823a0076ec12ee","602026fb92f028605f9e8e99","Mozilla/5.0 (Windows NT 10.0; Win64; x64) AppleWebKit/537.36 (KHTML, like Gecko) Chrome/86.0.4240.198 Safari/537.36 OPR/72.0.3815.487","v1-up-stims","","","","","","","","40,50,60,70,80","media/audio/stims/spherical_300cm_s20_c20_cd-full_matched_a80.wav","spherical","20","20","full","matched","80","60","1358"
"block-bookend","28","655830","0.0-28.0","5eacb823eb3ceb32de9b6df3","5fef55e628823a0076ec12ee","602026fb92f028605f9e8e99","Mozilla/5.0 (Windows NT 10.0; Win64; x64) AppleWebKit/537.36 (KHTML, like Gecko) Chrome/86.0.4240.198 Safari/537.36 OPR/72.0.3815.487","v1-up-stims","","","","","","","","","","","","","","","","",""
"block-bookend","29","679341","0.0-29.0","5eacb823eb3ceb32de9b6df3","5fef55e628823a0076ec12ee","602026fb92f028605f9e8e99","Mozilla/5.0 (Windows NT 10.0; Win64; x64) AppleWebKit/537.36 (KHTML, like Gecko) Chrome/86.0.4240.198 Safari/537.36 OPR/72.0.3815.487","v1-up-stims","","","","","","","","","","","","","","","","",""
"echo-presentation","30","710155","0.0-30.0","5eacb823eb3ceb32de9b6df3","5fef55e628823a0076ec12ee","602026fb92f028605f9e8e99","Mozilla/5.0 (Windows NT 10.0; Win64; x64) AppleWebKit/537.36 (KHTML, like Gecko) Chrome/86.0.4240.198 Safari/537.36 OPR/72.0.3815.487","v1-up-stims","","","","","","","","40,50,60,70,80","media/audio/stims/spherical_300cm_s20_c20_cd-full_matched_a80.wav","spherical","20","20","full","matched","80","50","28347"
"echo-presentation","31","713462","0.0-31.0","5eacb823eb3ceb32de9b6df3","5fef55e628823a0076ec12ee","602026fb92f028605f9e8e99","Mozilla/5.0 (Windows NT 10.0; Win64; x64) AppleWebKit/537.36 (KHTML, like Gecko) Chrome/86.0.4240.198 Safari/537.36 OPR/72.0.3815.487","v1-up-stims","","","","","","","","40,50,60,70,80","media/audio/stims/spherical_300cm_s20_c20_cd-full_matched_a80.wav","spherical","20","20","full","matched","80","50","2040"
"echo-presentation","32","717341","0.0-32.0","5eacb823eb3ceb32de9b6df3","5fef55e628823a0076ec12ee","602026fb92f028605f9e8e99","Mozilla/5.0 (Windows NT 10.0; Win64; x64) AppleWebKit/537.36 (KHTML, like Gecko) Chrome/86.0.4240.198 Safari/537.36 OPR/72.0.3815.487","v1-up-stims","","","","","","","","40,50,60,70,80","media/audio/stims/spherical_300cm_s20_c20_cd-full_matched_a50.wav","spherical","20","20","full","matched","50","70","2368"
"echo-presentation","33","720116","0.0-33.0","5eacb823eb3ceb32de9b6df3","5fef55e628823a0076ec12ee","602026fb92f028605f9e8e99","Mozilla/5.0 (Windows NT 10.0; Win64; x64) AppleWebKit/537.36 (KHTML, like Gecko) Chrome/86.0.4240.198 Safari/537.36 OPR/72.0.3815.487","v1-up-stims","","","","","","","","40,50,60,70,80","media/audio/stims/spherical_300cm_s20_c20_cd-full_matched_a80.wav","spherical","20","20","full","matched","80","50","1669"
"echo-presentation","34","722911","0.0-34.0","5eacb823eb3ceb32de9b6df3","5fef55e628823a0076ec12ee","602026fb92f028605f9e8e99","Mozilla/5.0 (Windows NT 10.0; Win64; x64) AppleWebKit/537.36 (KHTML, like Gecko) Chrome/86.0.4240.198 Safari/537.36 OPR/72.0.3815.487","v1-up-stims","","","","","","","","40,50,60,70,80","media/audio/stims/spherical_300cm_s20_c20_cd-full_matched_a40.wav","spherical","20","20","full","matched","40","60","1628"
"echo-presentation","35","726493","0.0-35.0","5eacb823eb3ceb32de9b6df3","5fef55e628823a0076ec12ee","602026fb92f028605f9e8e99","Mozilla/5.0 (Windows NT 10.0; Win64; x64) AppleWebKit/537.36 (KHTML, like Gecko) Chrome/86.0.4240.198 Safari/537.36 OPR/72.0.3815.487","v1-up-stims","","","","","","","","40,50,60,70,80","media/audio/stims/spherical_300cm_s20_c20_cd-full_matched_a50.wav","spherical","20","20","full","matched","50","50","2017"
"echo-presentation","36","729906","0.0-36.0","5eacb823eb3ceb32de9b6df3","5fef55e628823a0076ec12ee","602026fb92f028605f9e8e99","Mozilla/5.0 (Windows NT 10.0; Win64; x64) AppleWebKit/537.36 (KHTML, like Gecko) Chrome/86.0.4240.198 Safari/537.36 OPR/72.0.3815.487","v1-up-stims","","","","","","","","40,50,60,70,80","media/audio/stims/spherical_300cm_s20_c20_cd-full_matched_a40.wav","spherical","20","20","full","matched","40","60","1319"
"echo-presentation","37","735729","0.0-37.0","5eacb823eb3ceb32de9b6df3","5fef55e628823a0076ec12ee","602026fb92f028605f9e8e99","Mozilla/5.0 (Windows NT 10.0; Win64; x64) AppleWebKit/537.36 (KHTML, like Gecko) Chrome/86.0.4240.198 Safari/537.36 OPR/72.0.3815.487","v1-up-stims","","","","","","","","40,50,60,70,80","media/audio/stims/spherical_300cm_s20_c20_cd-full_matched_a60.wav","spherical","20","20","full","matched","60","60","2358"
"echo-presentation","38","739880","0.0-38.0","5eacb823eb3ceb32de9b6df3","5fef55e628823a0076ec12ee","602026fb92f028605f9e8e99","Mozilla/5.0 (Windows NT 10.0; Win64; x64) AppleWebKit/537.36 (KHTML, like Gecko) Chrome/86.0.4240.198 Safari/537.36 OPR/72.0.3815.487","v1-up-stims","","","","","","","","40,50,60,70,80","media/audio/stims/spherical_300cm_s20_c20_cd-full_matched_a70.wav","spherical","20","20","full","matched","70","60","2939"
"echo-presentation","39","743684","0.0-39.0","5eacb823eb3ceb32de9b6df3","5fef55e628823a0076ec12ee","602026fb92f028605f9e8e99","Mozilla/5.0 (Windows NT 10.0; Win64; x64) AppleWebKit/537.36 (KHTML, like Gecko) Chrome/86.0.4240.198 Safari/537.36 OPR/72.0.3815.487","v1-up-stims","","","","","","","","40,50,60,70,80","media/audio/stims/spherical_300cm_s20_c20_cd-full_matched_a40.wav","spherical","20","20","full","matched","40","60","2848"
"echo-presentation","40","750393","0.0-40.0","5eacb823eb3ceb32de9b6df3","5fef55e628823a0076ec12ee","602026fb92f028605f9e8e99","Mozilla/5.0 (Windows NT 10.0; Win64; x64) AppleWebKit/537.36 (KHTML, like Gecko) Chrome/86.0.4240.198 Safari/537.36 OPR/72.0.3815.487","v1-up-stims","","","","","","","","40,50,60,70,80","media/audio/stims/spherical_300cm_s20_c20_cd-full_matched_a40.wav","spherical","20","20","full","matched","40","60","4958"
"echo-presentation","41","753814","0.0-41.0","5eacb823eb3ceb32de9b6df3","5fef55e628823a0076ec12ee","602026fb92f028605f9e8e99","Mozilla/5.0 (Windows NT 10.0; Win64; x64) AppleWebKit/537.36 (KHTML, like Gecko) Chrome/86.0.4240.198 Safari/537.36 OPR/72.0.3815.487","v1-up-stims","","","","","","","","40,50,60,70,80","media/audio/stims/spherical_300cm_s20_c20_cd-full_matched_a60.wav","spherical","20","20","full","matched","60","70","2389"
"echo-presentation","42","758827","0.0-42.0","5eacb823eb3ceb32de9b6df3","5fef55e628823a0076ec12ee","602026fb92f028605f9e8e99","Mozilla/5.0 (Windows NT 10.0; Win64; x64) AppleWebKit/537.36 (KHTML, like Gecko) Chrome/86.0.4240.198 Safari/537.36 OPR/72.0.3815.487","v1-up-stims","","","","","","","","40,50,60,70,80","media/audio/stims/spherical_300cm_s20_c20_cd-full_matched_a80.wav","spherical","20","20","full","matched","80","50","4068"
"echo-presentation","43","761808","0.0-43.0","5eacb823eb3ceb32de9b6df3","5fef55e628823a0076ec12ee","602026fb92f028605f9e8e99","Mozilla/5.0 (Windows NT 10.0; Win64; x64) AppleWebKit/537.36 (KHTML, like Gecko) Chrome/86.0.4240.198 Safari/537.36 OPR/72.0.3815.487","v1-up-stims","","","","","","","","40,50,60,70,80","media/audio/stims/spherical_300cm_s20_c20_cd-full_matched_a50.wav","spherical","20","20","full","matched","50","60","1849"
"echo-presentation","44","767056","0.0-44.0","5eacb823eb3ceb32de9b6df3","5fef55e628823a0076ec12ee","602026fb92f028605f9e8e99","Mozilla/5.0 (Windows NT 10.0; Win64; x64) AppleWebKit/537.36 (KHTML, like Gecko) Chrome/86.0.4240.198 Safari/537.36 OPR/72.0.3815.487","v1-up-stims","","","","","","","","40,50,60,70,80","media/audio/stims/spherical_300cm_s20_c20_cd-full_matched_a50.wav","spherical","20","20","full","matched","50","70","4129"
"echo-presentation","45","770257","0.0-45.0","5eacb823eb3ceb32de9b6df3","5fef55e628823a0076ec12ee","602026fb92f028605f9e8e99","Mozilla/5.0 (Windows NT 10.0; Win64; x64) AppleWebKit/537.36 (KHTML, like Gecko) Chrome/86.0.4240.198 Safari/537.36 OPR/72.0.3815.487","v1-up-stims","","","","","","","","40,50,60,70,80","media/audio/stims/spherical_300cm_s20_c20_cd-full_matched_a70.wav","spherical","20","20","full","matched","70","60","2099"
"echo-presentation","46","773462","0.0-46.0","5eacb823eb3ceb32de9b6df3","5fef55e628823a0076ec12ee","602026fb92f028605f9e8e99","Mozilla/5.0 (Windows NT 10.0; Win64; x64) AppleWebKit/537.36 (KHTML, like Gecko) Chrome/86.0.4240.198 Safari/537.36 OPR/72.0.3815.487","v1-up-stims","","","","","","","","40,50,60,70,80","media/audio/stims/spherical_300cm_s20_c20_cd-full_matched_a70.wav","spherical","20","20","full","matched","70","60","2187"
"echo-presentation","47","776083","0.0-47.0","5eacb823eb3ceb32de9b6df3","5fef55e628823a0076ec12ee","602026fb92f028605f9e8e99","Mozilla/5.0 (Windows NT 10.0; Win64; x64) AppleWebKit/537.36 (KHTML, like Gecko) Chrome/86.0.4240.198 Safari/537.36 OPR/72.0.3815.487","v1-up-stims","","","","","","","","40,50,60,70,80","media/audio/stims/spherical_300cm_s20_c20_cd-full_matched_a60.wav","spherical","20","20","full","matched","60","60","1718"
"echo-presentation","48","780034","0.0-48.0","5eacb823eb3ceb32de9b6df3","5fef55e628823a0076ec12ee","602026fb92f028605f9e8e99","Mozilla/5.0 (Windows NT 10.0; Win64; x64) AppleWebKit/537.36 (KHTML, like Gecko) Chrome/86.0.4240.198 Safari/537.36 OPR/72.0.3815.487","v1-up-stims","","","","","","","","40,50,60,70,80","media/audio/stims/spherical_300cm_s20_c20_cd-full_matched_a70.wav","spherical","20","20","full","matched","70","70","2719"
"echo-presentation","49","783514","0.0-49.0","5eacb823eb3ceb32de9b6df3","5fef55e628823a0076ec12ee","602026fb92f028605f9e8e99","Mozilla/5.0 (Windows NT 10.0; Win64; x64) AppleWebKit/537.36 (KHTML, like Gecko) Chrome/86.0.4240.198 Safari/537.36 OPR/72.0.3815.487","v1-up-stims","","","","","","","","40,50,60,70,80","media/audio/stims/spherical_300cm_s20_c20_cd-full_matched_a60.wav","spherical","20","20","full","matched","60","80","2319"
"block-bookend","50","786890","0.0-50.0","5eacb823eb3ceb32de9b6df3","5fef55e628823a0076ec12ee","602026fb92f028605f9e8e99","Mozilla/5.0 (Windows NT 10.0; Win64; x64) AppleWebKit/537.36 (KHTML, like Gecko) Chrome/86.0.4240.198 Safari/537.36 OPR/72.0.3815.487","v1-up-stims","","","","","","","","","","","","","","","","",""
"block-bookend","51","795859","0.0-51.0","5eacb823eb3ceb32de9b6df3","5fef55e628823a0076ec12ee","602026fb92f028605f9e8e99","Mozilla/5.0 (Windows NT 10.0; Win64; x64) AppleWebKit/537.36 (KHTML, like Gecko) Chrome/86.0.4240.198 Safari/537.36 OPR/72.0.3815.487","v1-up-stims","","","","","","","","","","","","","","","","",""
"echo-presentation","52","805672","0.0-52.0","5eacb823eb3ceb32de9b6df3","5fef55e628823a0076ec12ee","602026fb92f028605f9e8e99","Mozilla/5.0 (Windows NT 10.0; Win64; x64) AppleWebKit/537.36 (KHTML, like Gecko) Chrome/86.0.4240.198 Safari/537.36 OPR/72.0.3815.487","v1-up-stims","","","","","","","","-20,-10,0,10,20","media/audio/stims/spherical_300cm_s20_c20_cd-full_matched_a10.wav","spherical","20","20","full","matched","10","-10","7567"
"echo-presentation","53","808462","0.0-53.0","5eacb823eb3ceb32de9b6df3","5fef55e628823a0076ec12ee","602026fb92f028605f9e8e99","Mozilla/5.0 (Windows NT 10.0; Win64; x64) AppleWebKit/537.36 (KHTML, like Gecko) Chrome/86.0.4240.198 Safari/537.36 OPR/72.0.3815.487","v1-up-stims","","","","","","","","-20,-10,0,10,20","media/audio/stims/spherical_300cm_s20_c20_cd-full_matched_a-10.wav","spherical","20","20","full","matched","-10","-20","1510"
"echo-presentation","54","817462","0.0-54.0","5eacb823eb3ceb32de9b6df3","5fef55e628823a0076ec12ee","602026fb92f028605f9e8e99","Mozilla/5.0 (Windows NT 10.0; Win64; x64) AppleWebKit/537.36 (KHTML, like Gecko) Chrome/86.0.4240.198 Safari/537.36 OPR/72.0.3815.487","v1-up-stims","","","","","","","","-20,-10,0,10,20","media/audio/stims/spherical_300cm_s20_c20_cd-full_matched_a20.wav","spherical","20","20","full","matched","20","10","6409"
"echo-presentation","55","819969","0.0-55.0","5eacb823eb3ceb32de9b6df3","5fef55e628823a0076ec12ee","602026fb92f028605f9e8e99","Mozilla/5.0 (Windows NT 10.0; Win64; x64) AppleWebKit/537.36 (KHTML, like Gecko) Chrome/86.0.4240.198 Safari/537.36 OPR/72.0.3815.487","v1-up-stims","","","","","","","","-20,-10,0,10,20","media/audio/stims/spherical_300cm_s20_c20_cd-full_matched_a0.wav","spherical","20","20","full","matched","0","-20","1599"
"echo-presentation","56","824796","0.0-56.0","5eacb823eb3ceb32de9b6df3","5fef55e628823a0076ec12ee","602026fb92f028605f9e8e99","Mozilla/5.0 (Windows NT 10.0; Win64; x64) AppleWebKit/537.36 (KHTML, like Gecko) Chrome/86.0.4240.198 Safari/537.36 OPR/72.0.3815.487","v1-up-stims","","","","","","","","-20,-10,0,10,20","media/audio/stims/spherical_300cm_s20_c20_cd-full_matched_a20.wav","spherical","20","20","full","matched","20","10","3769"
"echo-presentation","57","827186","0.0-57.0","5eacb823eb3ceb32de9b6df3","5fef55e628823a0076ec12ee","602026fb92f028605f9e8e99","Mozilla/5.0 (Windows NT 10.0; Win64; x64) AppleWebKit/537.36 (KHTML, like Gecko) Chrome/86.0.4240.198 Safari/537.36 OPR/72.0.3815.487","v1-up-stims","","","","","","","","-20,-10,0,10,20","media/audio/stims/spherical_300cm_s20_c20_cd-full_matched_a0.wav","spherical","20","20","full","matched","0","-20","1419"
"echo-presentation","58","833564","0.0-58.0","5eacb823eb3ceb32de9b6df3","5fef55e628823a0076ec12ee","602026fb92f028605f9e8e99","Mozilla/5.0 (Windows NT 10.0; Win64; x64) AppleWebKit/537.36 (KHTML, like Gecko) Chrome/86.0.4240.198 Safari/537.36 OPR/72.0.3815.487","v1-up-stims","","","","","","","","-20,-10,0,10,20","media/audio/stims/spherical_300cm_s20_c20_cd-full_matched_a20.wav","spherical","20","20","full","matched","20","20","5509"
"echo-presentation","59","836324","0.0-59.0","5eacb823eb3ceb32de9b6df3","5fef55e628823a0076ec12ee","602026fb92f028605f9e8e99","Mozilla/5.0 (Windows NT 10.0; Win64; x64) AppleWebKit/537.36 (KHTML, like Gecko) Chrome/86.0.4240.198 Safari/537.36 OPR/72.0.3815.487","v1-up-stims","","","","","","","","-20,-10,0,10,20","media/audio/stims/spherical_300cm_s20_c20_cd-full_matched_a-20.wav","spherical","20","20","full","matched","-20","-20","1858"
"echo-presentation","60","838612","0.0-60.0","5eacb823eb3ceb32de9b6df3","5fef55e628823a0076ec12ee","602026fb92f028605f9e8e99","Mozilla/5.0 (Windows NT 10.0; Win64; x64) AppleWebKit/537.36 (KHTML, like Gecko) Chrome/86.0.4240.198 Safari/537.36 OPR/72.0.3815.487","v1-up-stims","","","","","","","","-20,-10,0,10,20","media/audio/stims/spherical_300cm_s20_c20_cd-full_matched_a-10.wav","spherical","20","20","full","matched","-10","-20","1247"
"echo-presentation","61","841097","0.0-61.0","5eacb823eb3ceb32de9b6df3","5fef55e628823a0076ec12ee","602026fb92f028605f9e8e99","Mozilla/5.0 (Windows NT 10.0; Win64; x64) AppleWebKit/537.36 (KHTML, like Gecko) Chrome/86.0.4240.198 Safari/537.36 OPR/72.0.3815.487","v1-up-stims","","","","","","","","-20,-10,0,10,20","media/audio/stims/spherical_300cm_s20_c20_cd-full_matched_a0.wav","spherical","20","20","full","matched","0","-10","1577"
"echo-presentation","62","843833","0.0-62.0","5eacb823eb3ceb32de9b6df3","5fef55e628823a0076ec12ee","602026fb92f028605f9e8e99","Mozilla/5.0 (Windows NT 10.0; Win64; x64) AppleWebKit/537.36 (KHTML, like Gecko) Chrome/86.0.4240.198 Safari/537.36 OPR/72.0.3815.487","v1-up-stims","","","","","","","","-20,-10,0,10,20","media/audio/stims/spherical_300cm_s20_c20_cd-full_matched_a-10.wav","spherical","20","20","full","matched","-10","-20","1709"
"echo-presentation","63","847056","0.0-63.0","5eacb823eb3ceb32de9b6df3","5fef55e628823a0076ec12ee","602026fb92f028605f9e8e99","Mozilla/5.0 (Windows NT 10.0; Win64; x64) AppleWebKit/537.36 (KHTML, like Gecko) Chrome/86.0.4240.198 Safari/537.36 OPR/72.0.3815.487","v1-up-stims","","","","","","","","-20,-10,0,10,20","media/audio/stims/spherical_300cm_s20_c20_cd-full_matched_a0.wav","spherical","20","20","full","matched","0","-20","2288"
"echo-presentation","64","850002","0.0-64.0","5eacb823eb3ceb32de9b6df3","5fef55e628823a0076ec12ee","602026fb92f028605f9e8e99","Mozilla/5.0 (Windows NT 10.0; Win64; x64) AppleWebKit/537.36 (KHTML, like Gecko) Chrome/86.0.4240.198 Safari/537.36 OPR/72.0.3815.487","v1-up-stims","","","","","","","","-20,-10,0,10,20","media/audio/stims/spherical_300cm_s20_c20_cd-full_matched_a10.wav","spherical","20","20","full","matched","10","20","1989"
"echo-presentation","65","856580","0.0-65.0","5eacb823eb3ceb32de9b6df3","5fef55e628823a0076ec12ee","602026fb92f028605f9e8e99","Mozilla/5.0 (Windows NT 10.0; Win64; x64) AppleWebKit/537.36 (KHTML, like Gecko) Chrome/86.0.4240.198 Safari/537.36 OPR/72.0.3815.487","v1-up-stims","","","","","","","","-20,-10,0,10,20","media/audio/stims/spherical_300cm_s20_c20_cd-full_matched_a-20.wav","spherical","20","20","full","matched","-20","-20","5699"
"echo-presentation","66","860001","0.0-66.0","5eacb823eb3ceb32de9b6df3","5fef55e628823a0076ec12ee","602026fb92f028605f9e8e99","Mozilla/5.0 (Windows NT 10.0; Win64; x64) AppleWebKit/537.36 (KHTML, like Gecko) Chrome/86.0.4240.198 Safari/537.36 OPR/72.0.3815.487","v1-up-stims","","","","","","","","-20,-10,0,10,20","media/audio/stims/spherical_300cm_s20_c20_cd-full_matched_a10.wav","spherical","20","20","full","matched","10","20","2599"
"echo-presentation","67","862832","0.0-67.0","5eacb823eb3ceb32de9b6df3","5fef55e628823a0076ec12ee","602026fb92f028605f9e8e99","Mozilla/5.0 (Windows NT 10.0; Win64; x64) AppleWebKit/537.36 (KHTML, like Gecko) Chrome/86.0.4240.198 Safari/537.36 OPR/72.0.3815.487","v1-up-stims","","","","","","","","-20,-10,0,10,20","media/audio/stims/spherical_300cm_s20_c20_cd-full_matched_a-20.wav","spherical","20","20","full","matched","-20","-20","1958"
"echo-presentation","68","865962","0.0-68.0","5eacb823eb3ceb32de9b6df3","5fef55e628823a0076ec12ee","602026fb92f028605f9e8e99","Mozilla/5.0 (Windows NT 10.0; Win64; x64) AppleWebKit/537.36 (KHTML, like Gecko) Chrome/86.0.4240.198 Safari/537.36 OPR/72.0.3815.487","v1-up-stims","","","","","","","","-20,-10,0,10,20","media/audio/stims/spherical_300cm_s20_c20_cd-full_matched_a20.wav","spherical","20","20","full","matched","20","10","2258"
"echo-presentation","69","868139","0.0-69.0","5eacb823eb3ceb32de9b6df3","5fef55e628823a0076ec12ee","602026fb92f028605f9e8e99","Mozilla/5.0 (Windows NT 10.0; Win64; x64) AppleWebKit/537.36 (KHTML, like Gecko) Chrome/86.0.4240.198 Safari/537.36 OPR/72.0.3815.487","v1-up-stims","","","","","","","","-20,-10,0,10,20","media/audio/stims/spherical_300cm_s20_c20_cd-full_matched_a-20.wav","spherical","20","20","full","matched","-20","-20","1177"
"echo-presentation","70","870680","0.0-70.0","5eacb823eb3ceb32de9b6df3","5fef55e628823a0076ec12ee","602026fb92f028605f9e8e99","Mozilla/5.0 (Windows NT 10.0; Win64; x64) AppleWebKit/537.36 (KHTML, like Gecko) Chrome/86.0.4240.198 Safari/537.36 OPR/72.0.3815.487","v1-up-stims","","","","","","","","-20,-10,0,10,20","media/audio/stims/spherical_300cm_s20_c20_cd-full_matched_a10.wav","spherical","20","20","full","matched","10","10","1728"
"echo-presentation","71","873384","0.0-71.0","5eacb823eb3ceb32de9b6df3","5fef55e628823a0076ec12ee","602026fb92f028605f9e8e99","Mozilla/5.0 (Windows NT 10.0; Win64; x64) AppleWebKit/537.36 (KHTML, like Gecko) Chrome/86.0.4240.198 Safari/537.36 OPR/72.0.3815.487","v1-up-stims","","","","","","","","-20,-10,0,10,20","media/audio/stims/spherical_300cm_s20_c20_cd-full_matched_a-10.wav","spherical","20","20","full","matched","-10","-20","1878"
"block-bookend","72","875250","0.0-72.0","5eacb823eb3ceb32de9b6df3","5fef55e628823a0076ec12ee","602026fb92f028605f9e8e99","Mozilla/5.0 (Windows NT 10.0; Win64; x64) AppleWebKit/537.36 (KHTML, like Gecko) Chrome/86.0.4240.198 Safari/537.36 OPR/72.0.3815.487","v1-up-stims","","","","","","","","","","","","","","","","",""
"block-bookend","73","891479","0.0-73.0","5eacb823eb3ceb32de9b6df3","5fef55e628823a0076ec12ee","602026fb92f028605f9e8e99","Mozilla/5.0 (Windows NT 10.0; Win64; x64) AppleWebKit/537.36 (KHTML, like Gecko) Chrome/86.0.4240.198 Safari/537.36 OPR/72.0.3815.487","v1-up-stims","","","","","","","","","","","","","","","","",""
"echo-presentation","74","895115","0.0-74.0","5eacb823eb3ceb32de9b6df3","5fef55e628823a0076ec12ee","602026fb92f028605f9e8e99","Mozilla/5.0 (Windows NT 10.0; Win64; x64) AppleWebKit/537.36 (KHTML, like Gecko) Chrome/86.0.4240.198 Safari/537.36 OPR/72.0.3815.487","v1-up-stims","","","","","","","","-20,-10,0,10,20","media/audio/stims/spherical_300cm_s20_c20_cd-full_matched_a0.wav","spherical","20","20","full","matched","0","0","2429"
"echo-presentation","75","897315","0.0-75.0","5eacb823eb3ceb32de9b6df3","5fef55e628823a0076ec12ee","602026fb92f028605f9e8e99","Mozilla/5.0 (Windows NT 10.0; Win64; x64) AppleWebKit/537.36 (KHTML, like Gecko) Chrome/86.0.4240.198 Safari/537.36 OPR/72.0.3815.487","v1-up-stims","","","","","","","","-20,-10,0,10,20","media/audio/stims/spherical_300cm_s20_c20_cd-full_matched_a-10.wav","spherical","20","20","full","matched","-10","-20","1348"
"echo-presentation","76","899859","0.0-76.0","5eacb823eb3ceb32de9b6df3","5fef55e628823a0076ec12ee","602026fb92f028605f9e8e99","Mozilla/5.0 (Windows NT 10.0; Win64; x64) AppleWebKit/537.36 (KHTML, like Gecko) Chrome/86.0.4240.198 Safari/537.36 OPR/72.0.3815.487","v1-up-stims","","","","","","","","-20,-10,0,10,20","media/audio/stims/spherical_300cm_s20_c20_cd-full_matched_a0.wav","spherical","20","20","full","matched","0","-10","1440"
"echo-presentation","77","902739","0.0-77.0","5eacb823eb3ceb32de9b6df3","5fef55e628823a0076ec12ee","602026fb92f028605f9e8e99","Mozilla/5.0 (Windows NT 10.0; Win64; x64) AppleWebKit/537.36 (KHTML, like Gecko) Chrome/86.0.4240.198 Safari/537.36 OPR/72.0.3815.487","v1-up-stims","","","","","","","","-20,-10,0,10,20","media/audio/stims/spherical_300cm_s20_c20_cd-full_matched_a20.wav","spherical","20","20","full","matched","20","20","2048"
"echo-presentation","78","904580","0.0-78.0","5eacb823eb3ceb32de9b6df3","5fef55e628823a0076ec12ee","602026fb92f028605f9e8e99","Mozilla/5.0 (Windows NT 10.0; Win64; x64) AppleWebKit/537.36 (KHTML, like Gecko) Chrome/86.0.4240.198 Safari/537.36 OPR/72.0.3815.487","v1-up-stims","","","","","","","","-20,-10,0,10,20","media/audio/stims/spherical_300cm_s20_c20_cd-full_matched_a-10.wav","spherical","20","20","full","matched","-10","-20","1028"
"echo-presentation","79","906347","0.0-79.0","5eacb823eb3ceb32de9b6df3","5fef55e628823a0076ec12ee","602026fb92f028605f9e8e99","Mozilla/5.0 (Windows NT 10.0; Win64; x64) AppleWebKit/537.36 (KHTML, like Gecko) Chrome/86.0.4240.198 Safari/537.36 OPR/72.0.3815.487","v1-up-stims","","","","","","","","-20,-10,0,10,20","media/audio/stims/spherical_300cm_s20_c20_cd-full_matched_a-20.wav","spherical","20","20","full","matched","-20","-20","978"
"echo-presentation","80","908821","0.0-80.0","5eacb823eb3ceb32de9b6df3","5fef55e628823a0076ec12ee","602026fb92f028605f9e8e99","Mozilla/5.0 (Windows NT 10.0; Win64; x64) AppleWebKit/537.36 (KHTML, like Gecko) Chrome/86.0.4240.198 Safari/537.36 OPR/72.0.3815.487","v1-up-stims","","","","","","","","-20,-10,0,10,20","media/audio/stims/spherical_300cm_s20_c20_cd-full_matched_a-10.wav","spherical","20","20","full","matched","-10","-10","1687"
"echo-presentation","81","911163","0.0-81.0","5eacb823eb3ceb32de9b6df3","5fef55e628823a0076ec12ee","602026fb92f028605f9e8e99","Mozilla/5.0 (Windows NT 10.0; Win64; x64) AppleWebKit/537.36 (KHTML, like Gecko) Chrome/86.0.4240.198 Safari/537.36 OPR/72.0.3815.487","v1-up-stims","","","","","","","","-20,-10,0,10,20","media/audio/stims/spherical_300cm_s20_c20_cd-full_matched_a-20.wav","spherical","20","20","full","matched","-20","-20","1258"
"echo-presentation","82","913454","0.0-82.0","5eacb823eb3ceb32de9b6df3","5fef55e628823a0076ec12ee","602026fb92f028605f9e8e99","Mozilla/5.0 (Windows NT 10.0; Win64; x64) AppleWebKit/537.36 (KHTML, like Gecko) Chrome/86.0.4240.198 Safari/537.36 OPR/72.0.3815.487","v1-up-stims","","","","","","","","-20,-10,0,10,20","media/audio/stims/spherical_300cm_s20_c20_cd-full_matched_a10.wav","spherical","20","20","full","matched","10","10","1378"
"echo-presentation","83","919839","0.0-83.0","5eacb823eb3ceb32de9b6df3","5fef55e628823a0076ec12ee","602026fb92f028605f9e8e99","Mozilla/5.0 (Windows NT 10.0; Win64; x64) AppleWebKit/537.36 (KHTML, like Gecko) Chrome/86.0.4240.198 Safari/537.36 OPR/72.0.3815.487","v1-up-stims","","","","","","","","-20,-10,0,10,20","media/audio/stims/spherical_300cm_s20_c20_cd-full_matched_a10.wav","spherical","20","20","full","matched","10","20","1529"
"echo-presentation","84","922074","0.0-84.0","5eacb823eb3ceb32de9b6df3","5fef55e628823a0076ec12ee","602026fb92f028605f9e8e99","Mozilla/5.0 (Windows NT 10.0; Win64; x64) AppleWebKit/537.36 (KHTML, like Gecko) Chrome/86.0.4240.198 Safari/537.36 OPR/72.0.3815.487","v1-up-stims","","","","","","","","-20,-10,0,10,20","media/audio/stims/spherical_300cm_s20_c20_cd-full_matched_a20.wav","spherical","20","20","full","matched","20","20","1308"
"echo-presentation","85","924249","0.0-85.0","5eacb823eb3ceb32de9b6df3","5fef55e628823a0076ec12ee","602026fb92f028605f9e8e99","Mozilla/5.0 (Windows NT 10.0; Win64; x64) AppleWebKit/537.36 (KHTML, like Gecko) Chrome/86.0.4240.198 Safari/537.36 OPR/72.0.3815.487","v1-up-stims","","","","","","","","-20,-10,0,10,20","media/audio/stims/spherical_300cm_s20_c20_cd-full_matched_a-20.wav","spherical","20","20","full","matched","-20","-20","1277"
"echo-presentation","86","928296","0.0-86.0","5eacb823eb3ceb32de9b6df3","5fef55e628823a0076ec12ee","602026fb92f028605f9e8e99","Mozilla/5.0 (Windows NT 10.0; Win64; x64) AppleWebKit/537.36 (KHTML, like Gecko) Chrome/86.0.4240.198 Safari/537.36 OPR/72.0.3815.487","v1-up-stims","","","","","","","","-20,-10,0,10,20","media/audio/stims/spherical_300cm_s20_c20_cd-full_matched_a0.wav","spherical","20","20","full","matched","0","0","2808"
"echo-presentation","87","931569","0.0-87.0","5eacb823eb3ceb32de9b6df3","5fef55e628823a0076ec12ee","602026fb92f028605f9e8e99","Mozilla/5.0 (Windows NT 10.0; Win64; x64) AppleWebKit/537.36 (KHTML, like Gecko) Chrome/86.0.4240.198 Safari/537.36 OPR/72.0.3815.487","v1-up-stims","","","","","","","","-20,-10,0,10,20","media/audio/stims/spherical_300cm_s20_c20_cd-full_matched_a-10.wav","spherical","20","20","full","matched","-10","-20","2198"
"echo-presentation","88","937273","0.0-88.0","5eacb823eb3ceb32de9b6df3","5fef55e628823a0076ec12ee","602026fb92f028605f9e8e99","Mozilla/5.0 (Windows NT 10.0; Win64; x64) AppleWebKit/537.36 (KHTML, like Gecko) Chrome/86.0.4240.198 Safari/537.36 OPR/72.0.3815.487","v1-up-stims","","","","","","","","-20,-10,0,10,20","media/audio/stims/spherical_300cm_s20_c20_cd-full_matched_a10.wav","spherical","20","20","full","matched","10","20","5078"
"echo-presentation","89","939644","0.0-89.0","5eacb823eb3ceb32de9b6df3","5fef55e628823a0076ec12ee","602026fb92f028605f9e8e99","Mozilla/5.0 (Windows NT 10.0; Win64; x64) AppleWebKit/537.36 (KHTML, like Gecko) Chrome/86.0.4240.198 Safari/537.36 OPR/72.0.3815.487","v1-up-stims","","","","","","","","-20,-10,0,10,20","media/audio/stims/spherical_300cm_s20_c20_cd-full_matched_a0.wav","spherical","20","20","full","matched","0","0","1556"
"echo-presentation","90","942063","0.0-90.0","5eacb823eb3ceb32de9b6df3","5fef55e628823a0076ec12ee","602026fb92f028605f9e8e99","Mozilla/5.0 (Windows NT 10.0; Win64; x64) AppleWebKit/537.36 (KHTML, like Gecko) Chrome/86.0.4240.198 Safari/537.36 OPR/72.0.3815.487","v1-up-stims","","","","","","","","-20,-10,0,10,20","media/audio/stims/spherical_300cm_s20_c20_cd-full_matched_a20.wav","spherical","20","20","full","matched","20","20","1569"
"echo-presentation","91","944612","0.0-91.0","5eacb823eb3ceb32de9b6df3","5fef55e628823a0076ec12ee","602026fb92f028605f9e8e99","Mozilla/5.0 (Windows NT 10.0; Win64; x64) AppleWebKit/537.36 (KHTML, like Gecko) Chrome/86.0.4240.198 Safari/537.36 OPR/72.0.3815.487","v1-up-stims","","","","","","","","-20,-10,0,10,20","media/audio/stims/spherical_300cm_s20_c20_cd-full_matched_a-20.wav","spherical","20","20","full","matched","-20","-10","1809"
"echo-presentation","92","947132","0.0-92.0","5eacb823eb3ceb32de9b6df3","5fef55e628823a0076ec12ee","602026fb92f028605f9e8e99","Mozilla/5.0 (Windows NT 10.0; Win64; x64) AppleWebKit/537.36 (KHTML, like Gecko) Chrome/86.0.4240.198 Safari/537.36 OPR/72.0.3815.487","v1-up-stims","","","","","","","","-20,-10,0,10,20","media/audio/stims/spherical_300cm_s20_c20_cd-full_matched_a10.wav","spherical","20","20","full","matched","10","10","1559"
"echo-presentation","93","949333","0.0-93.0","5eacb823eb3ceb32de9b6df3","5fef55e628823a0076ec12ee","602026fb92f028605f9e8e99","Mozilla/5.0 (Windows NT 10.0; Win64; x64) AppleWebKit/537.36 (KHTML, like Gecko) Chrome/86.0.4240.198 Safari/537.36 OPR/72.0.3815.487","v1-up-stims","","","","","","","","-20,-10,0,10,20","media/audio/stims/spherical_300cm_s20_c20_cd-full_matched_a20.wav","spherical","20","20","full","matched","20","10","1379"
"block-bookend","94","950779","0.0-94.0","5eacb823eb3ceb32de9b6df3","5fef55e628823a0076ec12ee","602026fb92f028605f9e8e99","Mozilla/5.0 (Windows NT 10.0; Win64; x64) AppleWebKit/537.36 (KHTML, like Gecko) Chrome/86.0.4240.198 Safari/537.36 OPR/72.0.3815.487","v1-up-stims","","","","","","","","","","","","","","","","",""
"block-bookend","95","957469","0.0-95.0","5eacb823eb3ceb32de9b6df3","5fef55e628823a0076ec12ee","602026fb92f028605f9e8e99","Mozilla/5.0 (Windows NT 10.0; Win64; x64) AppleWebKit/537.36 (KHTML, like Gecko) Chrome/86.0.4240.198 Safari/537.36 OPR/72.0.3815.487","v1-up-stims","","","","","","","","","","","","","","","","",""
"echo-presentation","96","962528","0.0-96.0","5eacb823eb3ceb32de9b6df3","5fef55e628823a0076ec12ee","602026fb92f028605f9e8e99","Mozilla/5.0 (Windows NT 10.0; Win64; x64) AppleWebKit/537.36 (KHTML, like Gecko) Chrome/86.0.4240.198 Safari/537.36 OPR/72.0.3815.487","v1-up-stims","","","","","","","","-80,-70,-60,-50,-40","media/audio/stims/spherical_300cm_s20_c20_cd-full_matched_a-50.wav","spherical","20","20","full","matched","-50","-70","3288"
"echo-presentation","97","965628","0.0-97.0","5eacb823eb3ceb32de9b6df3","5fef55e628823a0076ec12ee","602026fb92f028605f9e8e99","Mozilla/5.0 (Windows NT 10.0; Win64; x64) AppleWebKit/537.36 (KHTML, like Gecko) Chrome/86.0.4240.198 Safari/537.36 OPR/72.0.3815.487","v1-up-stims","","","","","","","","-80,-70,-60,-50,-40","media/audio/stims/spherical_300cm_s20_c20_cd-full_matched_a-60.wav","spherical","20","20","full","matched","-60","-80","2048"
"echo-presentation","98","967952","0.0-98.0","5eacb823eb3ceb32de9b6df3","5fef55e628823a0076ec12ee","602026fb92f028605f9e8e99","Mozilla/5.0 (Windows NT 10.0; Win64; x64) AppleWebKit/537.36 (KHTML, like Gecko) Chrome/86.0.4240.198 Safari/537.36 OPR/72.0.3815.487","v1-up-stims","","","","","","","","-80,-70,-60,-50,-40","media/audio/stims/spherical_300cm_s20_c20_cd-full_matched_a-80.wav","spherical","20","20","full","matched","-80","-80","1419"
"echo-presentation","99","970414","0.0-99.0","5eacb823eb3ceb32de9b6df3","5fef55e628823a0076ec12ee","602026fb92f028605f9e8e99","Mozilla/5.0 (Windows NT 10.0; Win64; x64) AppleWebKit/537.36 (KHTML, like Gecko) Chrome/86.0.4240.198 Safari/537.36 OPR/72.0.3815.487","v1-up-stims","","","","","","","","-80,-70,-60,-50,-40","media/audio/stims/spherical_300cm_s20_c20_cd-full_matched_a-40.wav","spherical","20","20","full","matched","-40","-70","1689"
"echo-presentation","100","972923","0.0-100.0","5eacb823eb3ceb32de9b6df3","5fef55e628823a0076ec12ee","602026fb92f028605f9e8e99","Mozilla/5.0 (Windows NT 10.0; Win64; x64) AppleWebKit/537.36 (KHTML, like Gecko) Chrome/86.0.4240.198 Safari/537.36 OPR/72.0.3815.487","v1-up-stims","","","","","","","","-80,-70,-60,-50,-40","media/audio/stims/spherical_300cm_s20_c20_cd-full_matched_a-80.wav","spherical","20","20","full","matched","-80","-80","1229"
"echo-presentation","101","975236","0.0-101.0","5eacb823eb3ceb32de9b6df3","5fef55e628823a0076ec12ee","602026fb92f028605f9e8e99","Mozilla/5.0 (Windows NT 10.0; Win64; x64) AppleWebKit/537.36 (KHTML, like Gecko) Chrome/86.0.4240.198 Safari/537.36 OPR/72.0.3815.487","v1-up-stims","","","","","","","","-80,-70,-60,-50,-40","media/audio/stims/spherical_300cm_s20_c20_cd-full_matched_a-70.wav","spherical","20","20","full","matched","-70","-80","1538"
"echo-presentation","102","977224","0.0-102.0","5eacb823eb3ceb32de9b6df3","5fef55e628823a0076ec12ee","602026fb92f028605f9e8e99","Mozilla/5.0 (Windows NT 10.0; Win64; x64) AppleWebKit/537.36 (KHTML, like Gecko) Chrome/86.0.4240.198 Safari/537.36 OPR/72.0.3815.487","v1-up-stims","","","","","","","","-80,-70,-60,-50,-40","media/audio/stims/spherical_300cm_s20_c20_cd-full_matched_a-50.wav","spherical","20","20","full","matched","-50","-70","1309"
"echo-presentation","103","979420","0.0-103.0","5eacb823eb3ceb32de9b6df3","5fef55e628823a0076ec12ee","602026fb92f028605f9e8e99","Mozilla/5.0 (Windows NT 10.0; Win64; x64) AppleWebKit/537.36 (KHTML, like Gecko) Chrome/86.0.4240.198 Safari/537.36 OPR/72.0.3815.487","v1-up-stims","","","","","","","","-80,-70,-60,-50,-40","media/audio/stims/spherical_300cm_s20_c20_cd-full_matched_a-40.wav","spherical","20","20","full","matched","-40","-70","1329"
"echo-presentation","104","982305","0.0-104.0","5eacb823eb3ceb32de9b6df3","5fef55e628823a0076ec12ee","602026fb92f028605f9e8e99","Mozilla/5.0 (Windows NT 10.0; Win64; x64) AppleWebKit/537.36 (KHTML, like Gecko) Chrome/86.0.4240.198 Safari/537.36 OPR/72.0.3815.487","v1-up-stims","","","","","","","","-80,-70,-60,-50,-40","media/audio/stims/spherical_300cm_s20_c20_cd-full_matched_a-60.wav","spherical","20","20","full","matched","-60","-60","1949"
"echo-presentation","105","986706","0.0-105.0","5eacb823eb3ceb32de9b6df3","5fef55e628823a0076ec12ee","602026fb92f028605f9e8e99","Mozilla/5.0 (Windows NT 10.0; Win64; x64) AppleWebKit/537.36 (KHTML, like Gecko) Chrome/86.0.4240.198 Safari/537.36 OPR/72.0.3815.487","v1-up-stims","","","","","","","","-80,-70,-60,-50,-40","media/audio/stims/spherical_300cm_s20_c20_cd-full_matched_a-70.wav","spherical","20","20","full","matched","-70","-50","3399"
"echo-presentation","106","988792","0.0-106.0","5eacb823eb3ceb32de9b6df3","5fef55e628823a0076ec12ee","602026fb92f028605f9e8e99","Mozilla/5.0 (Windows NT 10.0; Win64; x64) AppleWebKit/537.36 (KHTML, like Gecko) Chrome/86.0.4240.198 Safari/537.36 OPR/72.0.3815.487","v1-up-stims","","","","","","","","-80,-70,-60,-50,-40","media/audio/stims/spherical_300cm_s20_c20_cd-full_matched_a-70.wav","spherical","20","20","full","matched","-70","-80","1148"
"echo-presentation","107","991767","0.0-107.0","5eacb823eb3ceb32de9b6df3","5fef55e628823a0076ec12ee","602026fb92f028605f9e8e99","Mozilla/5.0 (Windows NT 10.0; Win64; x64) AppleWebKit/537.36 (KHTML, like Gecko) Chrome/86.0.4240.198 Safari/537.36 OPR/72.0.3815.487","v1-up-stims","","","","","","","","-80,-70,-60,-50,-40","media/audio/stims/spherical_300cm_s20_c20_cd-full_matched_a-80.wav","spherical","20","20","full","matched","-80","-70","2149"
"echo-presentation","108","995865","0.0-108.0","5eacb823eb3ceb32de9b6df3","5fef55e628823a0076ec12ee","602026fb92f028605f9e8e99","Mozilla/5.0 (Windows NT 10.0; Win64; x64) AppleWebKit/537.36 (KHTML, like Gecko) Chrome/86.0.4240.198 Safari/537.36 OPR/72.0.3815.487","v1-up-stims","","","","","","","","-80,-70,-60,-50,-40","media/audio/stims/spherical_300cm_s20_c20_cd-full_matched_a-50.wav","spherical","20","20","full","matched","-50","-60","2568"
"echo-presentation","109","1000905","0.0-109.0","5eacb823eb3ceb32de9b6df3","5fef55e628823a0076ec12ee","602026fb92f028605f9e8e99","Mozilla/5.0 (Windows NT 10.0; Win64; x64) AppleWebKit/537.36 (KHTML, like Gecko) Chrome/86.0.4240.198 Safari/537.36 OPR/72.0.3815.487","v1-up-stims","","","","","","","","-80,-70,-60,-50,-40","media/audio/stims/spherical_300cm_s20_c20_cd-full_matched_a-60.wav","spherical","20","20","full","matched","-60","-70","3498"
"echo-presentation","110","1003480","0.0-110.0","5eacb823eb3ceb32de9b6df3","5fef55e628823a0076ec12ee","602026fb92f028605f9e8e99","Mozilla/5.0 (Windows NT 10.0; Win64; x64) AppleWebKit/537.36 (KHTML, like Gecko) Chrome/86.0.4240.198 Safari/537.36 OPR/72.0.3815.487","v1-up-stims","","","","","","","","-80,-70,-60,-50,-40","media/audio/stims/spherical_300cm_s20_c20_cd-full_matched_a-50.wav","spherical","20","20","full","matched","-50","-50","1858"
"echo-presentation","111","1005720","0.0-111.0","5eacb823eb3ceb32de9b6df3","5fef55e628823a0076ec12ee","602026fb92f028605f9e8e99","Mozilla/5.0 (Windows NT 10.0; Win64; x64) AppleWebKit/537.36 (KHTML, like Gecko) Chrome/86.0.4240.198 Safari/537.36 OPR/72.0.3815.487","v1-up-stims","","","","","","","","-80,-70,-60,-50,-40","media/audio/stims/spherical_300cm_s20_c20_cd-full_matched_a-80.wav","spherical","20","20","full","matched","-80","-80","1289"
"echo-presentation","112","1009405","0.0-112.0","5eacb823eb3ceb32de9b6df3","5fef55e628823a0076ec12ee","602026fb92f028605f9e8e99","Mozilla/5.0 (Windows NT 10.0; Win64; x64) AppleWebKit/537.36 (KHTML, like Gecko) Chrome/86.0.4240.198 Safari/537.36 OPR/72.0.3815.487","v1-up-stims","","","","","","","","-80,-70,-60,-50,-40","media/audio/stims/spherical_300cm_s20_c20_cd-full_matched_a-60.wav","spherical","20","20","full","matched","-60","-70","2698"
"echo-presentation","113","1012886","0.0-113.0","5eacb823eb3ceb32de9b6df3","5fef55e628823a0076ec12ee","602026fb92f028605f9e8e99","Mozilla/5.0 (Windows NT 10.0; Win64; x64) AppleWebKit/537.36 (KHTML, like Gecko) Chrome/86.0.4240.198 Safari/537.36 OPR/72.0.3815.487","v1-up-stims","","","","","","","","-80,-70,-60,-50,-40","media/audio/stims/spherical_300cm_s20_c20_cd-full_matched_a-40.wav","spherical","20","20","full","matched","-40","-50","2209"
"echo-presentation","114","1015489","0.0-114.0","5eacb823eb3ceb32de9b6df3","5fef55e628823a0076ec12ee","602026fb92f028605f9e8e99","Mozilla/5.0 (Windows NT 10.0; Win64; x64) AppleWebKit/537.36 (KHTML, like Gecko) Chrome/86.0.4240.198 Safari/537.36 OPR/72.0.3815.487","v1-up-stims","","","","","","","","-80,-70,-60,-50,-40","media/audio/stims/spherical_300cm_s20_c20_cd-full_matched_a-70.wav","spherical","20","20","full","matched","-70","-40","1748"
"echo-presentation","115","1017761","0.0-115.0","5eacb823eb3ceb32de9b6df3","5fef55e628823a0076ec12ee","602026fb92f028605f9e8e99","Mozilla/5.0 (Windows NT 10.0; Win64; x64) AppleWebKit/537.36 (KHTML, like Gecko) Chrome/86.0.4240.198 Safari/537.36 OPR/72.0.3815.487","v1-up-stims","","","","","","","","-80,-70,-60,-50,-40","media/audio/stims/spherical_300cm_s20_c20_cd-full_matched_a-40.wav","spherical","20","20","full","matched","-40","-80","1239"
"block-bookend","116","1019899","0.0-116.0","5eacb823eb3ceb32de9b6df3","5fef55e628823a0076ec12ee","602026fb92f028605f9e8e99","Mozilla/5.0 (Windows NT 10.0; Win64; x64) AppleWebKit/537.36 (KHTML, like Gecko) Chrome/86.0.4240.198 Safari/537.36 OPR/72.0.3815.487","v1-up-stims","","","","","","","","","","","","","","","","",""
"block-bookend","117","1033199","0.0-117.0","5eacb823eb3ceb32de9b6df3","5fef55e628823a0076ec12ee","602026fb92f028605f9e8e99","Mozilla/5.0 (Windows NT 10.0; Win64; x64) AppleWebKit/537.36 (KHTML, like Gecko) Chrome/86.0.4240.198 Safari/537.36 OPR/72.0.3815.487","v1-up-stims","","","","","","","","","","","","","","","","",""
"echo-presentation","118","1038689","0.0-118.0","5eacb823eb3ceb32de9b6df3","5fef55e628823a0076ec12ee","602026fb92f028605f9e8e99","Mozilla/5.0 (Windows NT 10.0; Win64; x64) AppleWebKit/537.36 (KHTML, like Gecko) Chrome/86.0.4240.198 Safari/537.36 OPR/72.0.3815.487","v1-up-stims","","","","","","","","-80,-70,-60,-50,-40","media/audio/stims/spherical_300cm_s20_c20_cd-full_matched_a-50.wav","spherical","20","20","full","matched","-50","-60","3998"
"echo-presentation","119","1041415","0.0-119.0","5eacb823eb3ceb32de9b6df3","5fef55e628823a0076ec12ee","602026fb92f028605f9e8e99","Mozilla/5.0 (Windows NT 10.0; Win64; x64) AppleWebKit/537.36 (KHTML, like Gecko) Chrome/86.0.4240.198 Safari/537.36 OPR/72.0.3815.487","v1-up-stims","","","","","","","","-80,-70,-60,-50,-40","media/audio/stims/spherical_300cm_s20_c20_cd-full_matched_a-80.wav","spherical","20","20","full","matched","-80","-80","1997"
"echo-presentation","120","1043482","0.0-120.0","5eacb823eb3ceb32de9b6df3","5fef55e628823a0076ec12ee","602026fb92f028605f9e8e99","Mozilla/5.0 (Windows NT 10.0; Win64; x64) AppleWebKit/537.36 (KHTML, like Gecko) Chrome/86.0.4240.198 Safari/537.36 OPR/72.0.3815.487","v1-up-stims","","","","","","","","-80,-70,-60,-50,-40","media/audio/stims/spherical_300cm_s20_c20_cd-full_matched_a-60.wav","spherical","20","20","full","matched","-60","-80","1299"
"echo-presentation","121","1047056","0.0-121.0","5eacb823eb3ceb32de9b6df3","5fef55e628823a0076ec12ee","602026fb92f028605f9e8e99","Mozilla/5.0 (Windows NT 10.0; Win64; x64) AppleWebKit/537.36 (KHTML, like Gecko) Chrome/86.0.4240.198 Safari/537.36 OPR/72.0.3815.487","v1-up-stims","","","","","","","","-80,-70,-60,-50,-40","media/audio/stims/spherical_300cm_s20_c20_cd-full_matched_a-40.wav","spherical","20","20","full","matched","-40","-50","2368"
"echo-presentation","122","1051121","0.0-122.0","5eacb823eb3ceb32de9b6df3","5fef55e628823a0076ec12ee","602026fb92f028605f9e8e99","Mozilla/5.0 (Windows NT 10.0; Win64; x64) AppleWebKit/537.36 (KHTML, like Gecko) Chrome/86.0.4240.198 Safari/537.36 OPR/72.0.3815.487","v1-up-stims","","","","","","","","-80,-70,-60,-50,-40","media/audio/stims/spherical_300cm_s20_c20_cd-full_matched_a-70.wav","spherical","20","20","full","matched","-70","-50","3278"
"echo-presentation","123","1057015","0.0-123.0","5eacb823eb3ceb32de9b6df3","5fef55e628823a0076ec12ee","602026fb92f028605f9e8e99","Mozilla/5.0 (Windows NT 10.0; Win64; x64) AppleWebKit/537.36 (KHTML, like Gecko) Chrome/86.0.4240.198 Safari/537.36 OPR/72.0.3815.487","v1-up-stims","","","","","","","","-80,-70,-60,-50,-40","media/audio/stims/spherical_300cm_s20_c20_cd-full_matched_a-60.wav","spherical","20","20","full","matched","-60","-60","5009"
"echo-presentation","124","1061263","0.0-124.0","5eacb823eb3ceb32de9b6df3","5fef55e628823a0076ec12ee","602026fb92f028605f9e8e99","Mozilla/5.0 (Windows NT 10.0; Win64; x64) AppleWebKit/537.36 (KHTML, like Gecko) Chrome/86.0.4240.198 Safari/537.36 OPR/72.0.3815.487","v1-up-stims","","","","","","","","-80,-70,-60,-50,-40","media/audio/stims/spherical_300cm_s20_c20_cd-full_matched_a-70.wav","spherical","20","20","full","matched","-70","-80","3309"
"echo-presentation","125","1063773","0.0-125.0","5eacb823eb3ceb32de9b6df3","5fef55e628823a0076ec12ee","602026fb92f028605f9e8e99","Mozilla/5.0 (Windows NT 10.0; Win64; x64) AppleWebKit/537.36 (KHTML, like Gecko) Chrome/86.0.4240.198 Safari/537.36 OPR/72.0.3815.487","v1-up-stims","","","","","","","","-80,-70,-60,-50,-40","media/audio/stims/spherical_300cm_s20_c20_cd-full_matched_a-70.wav","spherical","20","20","full","matched","-70","-80","1579"
"echo-presentation","126","1065929","0.0-126.0","5eacb823eb3ceb32de9b6df3","5fef55e628823a0076ec12ee","602026fb92f028605f9e8e99","Mozilla/5.0 (Windows NT 10.0; Win64; x64) AppleWebKit/537.36 (KHTML, like Gecko) Chrome/86.0.4240.198 Safari/537.36 OPR/72.0.3815.487","v1-up-stims","","","","","","","","-80,-70,-60,-50,-40","media/audio/stims/spherical_300cm_s20_c20_cd-full_matched_a-70.wav","spherical","20","20","full","matched","-70","-70","1339"
"echo-presentation","127","1069346","0.0-127.0","5eacb823eb3ceb32de9b6df3","5fef55e628823a0076ec12ee","602026fb92f028605f9e8e99","Mozilla/5.0 (Windows NT 10.0; Win64; x64) AppleWebKit/537.36 (KHTML, like Gecko) Chrome/86.0.4240.198 Safari/537.36 OPR/72.0.3815.487","v1-up-stims","","","","","","","","-80,-70,-60,-50,-40","media/audio/stims/spherical_300cm_s20_c20_cd-full_matched_a-80.wav","spherical","20","20","full","matched","-80","-80","2658"
"echo-presentation","128","1072154","0.0-128.0","5eacb823eb3ceb32de9b6df3","5fef55e628823a0076ec12ee","602026fb92f028605f9e8e99","Mozilla/5.0 (Windows NT 10.0; Win64; x64) AppleWebKit/537.36 (KHTML, like Gecko) Chrome/86.0.4240.198 Safari/537.36 OPR/72.0.3815.487","v1-up-stims","","","","","","","","-80,-70,-60,-50,-40","media/audio/stims/spherical_300cm_s20_c20_cd-full_matched_a-40.wav","spherical","20","20","full","matched","-40","-40","1738"
"echo-presentation","129","1075193","0.0-129.0","5eacb823eb3ceb32de9b6df3","5fef55e628823a0076ec12ee","602026fb92f028605f9e8e99","Mozilla/5.0 (Windows NT 10.0; Win64; x64) AppleWebKit/537.36 (KHTML, like Gecko) Chrome/86.0.4240.198 Safari/537.36 OPR/72.0.3815.487","v1-up-stims","","","","","","","","-80,-70,-60,-50,-40","media/audio/stims/spherical_300cm_s20_c20_cd-full_matched_a-40.wav","spherical","20","20","full","matched","-40","-60","2109"
"echo-presentation","130","1078213","0.0-130.0","5eacb823eb3ceb32de9b6df3","5fef55e628823a0076ec12ee","602026fb92f028605f9e8e99","Mozilla/5.0 (Windows NT 10.0; Win64; x64) AppleWebKit/537.36 (KHTML, like Gecko) Chrome/86.0.4240.198 Safari/537.36 OPR/72.0.3815.487","v1-up-stims","","","","","","","","-80,-70,-60,-50,-40","media/audio/stims/spherical_300cm_s20_c20_cd-full_matched_a-60.wav","spherical","20","20","full","matched","-60","-50","2147"
"echo-presentation","131","1083592","0.0-131.0","5eacb823eb3ceb32de9b6df3","5fef55e628823a0076ec12ee","602026fb92f028605f9e8e99","Mozilla/5.0 (Windows NT 10.0; Win64; x64) AppleWebKit/537.36 (KHTML, like Gecko) Chrome/86.0.4240.198 Safari/537.36 OPR/72.0.3815.487","v1-up-stims","","","","","","","","-80,-70,-60,-50,-40","media/audio/stims/spherical_300cm_s20_c20_cd-full_matched_a-60.wav","spherical","20","20","full","matched","-60","-50","4567"
"echo-presentation","132","1086753","0.0-132.0","5eacb823eb3ceb32de9b6df3","5fef55e628823a0076ec12ee","602026fb92f028605f9e8e99","Mozilla/5.0 (Windows NT 10.0; Win64; x64) AppleWebKit/537.36 (KHTML, like Gecko) Chrome/86.0.4240.198 Safari/537.36 OPR/72.0.3815.487","v1-up-stims","","","","","","","","-80,-70,-60,-50,-40","media/audio/stims/spherical_300cm_s20_c20_cd-full_matched_a-80.wav","spherical","20","20","full","matched","-80","-40","2028"
"echo-presentation","133","1089138","0.0-133.0","5eacb823eb3ceb32de9b6df3","5fef55e628823a0076ec12ee","602026fb92f028605f9e8e99","Mozilla/5.0 (Windows NT 10.0; Win64; x64) AppleWebKit/537.36 (KHTML, like Gecko) Chrome/86.0.4240.198 Safari/537.36 OPR/72.0.3815.487","v1-up-stims","","","","","","","","-80,-70,-60,-50,-40","media/audio/stims/spherical_300cm_s20_c20_cd-full_matched_a-80.wav","spherical","20","20","full","matched","-80","-80","1359"
"echo-presentation","134","1091930","0.0-134.0","5eacb823eb3ceb32de9b6df3","5fef55e628823a0076ec12ee","602026fb92f028605f9e8e99","Mozilla/5.0 (Windows NT 10.0; Win64; x64) AppleWebKit/537.36 (KHTML, like Gecko) Chrome/86.0.4240.198 Safari/537.36 OPR/72.0.3815.487","v1-up-stims","","","","","","","","-80,-70,-60,-50,-40","media/audio/stims/spherical_300cm_s20_c20_cd-full_matched_a-50.wav","spherical","20","20","full","matched","-50","-50","1938"
"echo-presentation","135","1094462","0.0-135.0","5eacb823eb3ceb32de9b6df3","5fef55e628823a0076ec12ee","602026fb92f028605f9e8e99","Mozilla/5.0 (Windows NT 10.0; Win64; x64) AppleWebKit/537.36 (KHTML, like Gecko) Chrome/86.0.4240.198 Safari/537.36 OPR/72.0.3815.487","v1-up-stims","","","","","","","","-80,-70,-60,-50,-40","media/audio/stims/spherical_300cm_s20_c20_cd-full_matched_a-50.wav","spherical","20","20","full","matched","-50","-80","1539"
"echo-presentation","136","1097211","0.0-136.0","5eacb823eb3ceb32de9b6df3","5fef55e628823a0076ec12ee","602026fb92f028605f9e8e99","Mozilla/5.0 (Windows NT 10.0; Win64; x64) AppleWebKit/537.36 (KHTML, like Gecko) Chrome/86.0.4240.198 Safari/537.36 OPR/72.0.3815.487","v1-up-stims","","","","","","","","-80,-70,-60,-50,-40","media/audio/stims/spherical_300cm_s20_c20_cd-full_matched_a-50.wav","spherical","20","20","full","matched","-50","-80","1408"
"echo-presentation","137","1099569","0.0-137.0","5eacb823eb3ceb32de9b6df3","5fef55e628823a0076ec12ee","602026fb92f028605f9e8e99","Mozilla/5.0 (Windows NT 10.0; Win64; x64) AppleWebKit/537.36 (KHTML, like Gecko) Chrome/86.0.4240.198 Safari/537.36 OPR/72.0.3815.487","v1-up-stims","","","","","","","","-80,-70,-60,-50,-40","media/audio/stims/spherical_300cm_s20_c20_cd-full_matched_a-40.wav","spherical","20","20","full","matched","-40","-70","1368"
"block-bookend","138","1102708","0.0-138.0","5eacb823eb3ceb32de9b6df3","5fef55e628823a0076ec12ee","602026fb92f028605f9e8e99","Mozilla/5.0 (Windows NT 10.0; Win64; x64) AppleWebKit/537.36 (KHTML, like Gecko) Chrome/86.0.4240.198 Safari/537.36 OPR/72.0.3815.487","v1-up-stims","","","","","","","","","","","","","","","","",""
