"trial_type","trial_index","time_elapsed","internal_node_id","prolificPid","studyId","sessionId","userAgent","rt","stimulus","key_press","chosenKeyset","failureCount","testIndex","globalVolume","choices","filename","slowdown","compensation","compensationDescriptor","receiverOrientationType","azimuth","responseAzimuth","responseDelay"
"pavlovia","0","1","0.0-0.0","null","null","null","Mozilla/5.0 (Macintosh; Intel Mac OS X 10_15_6) AppleWebKit/605.1.15 (KHTML, like Gecko) Version/14.0.2 Safari/605.1.15","","","","","","","","","","","","","","","",""
"html-keyboard-response","1","39050","0.0-1.0","null","null","null","Mozilla/5.0 (Macintosh; Intel Mac OS X 10_15_6) AppleWebKit/605.1.15 (KHTML, like Gecko) Version/14.0.2 Safari/605.1.15","39047","<div><h1>Welcome!</h1><p>Press any key to continue.</p></div>","76","","","","","","","","","","","","",""
"consent-form","2","369336","0.0-2.0","null","null","null","Mozilla/5.0 (Macintosh; Intel Mac OS X 10_15_6) AppleWebKit/605.1.15 (KHTML, like Gecko) Version/14.0.2 Safari/605.1.15","","","","","","","","","","","","","","","",""
"keyset-select","3","415006","0.0-3.0","null","null","null","Mozilla/5.0 (Macintosh; Intel Mac OS X 10_15_6) AppleWebKit/605.1.15 (KHTML, like Gecko) Version/14.0.2 Safari/605.1.15","","","","right-hand","","","","","","","","","","","",""
"headphone-check","4","507360","0.0-4.0","null","null","null","Mozilla/5.0 (Macintosh; Intel Mac OS X 10_15_6) AppleWebKit/605.1.15 (KHTML, like Gecko) Version/14.0.2 Safari/605.1.15","","","","","1","6","0.3","","","","","","","","",""
"headphone-backwards-check","5","536710","0.0-5.0","null","null","null","Mozilla/5.0 (Macintosh; Intel Mac OS X 10_15_6) AppleWebKit/605.1.15 (KHTML, like Gecko) Version/14.0.2 Safari/605.1.15","","","","","0","","","","","","","","","","",""
"training","6","763440","0.0-6.0","null","null","null","Mozilla/5.0 (Macintosh; Intel Mac OS X 10_15_6) AppleWebKit/605.1.15 (KHTML, like Gecko) Version/14.0.2 Safari/605.1.15","","","","","","","","","","","","","","","",""
"block-bookend","7","770881","0.0-7.0","null","null","null","Mozilla/5.0 (Macintosh; Intel Mac OS X 10_15_6) AppleWebKit/605.1.15 (KHTML, like Gecko) Version/14.0.2 Safari/605.1.15","","","","","","","","","","","","","","","",""
"echo-presentation","8","783363","0.0-8.0","null","null","null","Mozilla/5.0 (Macintosh; Intel Mac OS X 10_15_6) AppleWebKit/605.1.15 (KHTML, like Gecko) Version/14.0.2 Safari/605.1.15","","","","","","","","50,55,60,65,70","media/audio/stims/spherical_300cm_s16_c8_cd-half_matched_a50.wav","16","8","half","matched","50","65","4623"
"echo-presentation","9","790954","0.0-9.0","null","null","null","Mozilla/5.0 (Macintosh; Intel Mac OS X 10_15_6) AppleWebKit/605.1.15 (KHTML, like Gecko) Version/14.0.2 Safari/605.1.15","","","","","","","","50,55,60,65,70","media/audio/stims/spherical_300cm_s16_c8_cd-half_matched_a55.wav","16","8","half","matched","55","",""
"echo-presentation","10","795781","0.0-10.0","null","null","null","Mozilla/5.0 (Macintosh; Intel Mac OS X 10_15_6) AppleWebKit/605.1.15 (KHTML, like Gecko) Version/14.0.2 Safari/605.1.15","","","","","","","","50,55,60,65,70","media/audio/stims/spherical_300cm_s16_c8_cd-half_matched_a50.wav","16","8","half","matched","50","65","2434"
"echo-presentation","11","803053","0.0-11.0","null","null","null","Mozilla/5.0 (Macintosh; Intel Mac OS X 10_15_6) AppleWebKit/605.1.15 (KHTML, like Gecko) Version/14.0.2 Safari/605.1.15","","","","","","","","50,55,60,65,70","media/audio/stims/spherical_300cm_s16_c8_cd-half_matched_a60.wav","16","8","half","matched","60","70","3479"
"echo-presentation","12","809658","0.0-12.0","null","null","null","Mozilla/5.0 (Macintosh; Intel Mac OS X 10_15_6) AppleWebKit/605.1.15 (KHTML, like Gecko) Version/14.0.2 Safari/605.1.15","","","","","","","","50,55,60,65,70","media/audio/stims/spherical_300cm_s16_c8_cd-half_matched_a65.wav","16","8","half","matched","65","65","3604"
"echo-presentation","13","816234","0.0-13.0","null","null","null","Mozilla/5.0 (Macintosh; Intel Mac OS X 10_15_6) AppleWebKit/605.1.15 (KHTML, like Gecko) Version/14.0.2 Safari/605.1.15","","","","","","","","50,55,60,65,70","media/audio/stims/spherical_300cm_s16_c8_cd-half_matched_a65.wav","16","8","half","matched","65","55","3748"
"echo-presentation","14","823141","0.0-14.0","null","null","null","Mozilla/5.0 (Macintosh; Intel Mac OS X 10_15_6) AppleWebKit/605.1.15 (KHTML, like Gecko) Version/14.0.2 Safari/605.1.15","","","","","","","","50,55,60,65,70","media/audio/stims/spherical_300cm_s16_c8_cd-half_matched_a55.wav","16","8","half","matched","55","60","3115"
"echo-presentation","15","830544","0.0-15.0","null","null","null","Mozilla/5.0 (Macintosh; Intel Mac OS X 10_15_6) AppleWebKit/605.1.15 (KHTML, like Gecko) Version/14.0.2 Safari/605.1.15","","","","","","","","50,55,60,65,70","media/audio/stims/spherical_300cm_s16_c8_cd-half_matched_a70.wav","16","8","half","matched","70","70","3752"
"echo-presentation","16","837558","0.0-16.0","null","null","null","Mozilla/5.0 (Macintosh; Intel Mac OS X 10_15_6) AppleWebKit/605.1.15 (KHTML, like Gecko) Version/14.0.2 Safari/605.1.15","","","","","","","","50,55,60,65,70","media/audio/stims/spherical_300cm_s16_c8_cd-half_matched_a60.wav","16","8","half","matched","60","",""
"echo-presentation","17","841357","0.0-17.0","null","null","null","Mozilla/5.0 (Macintosh; Intel Mac OS X 10_15_6) AppleWebKit/605.1.15 (KHTML, like Gecko) Version/14.0.2 Safari/605.1.15","","","","","","","","50,55,60,65,70","media/audio/stims/spherical_300cm_s16_c8_cd-half_matched_a70.wav","16","8","half","matched","70","55","3184"
"block-bookend","18","851107","0.0-18.0","null","null","null","Mozilla/5.0 (Macintosh; Intel Mac OS X 10_15_6) AppleWebKit/605.1.15 (KHTML, like Gecko) Version/14.0.2 Safari/605.1.15","","","","","","","","","","","","","","","",""
"block-bookend","19","858117","0.0-19.0","null","null","null","Mozilla/5.0 (Macintosh; Intel Mac OS X 10_15_6) AppleWebKit/605.1.15 (KHTML, like Gecko) Version/14.0.2 Safari/605.1.15","","","","","","","","","","","","","","","",""
"echo-presentation","20","866657","0.0-20.0","null","null","null","Mozilla/5.0 (Macintosh; Intel Mac OS X 10_15_6) AppleWebKit/605.1.15 (KHTML, like Gecko) Version/14.0.2 Safari/605.1.15","","","","","","","","-40,-35,-30,-25,-20","media/audio/stims/spherical_300cm_s12_c1_cd-1_matched_a-20.wav","12","1","1","matched","-20","-25","4308"
"echo-presentation","21","876931","0.0-21.0","null","null","null","Mozilla/5.0 (Macintosh; Intel Mac OS X 10_15_6) AppleWebKit/605.1.15 (KHTML, like Gecko) Version/14.0.2 Safari/605.1.15","","","","","","","","-40,-35,-30,-25,-20","media/audio/stims/spherical_300cm_s12_c1_cd-1_matched_a-25.wav","12","1","1","matched","-25","-30","4021"
"echo-presentation","22","882810","0.0-22.0","null","null","null","Mozilla/5.0 (Macintosh; Intel Mac OS X 10_15_6) AppleWebKit/605.1.15 (KHTML, like Gecko) Version/14.0.2 Safari/605.1.15","","","","","","","","-40,-35,-30,-25,-20","media/audio/stims/spherical_300cm_s12_c1_cd-1_matched_a-30.wav","12","1","1","matched","-30","-35","3583"
"echo-presentation","23","888549","0.0-23.0","null","null","null","Mozilla/5.0 (Macintosh; Intel Mac OS X 10_15_6) AppleWebKit/605.1.15 (KHTML, like Gecko) Version/14.0.2 Safari/605.1.15","","","","","","","","-40,-35,-30,-25,-20","media/audio/stims/spherical_300cm_s12_c1_cd-1_matched_a-40.wav","12","1","1","matched","-40","-35","2612"
"echo-presentation","24","892669","0.0-24.0","null","null","null","Mozilla/5.0 (Macintosh; Intel Mac OS X 10_15_6) AppleWebKit/605.1.15 (KHTML, like Gecko) Version/14.0.2 Safari/605.1.15","","","","","","","","-40,-35,-30,-25,-20","media/audio/stims/spherical_300cm_s12_c1_cd-1_matched_a-25.wav","12","1","1","matched","-25","-25","1980"
"echo-presentation","25","899478","0.0-25.0","null","null","null","Mozilla/5.0 (Macintosh; Intel Mac OS X 10_15_6) AppleWebKit/605.1.15 (KHTML, like Gecko) Version/14.0.2 Safari/605.1.15","","","","","","","","-40,-35,-30,-25,-20","media/audio/stims/spherical_300cm_s12_c1_cd-1_matched_a-30.wav","12","1","1","matched","-30","-35","3015"
"echo-presentation","26","905951","0.0-26.0","null","null","null","Mozilla/5.0 (Macintosh; Intel Mac OS X 10_15_6) AppleWebKit/605.1.15 (KHTML, like Gecko) Version/14.0.2 Safari/605.1.15","","","","","","","","-40,-35,-30,-25,-20","media/audio/stims/spherical_300cm_s12_c1_cd-1_matched_a-35.wav","12","1","1","matched","-35","-35","3191"
"echo-presentation","27","911551","0.0-27.0","null","null","null","Mozilla/5.0 (Macintosh; Intel Mac OS X 10_15_6) AppleWebKit/605.1.15 (KHTML, like Gecko) Version/14.0.2 Safari/605.1.15","","","","","","","","-40,-35,-30,-25,-20","media/audio/stims/spherical_300cm_s12_c1_cd-1_matched_a-35.wav","12","1","1","matched","-35","-30","2871"
"echo-presentation","28","917325","0.0-28.0","null","null","null","Mozilla/5.0 (Macintosh; Intel Mac OS X 10_15_6) AppleWebKit/605.1.15 (KHTML, like Gecko) Version/14.0.2 Safari/605.1.15","","","","","","","","-40,-35,-30,-25,-20","media/audio/stims/spherical_300cm_s12_c1_cd-1_matched_a-40.wav","12","1","1","matched","-40","-35","2816"
"echo-presentation","29","922850","0.0-29.0","null","null","null","Mozilla/5.0 (Macintosh; Intel Mac OS X 10_15_6) AppleWebKit/605.1.15 (KHTML, like Gecko) Version/14.0.2 Safari/605.1.15","","","","","","","","-40,-35,-30,-25,-20","media/audio/stims/spherical_300cm_s12_c1_cd-1_matched_a-20.wav","12","1","1","matched","-20","-30","3462"
"block-bookend","30","934734","0.0-30.0","null","null","null","Mozilla/5.0 (Macintosh; Intel Mac OS X 10_15_6) AppleWebKit/605.1.15 (KHTML, like Gecko) Version/14.0.2 Safari/605.1.15","","","","","","","","","","","","","","","",""
"block-bookend","31","937553","0.0-31.0","null","null","null","Mozilla/5.0 (Macintosh; Intel Mac OS X 10_15_6) AppleWebKit/605.1.15 (KHTML, like Gecko) Version/14.0.2 Safari/605.1.15","","","","","","","","","","","","","","","",""
"echo-presentation","32","942098","0.0-32.0","null","null","null","Mozilla/5.0 (Macintosh; Intel Mac OS X 10_15_6) AppleWebKit/605.1.15 (KHTML, like Gecko) Version/14.0.2 Safari/605.1.15","","","","","","","","20,25,30,35,40","media/audio/stims/spherical_300cm_s12_c12_cd-full_matched_a20.wav","12","12","full","matched","20","40","2228"
"echo-presentation","33","946148","0.0-33.0","null","null","null","Mozilla/5.0 (Macintosh; Intel Mac OS X 10_15_6) AppleWebKit/605.1.15 (KHTML, like Gecko) Version/14.0.2 Safari/605.1.15","","","","","","","","20,25,30,35,40","media/audio/stims/spherical_300cm_s12_c12_cd-full_matched_a40.wav","12","12","full","matched","40","40","1678"
"echo-presentation","34","951627","0.0-34.0","null","null","null","Mozilla/5.0 (Macintosh; Intel Mac OS X 10_15_6) AppleWebKit/605.1.15 (KHTML, like Gecko) Version/14.0.2 Safari/605.1.15","","","","","","","","20,25,30,35,40","media/audio/stims/spherical_300cm_s12_c12_cd-full_matched_a35.wav","12","12","full","matched","35","35","2696"
"echo-presentation","35","956279","0.0-35.0","null","null","null","Mozilla/5.0 (Macintosh; Intel Mac OS X 10_15_6) AppleWebKit/605.1.15 (KHTML, like Gecko) Version/14.0.2 Safari/605.1.15","","","","","","","","20,25,30,35,40","media/audio/stims/spherical_300cm_s12_c12_cd-full_matched_a30.wav","12","12","full","matched","30","30","2727"
"echo-presentation","36","962185","0.0-36.0","null","null","null","Mozilla/5.0 (Macintosh; Intel Mac OS X 10_15_6) AppleWebKit/605.1.15 (KHTML, like Gecko) Version/14.0.2 Safari/605.1.15","","","","","","","","20,25,30,35,40","media/audio/stims/spherical_300cm_s12_c12_cd-full_matched_a25.wav","12","12","full","matched","25","25","3138"
"echo-presentation","37","970977","0.0-37.0","null","null","null","Mozilla/5.0 (Macintosh; Intel Mac OS X 10_15_6) AppleWebKit/605.1.15 (KHTML, like Gecko) Version/14.0.2 Safari/605.1.15","","","","","","","","20,25,30,35,40","media/audio/stims/spherical_300cm_s12_c12_cd-full_matched_a20.wav","12","12","full","matched","20","40","3080"
"echo-presentation","38","975691","0.0-38.0","null","null","null","Mozilla/5.0 (Macintosh; Intel Mac OS X 10_15_6) AppleWebKit/605.1.15 (KHTML, like Gecko) Version/14.0.2 Safari/605.1.15","","","","","","","","20,25,30,35,40","media/audio/stims/spherical_300cm_s12_c12_cd-full_matched_a40.wav","12","12","full","matched","40","40","3276"
"echo-presentation","39","981973","0.0-39.0","null","null","null","Mozilla/5.0 (Macintosh; Intel Mac OS X 10_15_6) AppleWebKit/605.1.15 (KHTML, like Gecko) Version/14.0.2 Safari/605.1.15","","","","","","","","20,25,30,35,40","media/audio/stims/spherical_300cm_s12_c12_cd-full_matched_a30.wav","12","12","full","matched","30","40","1674"
"echo-presentation","40","986785","0.0-40.0","null","null","null","Mozilla/5.0 (Macintosh; Intel Mac OS X 10_15_6) AppleWebKit/605.1.15 (KHTML, like Gecko) Version/14.0.2 Safari/605.1.15","","","","","","","","20,25,30,35,40","media/audio/stims/spherical_300cm_s12_c12_cd-full_matched_a35.wav","12","12","full","matched","35","35","3116"
"echo-presentation","41","994923","0.0-41.0","null","null","null","Mozilla/5.0 (Macintosh; Intel Mac OS X 10_15_6) AppleWebKit/605.1.15 (KHTML, like Gecko) Version/14.0.2 Safari/605.1.15","","","","","","","","20,25,30,35,40","media/audio/stims/spherical_300cm_s12_c12_cd-full_matched_a25.wav","12","12","full","matched","25","35","4186"
"block-bookend","42","1000209","0.0-42.0","null","null","null","Mozilla/5.0 (Macintosh; Intel Mac OS X 10_15_6) AppleWebKit/605.1.15 (KHTML, like Gecko) Version/14.0.2 Safari/605.1.15","","","","","","","","","","","","","","","",""
"block-bookend","43","1001321","0.0-43.0","null","null","null","Mozilla/5.0 (Macintosh; Intel Mac OS X 10_15_6) AppleWebKit/605.1.15 (KHTML, like Gecko) Version/14.0.2 Safari/605.1.15","","","","","","","","","","","","","","","",""
"echo-presentation","44","1010249","0.0-44.0","null","null","null","Mozilla/5.0 (Macintosh; Intel Mac OS X 10_15_6) AppleWebKit/605.1.15 (KHTML, like Gecko) Version/14.0.2 Safari/605.1.15","","","","","","","","-70,-65,-60,-55,-50","media/audio/stims/spherical_300cm_s20_c10_cd-half_matched_a-65.wav","20","10","half","matched","-65","-65","4006"
"echo-presentation","45","1015510","0.0-45.0","null","null","null","Mozilla/5.0 (Macintosh; Intel Mac OS X 10_15_6) AppleWebKit/605.1.15 (KHTML, like Gecko) Version/14.0.2 Safari/605.1.15","","","","","","","","-70,-65,-60,-55,-50","media/audio/stims/spherical_300cm_s20_c10_cd-half_matched_a-65.wav","20","10","half","matched","-65","-65","2727"
"echo-presentation","46","1020663","0.0-46.0","null","null","null","Mozilla/5.0 (Macintosh; Intel Mac OS X 10_15_6) AppleWebKit/605.1.15 (KHTML, like Gecko) Version/14.0.2 Safari/605.1.15","","","","","","","","-70,-65,-60,-55,-50","media/audio/stims/spherical_300cm_s20_c10_cd-half_matched_a-60.wav","20","10","half","matched","-60","-60","3185"
"echo-presentation","47","1025157","0.0-47.0","null","null","null","Mozilla/5.0 (Macintosh; Intel Mac OS X 10_15_6) AppleWebKit/605.1.15 (KHTML, like Gecko) Version/14.0.2 Safari/605.1.15","","","","","","","","-70,-65,-60,-55,-50","media/audio/stims/spherical_300cm_s20_c10_cd-half_matched_a-50.wav","20","10","half","matched","-50","-65","2369"
"echo-presentation","48","1032389","0.0-48.0","null","null","null","Mozilla/5.0 (Macintosh; Intel Mac OS X 10_15_6) AppleWebKit/605.1.15 (KHTML, like Gecko) Version/14.0.2 Safari/605.1.15","","","","","","","","-70,-65,-60,-55,-50","media/audio/stims/spherical_300cm_s20_c10_cd-half_matched_a-70.wav","20","10","half","matched","-70","-65","3724"
"echo-presentation","49","1035866","0.0-49.0","null","null","null","Mozilla/5.0 (Macintosh; Intel Mac OS X 10_15_6) AppleWebKit/605.1.15 (KHTML, like Gecko) Version/14.0.2 Safari/605.1.15","","","","","","","","-70,-65,-60,-55,-50","media/audio/stims/spherical_300cm_s20_c10_cd-half_matched_a-60.wav","20","10","half","matched","-60","-60","1530"
"echo-presentation","50","1040094","0.0-50.0","null","null","null","Mozilla/5.0 (Macintosh; Intel Mac OS X 10_15_6) AppleWebKit/605.1.15 (KHTML, like Gecko) Version/14.0.2 Safari/605.1.15","","","","","","","","-70,-65,-60,-55,-50","media/audio/stims/spherical_300cm_s20_c10_cd-half_matched_a-55.wav","20","10","half","matched","-55","-60","2056"
"echo-presentation","51","1045555","0.0-51.0","null","null","null","Mozilla/5.0 (Macintosh; Intel Mac OS X 10_15_6) AppleWebKit/605.1.15 (KHTML, like Gecko) Version/14.0.2 Safari/605.1.15","","","","","","","","-70,-65,-60,-55,-50","media/audio/stims/spherical_300cm_s20_c10_cd-half_matched_a-70.wav","20","10","half","matched","-70","-55","2279"
"echo-presentation","52","1050064","0.0-52.0","null","null","null","Mozilla/5.0 (Macintosh; Intel Mac OS X 10_15_6) AppleWebKit/605.1.15 (KHTML, like Gecko) Version/14.0.2 Safari/605.1.15","","","","","","","","-70,-65,-60,-55,-50","media/audio/stims/spherical_300cm_s20_c10_cd-half_matched_a-50.wav","20","10","half","matched","-50","-60","3000"
"echo-presentation","53","1056645","0.0-53.0","null","null","null","Mozilla/5.0 (Macintosh; Intel Mac OS X 10_15_6) AppleWebKit/605.1.15 (KHTML, like Gecko) Version/14.0.2 Safari/605.1.15","","","","","","","","-70,-65,-60,-55,-50","media/audio/stims/spherical_300cm_s20_c10_cd-half_matched_a-55.wav","20","10","half","matched","-55","-55","4170"
"block-bookend","54","1062146","0.0-54.0","null","null","null","Mozilla/5.0 (Macintosh; Intel Mac OS X 10_15_6) AppleWebKit/605.1.15 (KHTML, like Gecko) Version/14.0.2 Safari/605.1.15","","","","","","","","","","","","","","","",""
"block-bookend","55","1063556","0.0-55.0","null","null","null","Mozilla/5.0 (Macintosh; Intel Mac OS X 10_15_6) AppleWebKit/605.1.15 (KHTML, like Gecko) Version/14.0.2 Safari/605.1.15","","","","","","","","","","","","","","","",""
"echo-presentation","56","1072200","0.0-56.0","null","null","null","Mozilla/5.0 (Macintosh; Intel Mac OS X 10_15_6) AppleWebKit/605.1.15 (KHTML, like Gecko) Version/14.0.2 Safari/605.1.15","","","","","","","","-10,-5,0,5,10","media/audio/stims/spherical_300cm_s20_c2_cd-2_matched_a5.wav","20","2","2","matched","5","10","1615"
"echo-presentation","57","1077284","0.0-57.0","null","null","null","Mozilla/5.0 (Macintosh; Intel Mac OS X 10_15_6) AppleWebKit/605.1.15 (KHTML, like Gecko) Version/14.0.2 Safari/605.1.15","","","","","","","","-10,-5,0,5,10","media/audio/stims/spherical_300cm_s20_c2_cd-2_matched_a0.wav","20","2","2","matched","0","0","3424"
"echo-presentation","58","1082312","0.0-58.0","null","null","null","Mozilla/5.0 (Macintosh; Intel Mac OS X 10_15_6) AppleWebKit/605.1.15 (KHTML, like Gecko) Version/14.0.2 Safari/605.1.15","","","","","","","","-10,-5,0,5,10","media/audio/stims/spherical_300cm_s20_c2_cd-2_matched_a-5.wav","20","2","2","matched","-5","5","3039"
"echo-presentation","59","1085547","0.0-59.0","null","null","null","Mozilla/5.0 (Macintosh; Intel Mac OS X 10_15_6) AppleWebKit/605.1.15 (KHTML, like Gecko) Version/14.0.2 Safari/605.1.15","","","","","","","","-10,-5,0,5,10","media/audio/stims/spherical_300cm_s20_c2_cd-2_matched_a10.wav","20","2","2","matched","10","10","1493"
"echo-presentation","60","1088908","0.0-60.0","null","null","null","Mozilla/5.0 (Macintosh; Intel Mac OS X 10_15_6) AppleWebKit/605.1.15 (KHTML, like Gecko) Version/14.0.2 Safari/605.1.15","","","","","","","","-10,-5,0,5,10","media/audio/stims/spherical_300cm_s20_c2_cd-2_matched_a-5.wav","20","2","2","matched","-5","-5","1927"
"echo-presentation","61","1093708","0.0-61.0","null","null","null","Mozilla/5.0 (Macintosh; Intel Mac OS X 10_15_6) AppleWebKit/605.1.15 (KHTML, like Gecko) Version/14.0.2 Safari/605.1.15","","","","","","","","-10,-5,0,5,10","media/audio/stims/spherical_300cm_s20_c2_cd-2_matched_a-10.wav","20","2","2","matched","-10","0","2629"
"echo-presentation","62","1100106","0.0-62.0","null","null","null","Mozilla/5.0 (Macintosh; Intel Mac OS X 10_15_6) AppleWebKit/605.1.15 (KHTML, like Gecko) Version/14.0.2 Safari/605.1.15","","","","","","","","-10,-5,0,5,10","media/audio/stims/spherical_300cm_s20_c2_cd-2_matched_a10.wav","20","2","2","matched","10","",""
"echo-presentation","63","1110002","0.0-63.0","null","null","null","Mozilla/5.0 (Macintosh; Intel Mac OS X 10_15_6) AppleWebKit/605.1.15 (KHTML, like Gecko) Version/14.0.2 Safari/605.1.15","","","","","","","","-10,-5,0,5,10","media/audio/stims/spherical_300cm_s20_c2_cd-2_matched_a0.wav","20","2","2","matched","0","10","2391"
"echo-presentation","64","1117660","0.0-64.0","null","null","null","Mozilla/5.0 (Macintosh; Intel Mac OS X 10_15_6) AppleWebKit/605.1.15 (KHTML, like Gecko) Version/14.0.2 Safari/605.1.15","","","","","","","","-10,-5,0,5,10","media/audio/stims/spherical_300cm_s20_c2_cd-2_matched_a-10.wav","20","2","2","matched","-10","5","4313"
"echo-presentation","65","1122818","0.0-65.0","null","null","null","Mozilla/5.0 (Macintosh; Intel Mac OS X 10_15_6) AppleWebKit/605.1.15 (KHTML, like Gecko) Version/14.0.2 Safari/605.1.15","","","","","","","","-10,-5,0,5,10","media/audio/stims/spherical_300cm_s20_c2_cd-2_matched_a5.wav","20","2","2","matched","5","-5","2281"
"block-bookend","66","1130149","0.0-66.0","null","null","null","Mozilla/5.0 (Macintosh; Intel Mac OS X 10_15_6) AppleWebKit/605.1.15 (KHTML, like Gecko) Version/14.0.2 Safari/605.1.15","","","","","","","","","","","","","","","",""
