"trial_type","trial_index","time_elapsed","internal_node_id","prolificPid","studyId","sessionId","userAgent","version","rt","stimulus","key_press","chosenKeyset","failureCount","testIndex","globalVolume","choices","filename","modelName","slowdown","compensation","compensationDescriptor","receiverOrientationType","azimuth","responseAzimuth","responseDelay"
"pavlovia","0","11","0.0-0.0","5f4bd2bc2619997c752dffe0","5fef55e628823a0076ec12ee","601f447bf99897496d78a100","Mozilla/5.0 (Windows NT 10.0; Win64; x64) AppleWebKit/537.36 (KHTML, like Gecko) Chrome/88.0.4324.146 Safari/537.36","v1","","","","","","","","","","","","","","","","",""
"html-keyboard-response","1","1940","0.0-1.0","5f4bd2bc2619997c752dffe0","5fef55e628823a0076ec12ee","601f447bf99897496d78a100","Mozilla/5.0 (Windows NT 10.0; Win64; x64) AppleWebKit/537.36 (KHTML, like Gecko) Chrome/88.0.4324.146 Safari/537.36","v1","1927.9899999964982","<div><h1>Welcome!</h1><p>Press any key to continue.</p></div>","13","","","","","","","","","","","","","",""
"consent-form","2","67149","0.0-2.0","5f4bd2bc2619997c752dffe0","5fef55e628823a0076ec12ee","601f447bf99897496d78a100","Mozilla/5.0 (Windows NT 10.0; Win64; x64) AppleWebKit/537.36 (KHTML, like Gecko) Chrome/88.0.4324.146 Safari/537.36","v1","","","","","","","","","","","","","","","","",""
"keyset-select","3","122159","0.0-3.0","5f4bd2bc2619997c752dffe0","5fef55e628823a0076ec12ee","601f447bf99897496d78a100","Mozilla/5.0 (Windows NT 10.0; Win64; x64) AppleWebKit/537.36 (KHTML, like Gecko) Chrome/88.0.4324.146 Safari/537.36","v1","","","","right-hand","","","","","","","","","","","","",""
"headphone-check","4","197202","0.0-4.0","5f4bd2bc2619997c752dffe0","5fef55e628823a0076ec12ee","601f447bf99897496d78a100","Mozilla/5.0 (Windows NT 10.0; Win64; x64) AppleWebKit/537.36 (KHTML, like Gecko) Chrome/88.0.4324.146 Safari/537.36","v1","","","","","1","6","0.7","","","","","","","","","",""
"headphone-backwards-check","5","221290","0.0-5.0","5f4bd2bc2619997c752dffe0","5fef55e628823a0076ec12ee","601f447bf99897496d78a100","Mozilla/5.0 (Windows NT 10.0; Win64; x64) AppleWebKit/537.36 (KHTML, like Gecko) Chrome/88.0.4324.146 Safari/537.36","v1","","","","","0","","","","","","","","","","","",""
"training","6","385407","0.0-6.0","5f4bd2bc2619997c752dffe0","5fef55e628823a0076ec12ee","601f447bf99897496d78a100","Mozilla/5.0 (Windows NT 10.0; Win64; x64) AppleWebKit/537.36 (KHTML, like Gecko) Chrome/88.0.4324.146 Safari/537.36","v1","","","","","","","","","","","","","","","","",""
"block-bookend","7","404880","0.0-7.0","5f4bd2bc2619997c752dffe0","5fef55e628823a0076ec12ee","601f447bf99897496d78a100","Mozilla/5.0 (Windows NT 10.0; Win64; x64) AppleWebKit/537.36 (KHTML, like Gecko) Chrome/88.0.4324.146 Safari/537.36","v1","","","","","","","","","","","","","","","","",""
"echo-presentation","8","416081","0.0-8.0","5f4bd2bc2619997c752dffe0","5fef55e628823a0076ec12ee","601f447bf99897496d78a100","Mozilla/5.0 (Windows NT 10.0; Win64; x64) AppleWebKit/537.36 (KHTML, like Gecko) Chrome/88.0.4324.146 Safari/537.36","v1","","","","","","","","-20,-10,0,10,20","media/audio/stims/spherical_300cm_s20_c20_cd-full_matched_a0.wav","spherical","20","20","full","matched","0","0","3883"
"echo-presentation","9","420430","0.0-9.0","5f4bd2bc2619997c752dffe0","5fef55e628823a0076ec12ee","601f447bf99897496d78a100","Mozilla/5.0 (Windows NT 10.0; Win64; x64) AppleWebKit/537.36 (KHTML, like Gecko) Chrome/88.0.4324.146 Safari/537.36","v1","","","","","","","","-20,-10,0,10,20","media/audio/stims/spherical_300cm_s20_c20_cd-full_matched_a-20.wav","spherical","20","20","full","matched","-20","0","2775"
"echo-presentation","10","423754","0.0-10.0","5f4bd2bc2619997c752dffe0","5fef55e628823a0076ec12ee","601f447bf99897496d78a100","Mozilla/5.0 (Windows NT 10.0; Win64; x64) AppleWebKit/537.36 (KHTML, like Gecko) Chrome/88.0.4324.146 Safari/537.36","v1","","","","","","","","-20,-10,0,10,20","media/audio/stims/spherical_300cm_s20_c20_cd-full_matched_a-20.wav","spherical","20","20","full","matched","-20","-10","1304"
"echo-presentation","11","426445","0.0-11.0","5f4bd2bc2619997c752dffe0","5fef55e628823a0076ec12ee","601f447bf99897496d78a100","Mozilla/5.0 (Windows NT 10.0; Win64; x64) AppleWebKit/537.36 (KHTML, like Gecko) Chrome/88.0.4324.146 Safari/537.36","v1","","","","","","","","-20,-10,0,10,20","media/audio/stims/spherical_300cm_s20_c20_cd-full_matched_a0.wav","spherical","20","20","full","matched","0","0","1536"
"echo-presentation","12","429542","0.0-12.0","5f4bd2bc2619997c752dffe0","5fef55e628823a0076ec12ee","601f447bf99897496d78a100","Mozilla/5.0 (Windows NT 10.0; Win64; x64) AppleWebKit/537.36 (KHTML, like Gecko) Chrome/88.0.4324.146 Safari/537.36","v1","","","","","","","","-20,-10,0,10,20","media/audio/stims/spherical_300cm_s20_c20_cd-full_matched_a-20.wav","spherical","20","20","full","matched","-20","0","1451"
"echo-presentation","13","432104","0.0-13.0","5f4bd2bc2619997c752dffe0","5fef55e628823a0076ec12ee","601f447bf99897496d78a100","Mozilla/5.0 (Windows NT 10.0; Win64; x64) AppleWebKit/537.36 (KHTML, like Gecko) Chrome/88.0.4324.146 Safari/537.36","v1","","","","","","","","-20,-10,0,10,20","media/audio/stims/spherical_300cm_s20_c20_cd-full_matched_a10.wav","spherical","20","20","full","matched","10","-10","975"
"echo-presentation","14","435477","0.0-14.0","5f4bd2bc2619997c752dffe0","5fef55e628823a0076ec12ee","601f447bf99897496d78a100","Mozilla/5.0 (Windows NT 10.0; Win64; x64) AppleWebKit/537.36 (KHTML, like Gecko) Chrome/88.0.4324.146 Safari/537.36","v1","","","","","","","","-20,-10,0,10,20","media/audio/stims/spherical_300cm_s20_c20_cd-full_matched_a20.wav","spherical","20","20","full","matched","20","0","935"
"echo-presentation","15","438490","0.0-15.0","5f4bd2bc2619997c752dffe0","5fef55e628823a0076ec12ee","601f447bf99897496d78a100","Mozilla/5.0 (Windows NT 10.0; Win64; x64) AppleWebKit/537.36 (KHTML, like Gecko) Chrome/88.0.4324.146 Safari/537.36","v1","","","","","","","","-20,-10,0,10,20","media/audio/stims/spherical_300cm_s20_c20_cd-full_matched_a-10.wav","spherical","20","20","full","matched","-10","10","820"
"echo-presentation","16","442894","0.0-16.0","5f4bd2bc2619997c752dffe0","5fef55e628823a0076ec12ee","601f447bf99897496d78a100","Mozilla/5.0 (Windows NT 10.0; Win64; x64) AppleWebKit/537.36 (KHTML, like Gecko) Chrome/88.0.4324.146 Safari/537.36","v1","","","","","","","","-20,-10,0,10,20","media/audio/stims/spherical_300cm_s20_c20_cd-full_matched_a10.wav","spherical","20","20","full","matched","10","20","2287"
"echo-presentation","17","445571","0.0-17.0","5f4bd2bc2619997c752dffe0","5fef55e628823a0076ec12ee","601f447bf99897496d78a100","Mozilla/5.0 (Windows NT 10.0; Win64; x64) AppleWebKit/537.36 (KHTML, like Gecko) Chrome/88.0.4324.146 Safari/537.36","v1","","","","","","","","-20,-10,0,10,20","media/audio/stims/spherical_300cm_s20_c20_cd-full_matched_a10.wav","spherical","20","20","full","matched","10","20","1503"
"echo-presentation","18","448010","0.0-18.0","5f4bd2bc2619997c752dffe0","5fef55e628823a0076ec12ee","601f447bf99897496d78a100","Mozilla/5.0 (Windows NT 10.0; Win64; x64) AppleWebKit/537.36 (KHTML, like Gecko) Chrome/88.0.4324.146 Safari/537.36","v1","","","","","","","","-20,-10,0,10,20","media/audio/stims/spherical_300cm_s20_c20_cd-full_matched_a-10.wav","spherical","20","20","full","matched","-10","20","1137"
"echo-presentation","19","452347","0.0-19.0","5f4bd2bc2619997c752dffe0","5fef55e628823a0076ec12ee","601f447bf99897496d78a100","Mozilla/5.0 (Windows NT 10.0; Win64; x64) AppleWebKit/537.36 (KHTML, like Gecko) Chrome/88.0.4324.146 Safari/537.36","v1","","","","","","","","-20,-10,0,10,20","media/audio/stims/spherical_300cm_s20_c20_cd-full_matched_a20.wav","spherical","20","20","full","matched","20","10","1900"
"echo-presentation","20","455653","0.0-20.0","5f4bd2bc2619997c752dffe0","5fef55e628823a0076ec12ee","601f447bf99897496d78a100","Mozilla/5.0 (Windows NT 10.0; Win64; x64) AppleWebKit/537.36 (KHTML, like Gecko) Chrome/88.0.4324.146 Safari/537.36","v1","","","","","","","","-20,-10,0,10,20","media/audio/stims/spherical_300cm_s20_c20_cd-full_matched_a-20.wav","spherical","20","20","full","matched","-20","-10","1511"
"echo-presentation","21","460014","0.0-21.0","5f4bd2bc2619997c752dffe0","5fef55e628823a0076ec12ee","601f447bf99897496d78a100","Mozilla/5.0 (Windows NT 10.0; Win64; x64) AppleWebKit/537.36 (KHTML, like Gecko) Chrome/88.0.4324.146 Safari/537.36","v1","","","","","","","","-20,-10,0,10,20","media/audio/stims/spherical_300cm_s20_c20_cd-full_matched_a20.wav","spherical","20","20","full","matched","20","20","1898"
"echo-presentation","22","463294","0.0-22.0","5f4bd2bc2619997c752dffe0","5fef55e628823a0076ec12ee","601f447bf99897496d78a100","Mozilla/5.0 (Windows NT 10.0; Win64; x64) AppleWebKit/537.36 (KHTML, like Gecko) Chrome/88.0.4324.146 Safari/537.36","v1","","","","","","","","-20,-10,0,10,20","media/audio/stims/spherical_300cm_s20_c20_cd-full_matched_a-10.wav","spherical","20","20","full","matched","-10","10","2122"
"echo-presentation","23","465698","0.0-23.0","5f4bd2bc2619997c752dffe0","5fef55e628823a0076ec12ee","601f447bf99897496d78a100","Mozilla/5.0 (Windows NT 10.0; Win64; x64) AppleWebKit/537.36 (KHTML, like Gecko) Chrome/88.0.4324.146 Safari/537.36","v1","","","","","","","","-20,-10,0,10,20","media/audio/stims/spherical_300cm_s20_c20_cd-full_matched_a-10.wav","spherical","20","20","full","matched","-10","10","1258"
"echo-presentation","24","468784","0.0-24.0","5f4bd2bc2619997c752dffe0","5fef55e628823a0076ec12ee","601f447bf99897496d78a100","Mozilla/5.0 (Windows NT 10.0; Win64; x64) AppleWebKit/537.36 (KHTML, like Gecko) Chrome/88.0.4324.146 Safari/537.36","v1","","","","","","","","-20,-10,0,10,20","media/audio/stims/spherical_300cm_s20_c20_cd-full_matched_a0.wav","spherical","20","20","full","matched","0","10","1252"
"echo-presentation","25","471074","0.0-25.0","5f4bd2bc2619997c752dffe0","5fef55e628823a0076ec12ee","601f447bf99897496d78a100","Mozilla/5.0 (Windows NT 10.0; Win64; x64) AppleWebKit/537.36 (KHTML, like Gecko) Chrome/88.0.4324.146 Safari/537.36","v1","","","","","","","","-20,-10,0,10,20","media/audio/stims/spherical_300cm_s20_c20_cd-full_matched_a10.wav","spherical","20","20","full","matched","10","10","1035"
"echo-presentation","26","475214","0.0-26.0","5f4bd2bc2619997c752dffe0","5fef55e628823a0076ec12ee","601f447bf99897496d78a100","Mozilla/5.0 (Windows NT 10.0; Win64; x64) AppleWebKit/537.36 (KHTML, like Gecko) Chrome/88.0.4324.146 Safari/537.36","v1","","","","","","","","-20,-10,0,10,20","media/audio/stims/spherical_300cm_s20_c20_cd-full_matched_a20.wav","spherical","20","20","full","matched","20","0","2232"
"echo-presentation","27","477589","0.0-27.0","5f4bd2bc2619997c752dffe0","5fef55e628823a0076ec12ee","601f447bf99897496d78a100","Mozilla/5.0 (Windows NT 10.0; Win64; x64) AppleWebKit/537.36 (KHTML, like Gecko) Chrome/88.0.4324.146 Safari/537.36","v1","","","","","","","","-20,-10,0,10,20","media/audio/stims/spherical_300cm_s20_c20_cd-full_matched_a0.wav","spherical","20","20","full","matched","0","-10","1037"
"block-bookend","28","485771","0.0-28.0","5f4bd2bc2619997c752dffe0","5fef55e628823a0076ec12ee","601f447bf99897496d78a100","Mozilla/5.0 (Windows NT 10.0; Win64; x64) AppleWebKit/537.36 (KHTML, like Gecko) Chrome/88.0.4324.146 Safari/537.36","v1","","","","","","","","","","","","","","","","",""
"block-bookend","29","498882","0.0-29.0","5f4bd2bc2619997c752dffe0","5fef55e628823a0076ec12ee","601f447bf99897496d78a100","Mozilla/5.0 (Windows NT 10.0; Win64; x64) AppleWebKit/537.36 (KHTML, like Gecko) Chrome/88.0.4324.146 Safari/537.36","v1","","","","","","","","","","","","","","","","",""
"echo-presentation","30","502512","0.0-30.0","5f4bd2bc2619997c752dffe0","5fef55e628823a0076ec12ee","601f447bf99897496d78a100","Mozilla/5.0 (Windows NT 10.0; Win64; x64) AppleWebKit/537.36 (KHTML, like Gecko) Chrome/88.0.4324.146 Safari/537.36","v1","","","","","","","","-20,-10,0,10,20","media/audio/stims/spherical_300cm_s20_c20_cd-full_matched_a20.wav","spherical","20","20","full","matched","20","20","1433"
"echo-presentation","31","504326","0.0-31.0","5f4bd2bc2619997c752dffe0","5fef55e628823a0076ec12ee","601f447bf99897496d78a100","Mozilla/5.0 (Windows NT 10.0; Win64; x64) AppleWebKit/537.36 (KHTML, like Gecko) Chrome/88.0.4324.146 Safari/537.36","v1","","","","","","","","-20,-10,0,10,20","media/audio/stims/spherical_300cm_s20_c20_cd-full_matched_a20.wav","spherical","20","20","full","matched","20","10","966"
"echo-presentation","32","506456","0.0-32.0","5f4bd2bc2619997c752dffe0","5fef55e628823a0076ec12ee","601f447bf99897496d78a100","Mozilla/5.0 (Windows NT 10.0; Win64; x64) AppleWebKit/537.36 (KHTML, like Gecko) Chrome/88.0.4324.146 Safari/537.36","v1","","","","","","","","-20,-10,0,10,20","media/audio/stims/spherical_300cm_s20_c20_cd-full_matched_a0.wav","spherical","20","20","full","matched","0","0","1077"
"echo-presentation","33","508883","0.0-33.0","5f4bd2bc2619997c752dffe0","5fef55e628823a0076ec12ee","601f447bf99897496d78a100","Mozilla/5.0 (Windows NT 10.0; Win64; x64) AppleWebKit/537.36 (KHTML, like Gecko) Chrome/88.0.4324.146 Safari/537.36","v1","","","","","","","","-20,-10,0,10,20","media/audio/stims/spherical_300cm_s20_c20_cd-full_matched_a-20.wav","spherical","20","20","full","matched","-20","10","979"
"echo-presentation","34","510946","0.0-34.0","5f4bd2bc2619997c752dffe0","5fef55e628823a0076ec12ee","601f447bf99897496d78a100","Mozilla/5.0 (Windows NT 10.0; Win64; x64) AppleWebKit/537.36 (KHTML, like Gecko) Chrome/88.0.4324.146 Safari/537.36","v1","","","","","","","","-20,-10,0,10,20","media/audio/stims/spherical_300cm_s20_c20_cd-full_matched_a-20.wav","spherical","20","20","full","matched","-20","10","943"
"echo-presentation","35","513610","0.0-35.0","5f4bd2bc2619997c752dffe0","5fef55e628823a0076ec12ee","601f447bf99897496d78a100","Mozilla/5.0 (Windows NT 10.0; Win64; x64) AppleWebKit/537.36 (KHTML, like Gecko) Chrome/88.0.4324.146 Safari/537.36","v1","","","","","","","","-20,-10,0,10,20","media/audio/stims/spherical_300cm_s20_c20_cd-full_matched_a0.wav","spherical","20","20","full","matched","0","10","1041"
"echo-presentation","36","515826","0.0-36.0","5f4bd2bc2619997c752dffe0","5fef55e628823a0076ec12ee","601f447bf99897496d78a100","Mozilla/5.0 (Windows NT 10.0; Win64; x64) AppleWebKit/537.36 (KHTML, like Gecko) Chrome/88.0.4324.146 Safari/537.36","v1","","","","","","","","-20,-10,0,10,20","media/audio/stims/spherical_300cm_s20_c20_cd-full_matched_a10.wav","spherical","20","20","full","matched","10","0","893"
"echo-presentation","37","518549","0.0-37.0","5f4bd2bc2619997c752dffe0","5fef55e628823a0076ec12ee","601f447bf99897496d78a100","Mozilla/5.0 (Windows NT 10.0; Win64; x64) AppleWebKit/537.36 (KHTML, like Gecko) Chrome/88.0.4324.146 Safari/537.36","v1","","","","","","","","-20,-10,0,10,20","media/audio/stims/spherical_300cm_s20_c20_cd-full_matched_a-20.wav","spherical","20","20","full","matched","-20","-10","1137"
"echo-presentation","38","520916","0.0-38.0","5f4bd2bc2619997c752dffe0","5fef55e628823a0076ec12ee","601f447bf99897496d78a100","Mozilla/5.0 (Windows NT 10.0; Win64; x64) AppleWebKit/537.36 (KHTML, like Gecko) Chrome/88.0.4324.146 Safari/537.36","v1","","","","","","","","-20,-10,0,10,20","media/audio/stims/spherical_300cm_s20_c20_cd-full_matched_a0.wav","spherical","20","20","full","matched","0","0","769"
"echo-presentation","39","523379","0.0-39.0","5f4bd2bc2619997c752dffe0","5fef55e628823a0076ec12ee","601f447bf99897496d78a100","Mozilla/5.0 (Windows NT 10.0; Win64; x64) AppleWebKit/537.36 (KHTML, like Gecko) Chrome/88.0.4324.146 Safari/537.36","v1","","","","","","","","-20,-10,0,10,20","media/audio/stims/spherical_300cm_s20_c20_cd-full_matched_a10.wav","spherical","20","20","full","matched","10","0","823"
"echo-presentation","40","525856","0.0-40.0","5f4bd2bc2619997c752dffe0","5fef55e628823a0076ec12ee","601f447bf99897496d78a100","Mozilla/5.0 (Windows NT 10.0; Win64; x64) AppleWebKit/537.36 (KHTML, like Gecko) Chrome/88.0.4324.146 Safari/537.36","v1","","","","","","","","-20,-10,0,10,20","media/audio/stims/spherical_300cm_s20_c20_cd-full_matched_a-10.wav","spherical","20","20","full","matched","-10","-10","1333"
"echo-presentation","41","527836","0.0-41.0","5f4bd2bc2619997c752dffe0","5fef55e628823a0076ec12ee","601f447bf99897496d78a100","Mozilla/5.0 (Windows NT 10.0; Win64; x64) AppleWebKit/537.36 (KHTML, like Gecko) Chrome/88.0.4324.146 Safari/537.36","v1","","","","","","","","-20,-10,0,10,20","media/audio/stims/spherical_300cm_s20_c20_cd-full_matched_a-10.wav","spherical","20","20","full","matched","-10","10","1321"
"echo-presentation","42","530548","0.0-42.0","5f4bd2bc2619997c752dffe0","5fef55e628823a0076ec12ee","601f447bf99897496d78a100","Mozilla/5.0 (Windows NT 10.0; Win64; x64) AppleWebKit/537.36 (KHTML, like Gecko) Chrome/88.0.4324.146 Safari/537.36","v1","","","","","","","","-20,-10,0,10,20","media/audio/stims/spherical_300cm_s20_c20_cd-full_matched_a-10.wav","spherical","20","20","full","matched","-10","0","1279"
"echo-presentation","43","533309","0.0-43.0","5f4bd2bc2619997c752dffe0","5fef55e628823a0076ec12ee","601f447bf99897496d78a100","Mozilla/5.0 (Windows NT 10.0; Win64; x64) AppleWebKit/537.36 (KHTML, like Gecko) Chrome/88.0.4324.146 Safari/537.36","v1","","","","","","","","-20,-10,0,10,20","media/audio/stims/spherical_300cm_s20_c20_cd-full_matched_a10.wav","spherical","20","20","full","matched","10","10","1091"
"echo-presentation","44","535626","0.0-44.0","5f4bd2bc2619997c752dffe0","5fef55e628823a0076ec12ee","601f447bf99897496d78a100","Mozilla/5.0 (Windows NT 10.0; Win64; x64) AppleWebKit/537.36 (KHTML, like Gecko) Chrome/88.0.4324.146 Safari/537.36","v1","","","","","","","","-20,-10,0,10,20","media/audio/stims/spherical_300cm_s20_c20_cd-full_matched_a20.wav","spherical","20","20","full","matched","20","10","950"
"echo-presentation","45","537915","0.0-45.0","5f4bd2bc2619997c752dffe0","5fef55e628823a0076ec12ee","601f447bf99897496d78a100","Mozilla/5.0 (Windows NT 10.0; Win64; x64) AppleWebKit/537.36 (KHTML, like Gecko) Chrome/88.0.4324.146 Safari/537.36","v1","","","","","","","","-20,-10,0,10,20","media/audio/stims/spherical_300cm_s20_c20_cd-full_matched_a20.wav","spherical","20","20","full","matched","20","10","948"
"echo-presentation","46","540914","0.0-46.0","5f4bd2bc2619997c752dffe0","5fef55e628823a0076ec12ee","601f447bf99897496d78a100","Mozilla/5.0 (Windows NT 10.0; Win64; x64) AppleWebKit/537.36 (KHTML, like Gecko) Chrome/88.0.4324.146 Safari/537.36","v1","","","","","","","","-20,-10,0,10,20","media/audio/stims/spherical_300cm_s20_c20_cd-full_matched_a-10.wav","spherical","20","20","full","matched","-10","10","862"
"echo-presentation","47","543166","0.0-47.0","5f4bd2bc2619997c752dffe0","5fef55e628823a0076ec12ee","601f447bf99897496d78a100","Mozilla/5.0 (Windows NT 10.0; Win64; x64) AppleWebKit/537.36 (KHTML, like Gecko) Chrome/88.0.4324.146 Safari/537.36","v1","","","","","","","","-20,-10,0,10,20","media/audio/stims/spherical_300cm_s20_c20_cd-full_matched_a10.wav","spherical","20","20","full","matched","10","20","702"
"echo-presentation","48","549115","0.0-48.0","5f4bd2bc2619997c752dffe0","5fef55e628823a0076ec12ee","601f447bf99897496d78a100","Mozilla/5.0 (Windows NT 10.0; Win64; x64) AppleWebKit/537.36 (KHTML, like Gecko) Chrome/88.0.4324.146 Safari/537.36","v1","","","","","","","","-20,-10,0,10,20","media/audio/stims/spherical_300cm_s20_c20_cd-full_matched_a0.wav","spherical","20","20","full","matched","0","-10","4367"
"echo-presentation","49","551237","0.0-49.0","5f4bd2bc2619997c752dffe0","5fef55e628823a0076ec12ee","601f447bf99897496d78a100","Mozilla/5.0 (Windows NT 10.0; Win64; x64) AppleWebKit/537.36 (KHTML, like Gecko) Chrome/88.0.4324.146 Safari/537.36","v1","","","","","","","","-20,-10,0,10,20","media/audio/stims/spherical_300cm_s20_c20_cd-full_matched_a-20.wav","spherical","20","20","full","matched","-20","0","786"
"block-bookend","50","565877","0.0-50.0","5f4bd2bc2619997c752dffe0","5fef55e628823a0076ec12ee","601f447bf99897496d78a100","Mozilla/5.0 (Windows NT 10.0; Win64; x64) AppleWebKit/537.36 (KHTML, like Gecko) Chrome/88.0.4324.146 Safari/537.36","v1","","","","","","","","","","","","","","","","",""
"block-bookend","51","573496","0.0-51.0","5f4bd2bc2619997c752dffe0","5fef55e628823a0076ec12ee","601f447bf99897496d78a100","Mozilla/5.0 (Windows NT 10.0; Win64; x64) AppleWebKit/537.36 (KHTML, like Gecko) Chrome/88.0.4324.146 Safari/537.36","v1","","","","","","","","","","","","","","","","",""
"echo-presentation","52","577819","0.0-52.0","5f4bd2bc2619997c752dffe0","5fef55e628823a0076ec12ee","601f447bf99897496d78a100","Mozilla/5.0 (Windows NT 10.0; Win64; x64) AppleWebKit/537.36 (KHTML, like Gecko) Chrome/88.0.4324.146 Safari/537.36","v1","","","","","","","","40,50,60,70,80","media/audio/stims/spherical_300cm_s20_c20_cd-full_matched_a80.wav","spherical","20","20","full","matched","80","80","951"
"echo-presentation","53","579546","0.0-53.0","5f4bd2bc2619997c752dffe0","5fef55e628823a0076ec12ee","601f447bf99897496d78a100","Mozilla/5.0 (Windows NT 10.0; Win64; x64) AppleWebKit/537.36 (KHTML, like Gecko) Chrome/88.0.4324.146 Safari/537.36","v1","","","","","","","","40,50,60,70,80","media/audio/stims/spherical_300cm_s20_c20_cd-full_matched_a50.wav","spherical","20","20","full","matched","50","80","850"
"echo-presentation","54","581185","0.0-54.0","5f4bd2bc2619997c752dffe0","5fef55e628823a0076ec12ee","601f447bf99897496d78a100","Mozilla/5.0 (Windows NT 10.0; Win64; x64) AppleWebKit/537.36 (KHTML, like Gecko) Chrome/88.0.4324.146 Safari/537.36","v1","","","","","","","","40,50,60,70,80","media/audio/stims/spherical_300cm_s20_c20_cd-full_matched_a50.wav","spherical","20","20","full","matched","50","80","768"
"echo-presentation","55","583260","0.0-55.0","5f4bd2bc2619997c752dffe0","5fef55e628823a0076ec12ee","601f447bf99897496d78a100","Mozilla/5.0 (Windows NT 10.0; Win64; x64) AppleWebKit/537.36 (KHTML, like Gecko) Chrome/88.0.4324.146 Safari/537.36","v1","","","","","","","","40,50,60,70,80","media/audio/stims/spherical_300cm_s20_c20_cd-full_matched_a60.wav","spherical","20","20","full","matched","60","80","781"
"echo-presentation","56","584834","0.0-56.0","5f4bd2bc2619997c752dffe0","5fef55e628823a0076ec12ee","601f447bf99897496d78a100","Mozilla/5.0 (Windows NT 10.0; Win64; x64) AppleWebKit/537.36 (KHTML, like Gecko) Chrome/88.0.4324.146 Safari/537.36","v1","","","","","","","","40,50,60,70,80","media/audio/stims/spherical_300cm_s20_c20_cd-full_matched_a60.wav","spherical","20","20","full","matched","60","70","733"
"echo-presentation","57","586456","0.0-57.0","5f4bd2bc2619997c752dffe0","5fef55e628823a0076ec12ee","601f447bf99897496d78a100","Mozilla/5.0 (Windows NT 10.0; Win64; x64) AppleWebKit/537.36 (KHTML, like Gecko) Chrome/88.0.4324.146 Safari/537.36","v1","","","","","","","","40,50,60,70,80","media/audio/stims/spherical_300cm_s20_c20_cd-full_matched_a60.wav","spherical","20","20","full","matched","60","60","741"
"echo-presentation","58","588075","0.0-58.0","5f4bd2bc2619997c752dffe0","5fef55e628823a0076ec12ee","601f447bf99897496d78a100","Mozilla/5.0 (Windows NT 10.0; Win64; x64) AppleWebKit/537.36 (KHTML, like Gecko) Chrome/88.0.4324.146 Safari/537.36","v1","","","","","","","","40,50,60,70,80","media/audio/stims/spherical_300cm_s20_c20_cd-full_matched_a50.wav","spherical","20","20","full","matched","50","80","663"
"echo-presentation","59","589845","0.0-59.0","5f4bd2bc2619997c752dffe0","5fef55e628823a0076ec12ee","601f447bf99897496d78a100","Mozilla/5.0 (Windows NT 10.0; Win64; x64) AppleWebKit/537.36 (KHTML, like Gecko) Chrome/88.0.4324.146 Safari/537.36","v1","","","","","","","","40,50,60,70,80","media/audio/stims/spherical_300cm_s20_c20_cd-full_matched_a70.wav","spherical","20","20","full","matched","70","80","712"
"echo-presentation","60","593205","0.0-60.0","5f4bd2bc2619997c752dffe0","5fef55e628823a0076ec12ee","601f447bf99897496d78a100","Mozilla/5.0 (Windows NT 10.0; Win64; x64) AppleWebKit/537.36 (KHTML, like Gecko) Chrome/88.0.4324.146 Safari/537.36","v1","","","","","","","","40,50,60,70,80","media/audio/stims/spherical_300cm_s20_c20_cd-full_matched_a70.wav","spherical","20","20","full","matched","70","70","2403"
"echo-presentation","61","595680","0.0-61.0","5f4bd2bc2619997c752dffe0","5fef55e628823a0076ec12ee","601f447bf99897496d78a100","Mozilla/5.0 (Windows NT 10.0; Win64; x64) AppleWebKit/537.36 (KHTML, like Gecko) Chrome/88.0.4324.146 Safari/537.36","v1","","","","","","","","40,50,60,70,80","media/audio/stims/spherical_300cm_s20_c20_cd-full_matched_a40.wav","spherical","20","20","full","matched","40","60","1356"
"echo-presentation","62","597146","0.0-62.0","5f4bd2bc2619997c752dffe0","5fef55e628823a0076ec12ee","601f447bf99897496d78a100","Mozilla/5.0 (Windows NT 10.0; Win64; x64) AppleWebKit/537.36 (KHTML, like Gecko) Chrome/88.0.4324.146 Safari/537.36","v1","","","","","","","","40,50,60,70,80","media/audio/stims/spherical_300cm_s20_c20_cd-full_matched_a40.wav","spherical","20","20","full","matched","40","80","820"
"echo-presentation","63","599106","0.0-63.0","5f4bd2bc2619997c752dffe0","5fef55e628823a0076ec12ee","601f447bf99897496d78a100","Mozilla/5.0 (Windows NT 10.0; Win64; x64) AppleWebKit/537.36 (KHTML, like Gecko) Chrome/88.0.4324.146 Safari/537.36","v1","","","","","","","","40,50,60,70,80","media/audio/stims/spherical_300cm_s20_c20_cd-full_matched_a70.wav","spherical","20","20","full","matched","70","80","857"
"echo-presentation","64","601246","0.0-64.0","5f4bd2bc2619997c752dffe0","5fef55e628823a0076ec12ee","601f447bf99897496d78a100","Mozilla/5.0 (Windows NT 10.0; Win64; x64) AppleWebKit/537.36 (KHTML, like Gecko) Chrome/88.0.4324.146 Safari/537.36","v1","","","","","","","","40,50,60,70,80","media/audio/stims/spherical_300cm_s20_c20_cd-full_matched_a40.wav","spherical","20","20","full","matched","40","80","747"
"echo-presentation","65","603592","0.0-65.0","5f4bd2bc2619997c752dffe0","5fef55e628823a0076ec12ee","601f447bf99897496d78a100","Mozilla/5.0 (Windows NT 10.0; Win64; x64) AppleWebKit/537.36 (KHTML, like Gecko) Chrome/88.0.4324.146 Safari/537.36","v1","","","","","","","","40,50,60,70,80","media/audio/stims/spherical_300cm_s20_c20_cd-full_matched_a80.wav","spherical","20","20","full","matched","80","80","1016"
"echo-presentation","66","606174","0.0-66.0","5f4bd2bc2619997c752dffe0","5fef55e628823a0076ec12ee","601f447bf99897496d78a100","Mozilla/5.0 (Windows NT 10.0; Win64; x64) AppleWebKit/537.36 (KHTML, like Gecko) Chrome/88.0.4324.146 Safari/537.36","v1","","","","","","","","40,50,60,70,80","media/audio/stims/spherical_300cm_s20_c20_cd-full_matched_a80.wav","spherical","20","20","full","matched","80","80","912"
"echo-presentation","67","608913","0.0-67.0","5f4bd2bc2619997c752dffe0","5fef55e628823a0076ec12ee","601f447bf99897496d78a100","Mozilla/5.0 (Windows NT 10.0; Win64; x64) AppleWebKit/537.36 (KHTML, like Gecko) Chrome/88.0.4324.146 Safari/537.36","v1","","","","","","","","40,50,60,70,80","media/audio/stims/spherical_300cm_s20_c20_cd-full_matched_a50.wav","spherical","20","20","full","matched","50","80","752"
"echo-presentation","68","613081","0.0-68.0","5f4bd2bc2619997c752dffe0","5fef55e628823a0076ec12ee","601f447bf99897496d78a100","Mozilla/5.0 (Windows NT 10.0; Win64; x64) AppleWebKit/537.36 (KHTML, like Gecko) Chrome/88.0.4324.146 Safari/537.36","v1","","","","","","","","40,50,60,70,80","media/audio/stims/spherical_300cm_s20_c20_cd-full_matched_a80.wav","spherical","20","20","full","matched","80","80","3084"
"echo-presentation","69","614916","0.0-69.0","5f4bd2bc2619997c752dffe0","5fef55e628823a0076ec12ee","601f447bf99897496d78a100","Mozilla/5.0 (Windows NT 10.0; Win64; x64) AppleWebKit/537.36 (KHTML, like Gecko) Chrome/88.0.4324.146 Safari/537.36","v1","","","","","","","","40,50,60,70,80","media/audio/stims/spherical_300cm_s20_c20_cd-full_matched_a70.wav","spherical","20","20","full","matched","70","70","616"
"echo-presentation","70","617156","0.0-70.0","5f4bd2bc2619997c752dffe0","5fef55e628823a0076ec12ee","601f447bf99897496d78a100","Mozilla/5.0 (Windows NT 10.0; Win64; x64) AppleWebKit/537.36 (KHTML, like Gecko) Chrome/88.0.4324.146 Safari/537.36","v1","","","","","","","","40,50,60,70,80","media/audio/stims/spherical_300cm_s20_c20_cd-full_matched_a60.wav","spherical","20","20","full","matched","60","80","896"
"echo-presentation","71","620146","0.0-71.0","5f4bd2bc2619997c752dffe0","5fef55e628823a0076ec12ee","601f447bf99897496d78a100","Mozilla/5.0 (Windows NT 10.0; Win64; x64) AppleWebKit/537.36 (KHTML, like Gecko) Chrome/88.0.4324.146 Safari/537.36","v1","","","","","","","","40,50,60,70,80","media/audio/stims/spherical_300cm_s20_c20_cd-full_matched_a40.wav","spherical","20","20","full","matched","40","50","1971"
"block-bookend","72","622291","0.0-72.0","5f4bd2bc2619997c752dffe0","5fef55e628823a0076ec12ee","601f447bf99897496d78a100","Mozilla/5.0 (Windows NT 10.0; Win64; x64) AppleWebKit/537.36 (KHTML, like Gecko) Chrome/88.0.4324.146 Safari/537.36","v1","","","","","","","","","","","","","","","","",""
"block-bookend","73","628331","0.0-73.0","5f4bd2bc2619997c752dffe0","5fef55e628823a0076ec12ee","601f447bf99897496d78a100","Mozilla/5.0 (Windows NT 10.0; Win64; x64) AppleWebKit/537.36 (KHTML, like Gecko) Chrome/88.0.4324.146 Safari/537.36","v1","","","","","","","","","","","","","","","","",""
"echo-presentation","74","631036","0.0-74.0","5f4bd2bc2619997c752dffe0","5fef55e628823a0076ec12ee","601f447bf99897496d78a100","Mozilla/5.0 (Windows NT 10.0; Win64; x64) AppleWebKit/537.36 (KHTML, like Gecko) Chrome/88.0.4324.146 Safari/537.36","v1","","","","","","","","40,50,60,70,80","media/audio/stims/spherical_300cm_s20_c20_cd-full_matched_a40.wav","spherical","20","20","full","matched","40","50","1018"
"echo-presentation","75","632496","0.0-75.0","5f4bd2bc2619997c752dffe0","5fef55e628823a0076ec12ee","601f447bf99897496d78a100","Mozilla/5.0 (Windows NT 10.0; Win64; x64) AppleWebKit/537.36 (KHTML, like Gecko) Chrome/88.0.4324.146 Safari/537.36","v1","","","","","","","","40,50,60,70,80","media/audio/stims/spherical_300cm_s20_c20_cd-full_matched_a70.wav","spherical","20","20","full","matched","70","50","825"
"echo-presentation","76","634287","0.0-76.0","5f4bd2bc2619997c752dffe0","5fef55e628823a0076ec12ee","601f447bf99897496d78a100","Mozilla/5.0 (Windows NT 10.0; Win64; x64) AppleWebKit/537.36 (KHTML, like Gecko) Chrome/88.0.4324.146 Safari/537.36","v1","","","","","","","","40,50,60,70,80","media/audio/stims/spherical_300cm_s20_c20_cd-full_matched_a80.wav","spherical","20","20","full","matched","80","60","761"
"echo-presentation","77","635876","0.0-77.0","5f4bd2bc2619997c752dffe0","5fef55e628823a0076ec12ee","601f447bf99897496d78a100","Mozilla/5.0 (Windows NT 10.0; Win64; x64) AppleWebKit/537.36 (KHTML, like Gecko) Chrome/88.0.4324.146 Safari/537.36","v1","","","","","","","","40,50,60,70,80","media/audio/stims/spherical_300cm_s20_c20_cd-full_matched_a70.wav","spherical","20","20","full","matched","70","60","862"
"echo-presentation","78","637349","0.0-78.0","5f4bd2bc2619997c752dffe0","5fef55e628823a0076ec12ee","601f447bf99897496d78a100","Mozilla/5.0 (Windows NT 10.0; Win64; x64) AppleWebKit/537.36 (KHTML, like Gecko) Chrome/88.0.4324.146 Safari/537.36","v1","","","","","","","","40,50,60,70,80","media/audio/stims/spherical_300cm_s20_c20_cd-full_matched_a60.wav","spherical","20","20","full","matched","60","60","871"
"echo-presentation","79","639549","0.0-79.0","5f4bd2bc2619997c752dffe0","5fef55e628823a0076ec12ee","601f447bf99897496d78a100","Mozilla/5.0 (Windows NT 10.0; Win64; x64) AppleWebKit/537.36 (KHTML, like Gecko) Chrome/88.0.4324.146 Safari/537.36","v1","","","","","","","","40,50,60,70,80","media/audio/stims/spherical_300cm_s20_c20_cd-full_matched_a70.wav","spherical","20","20","full","matched","70","60","745"
"echo-presentation","80","641176","0.0-80.0","5f4bd2bc2619997c752dffe0","5fef55e628823a0076ec12ee","601f447bf99897496d78a100","Mozilla/5.0 (Windows NT 10.0; Win64; x64) AppleWebKit/537.36 (KHTML, like Gecko) Chrome/88.0.4324.146 Safari/537.36","v1","","","","","","","","40,50,60,70,80","media/audio/stims/spherical_300cm_s20_c20_cd-full_matched_a40.wav","spherical","20","20","full","matched","40","60","819"
"echo-presentation","81","643203","0.0-81.0","5f4bd2bc2619997c752dffe0","5fef55e628823a0076ec12ee","601f447bf99897496d78a100","Mozilla/5.0 (Windows NT 10.0; Win64; x64) AppleWebKit/537.36 (KHTML, like Gecko) Chrome/88.0.4324.146 Safari/537.36","v1","","","","","","","","40,50,60,70,80","media/audio/stims/spherical_300cm_s20_c20_cd-full_matched_a50.wav","spherical","20","20","full","matched","50","70","1160"
"echo-presentation","82","644758","0.0-82.0","5f4bd2bc2619997c752dffe0","5fef55e628823a0076ec12ee","601f447bf99897496d78a100","Mozilla/5.0 (Windows NT 10.0; Win64; x64) AppleWebKit/537.36 (KHTML, like Gecko) Chrome/88.0.4324.146 Safari/537.36","v1","","","","","","","","40,50,60,70,80","media/audio/stims/spherical_300cm_s20_c20_cd-full_matched_a50.wav","spherical","20","20","full","matched","50","70","856"
"echo-presentation","83","646996","0.0-83.0","5f4bd2bc2619997c752dffe0","5fef55e628823a0076ec12ee","601f447bf99897496d78a100","Mozilla/5.0 (Windows NT 10.0; Win64; x64) AppleWebKit/537.36 (KHTML, like Gecko) Chrome/88.0.4324.146 Safari/537.36","v1","","","","","","","","40,50,60,70,80","media/audio/stims/spherical_300cm_s20_c20_cd-full_matched_a80.wav","spherical","20","20","full","matched","80","70","822"
"echo-presentation","84","648626","0.0-84.0","5f4bd2bc2619997c752dffe0","5fef55e628823a0076ec12ee","601f447bf99897496d78a100","Mozilla/5.0 (Windows NT 10.0; Win64; x64) AppleWebKit/537.36 (KHTML, like Gecko) Chrome/88.0.4324.146 Safari/537.36","v1","","","","","","","","40,50,60,70,80","media/audio/stims/spherical_300cm_s20_c20_cd-full_matched_a50.wav","spherical","20","20","full","matched","50","70","831"
"echo-presentation","85","650100","0.0-85.0","5f4bd2bc2619997c752dffe0","5fef55e628823a0076ec12ee","601f447bf99897496d78a100","Mozilla/5.0 (Windows NT 10.0; Win64; x64) AppleWebKit/537.36 (KHTML, like Gecko) Chrome/88.0.4324.146 Safari/537.36","v1","","","","","","","","40,50,60,70,80","media/audio/stims/spherical_300cm_s20_c20_cd-full_matched_a40.wav","spherical","20","20","full","matched","40","70","744"
"echo-presentation","86","651517","0.0-86.0","5f4bd2bc2619997c752dffe0","5fef55e628823a0076ec12ee","601f447bf99897496d78a100","Mozilla/5.0 (Windows NT 10.0; Win64; x64) AppleWebKit/537.36 (KHTML, like Gecko) Chrome/88.0.4324.146 Safari/537.36","v1","","","","","","","","40,50,60,70,80","media/audio/stims/spherical_300cm_s20_c20_cd-full_matched_a60.wav","spherical","20","20","full","matched","60","70","602"
"echo-presentation","87","654579","0.0-87.0","5f4bd2bc2619997c752dffe0","5fef55e628823a0076ec12ee","601f447bf99897496d78a100","Mozilla/5.0 (Windows NT 10.0; Win64; x64) AppleWebKit/537.36 (KHTML, like Gecko) Chrome/88.0.4324.146 Safari/537.36","v1","","","","","","","","40,50,60,70,80","media/audio/stims/spherical_300cm_s20_c20_cd-full_matched_a60.wav","spherical","20","20","full","matched","60","80","2023"
"echo-presentation","88","657056","0.0-88.0","5f4bd2bc2619997c752dffe0","5fef55e628823a0076ec12ee","601f447bf99897496d78a100","Mozilla/5.0 (Windows NT 10.0; Win64; x64) AppleWebKit/537.36 (KHTML, like Gecko) Chrome/88.0.4324.146 Safari/537.36","v1","","","","","","","","40,50,60,70,80","media/audio/stims/spherical_300cm_s20_c20_cd-full_matched_a70.wav","spherical","20","20","full","matched","70","80","1574"
"echo-presentation","89","659196","0.0-89.0","5f4bd2bc2619997c752dffe0","5fef55e628823a0076ec12ee","601f447bf99897496d78a100","Mozilla/5.0 (Windows NT 10.0; Win64; x64) AppleWebKit/537.36 (KHTML, like Gecko) Chrome/88.0.4324.146 Safari/537.36","v1","","","","","","","","40,50,60,70,80","media/audio/stims/spherical_300cm_s20_c20_cd-full_matched_a80.wav","spherical","20","20","full","matched","80","80","1148"
"echo-presentation","90","661990","0.0-90.0","5f4bd2bc2619997c752dffe0","5fef55e628823a0076ec12ee","601f447bf99897496d78a100","Mozilla/5.0 (Windows NT 10.0; Win64; x64) AppleWebKit/537.36 (KHTML, like Gecko) Chrome/88.0.4324.146 Safari/537.36","v1","","","","","","","","40,50,60,70,80","media/audio/stims/spherical_300cm_s20_c20_cd-full_matched_a40.wav","spherical","20","20","full","matched","40","80","1562"
"echo-presentation","91","663676","0.0-91.0","5f4bd2bc2619997c752dffe0","5fef55e628823a0076ec12ee","601f447bf99897496d78a100","Mozilla/5.0 (Windows NT 10.0; Win64; x64) AppleWebKit/537.36 (KHTML, like Gecko) Chrome/88.0.4324.146 Safari/537.36","v1","","","","","","","","40,50,60,70,80","media/audio/stims/spherical_300cm_s20_c20_cd-full_matched_a50.wav","spherical","20","20","full","matched","50","60","784"
"echo-presentation","92","666206","0.0-92.0","5f4bd2bc2619997c752dffe0","5fef55e628823a0076ec12ee","601f447bf99897496d78a100","Mozilla/5.0 (Windows NT 10.0; Win64; x64) AppleWebKit/537.36 (KHTML, like Gecko) Chrome/88.0.4324.146 Safari/537.36","v1","","","","","","","","40,50,60,70,80","media/audio/stims/spherical_300cm_s20_c20_cd-full_matched_a60.wav","spherical","20","20","full","matched","60","80","834"
"echo-presentation","93","667945","0.0-93.0","5f4bd2bc2619997c752dffe0","5fef55e628823a0076ec12ee","601f447bf99897496d78a100","Mozilla/5.0 (Windows NT 10.0; Win64; x64) AppleWebKit/537.36 (KHTML, like Gecko) Chrome/88.0.4324.146 Safari/537.36","v1","","","","","","","","40,50,60,70,80","media/audio/stims/spherical_300cm_s20_c20_cd-full_matched_a80.wav","spherical","20","20","full","matched","80","80","767"
"block-bookend","94","670552","0.0-94.0","5f4bd2bc2619997c752dffe0","5fef55e628823a0076ec12ee","601f447bf99897496d78a100","Mozilla/5.0 (Windows NT 10.0; Win64; x64) AppleWebKit/537.36 (KHTML, like Gecko) Chrome/88.0.4324.146 Safari/537.36","v1","","","","","","","","","","","","","","","","",""
"block-bookend","95","682621","0.0-95.0","5f4bd2bc2619997c752dffe0","5fef55e628823a0076ec12ee","601f447bf99897496d78a100","Mozilla/5.0 (Windows NT 10.0; Win64; x64) AppleWebKit/537.36 (KHTML, like Gecko) Chrome/88.0.4324.146 Safari/537.36","v1","","","","","","","","","","","","","","","","",""
"echo-presentation","96","686145","0.0-96.0","5f4bd2bc2619997c752dffe0","5fef55e628823a0076ec12ee","601f447bf99897496d78a100","Mozilla/5.0 (Windows NT 10.0; Win64; x64) AppleWebKit/537.36 (KHTML, like Gecko) Chrome/88.0.4324.146 Safari/537.36","v1","","","","","","","","-80,-70,-60,-50,-40","media/audio/stims/spherical_300cm_s20_c20_cd-full_matched_a-80.wav","spherical","20","20","full","matched","-80","-80","2107"
"echo-presentation","97","688326","0.0-97.0","5f4bd2bc2619997c752dffe0","5fef55e628823a0076ec12ee","601f447bf99897496d78a100","Mozilla/5.0 (Windows NT 10.0; Win64; x64) AppleWebKit/537.36 (KHTML, like Gecko) Chrome/88.0.4324.146 Safari/537.36","v1","","","","","","","","-80,-70,-60,-50,-40","media/audio/stims/spherical_300cm_s20_c20_cd-full_matched_a-80.wav","spherical","20","20","full","matched","-80","-80","1053"
"echo-presentation","98","690086","0.0-98.0","5f4bd2bc2619997c752dffe0","5fef55e628823a0076ec12ee","601f447bf99897496d78a100","Mozilla/5.0 (Windows NT 10.0; Win64; x64) AppleWebKit/537.36 (KHTML, like Gecko) Chrome/88.0.4324.146 Safari/537.36","v1","","","","","","","","-80,-70,-60,-50,-40","media/audio/stims/spherical_300cm_s20_c20_cd-full_matched_a-80.wav","spherical","20","20","full","matched","-80","-60","596"
"echo-presentation","99","692072","0.0-99.0","5f4bd2bc2619997c752dffe0","5fef55e628823a0076ec12ee","601f447bf99897496d78a100","Mozilla/5.0 (Windows NT 10.0; Win64; x64) AppleWebKit/537.36 (KHTML, like Gecko) Chrome/88.0.4324.146 Safari/537.36","v1","","","","","","","","-80,-70,-60,-50,-40","media/audio/stims/spherical_300cm_s20_c20_cd-full_matched_a-70.wav","spherical","20","20","full","matched","-70","-50","653"
"echo-presentation","100","695326","0.0-100.0","5f4bd2bc2619997c752dffe0","5fef55e628823a0076ec12ee","601f447bf99897496d78a100","Mozilla/5.0 (Windows NT 10.0; Win64; x64) AppleWebKit/537.36 (KHTML, like Gecko) Chrome/88.0.4324.146 Safari/537.36","v1","","","","","","","","-80,-70,-60,-50,-40","media/audio/stims/spherical_300cm_s20_c20_cd-full_matched_a-50.wav","spherical","20","20","full","matched","-50","-50","2404"
"echo-presentation","101","697306","0.0-101.0","5f4bd2bc2619997c752dffe0","5fef55e628823a0076ec12ee","601f447bf99897496d78a100","Mozilla/5.0 (Windows NT 10.0; Win64; x64) AppleWebKit/537.36 (KHTML, like Gecko) Chrome/88.0.4324.146 Safari/537.36","v1","","","","","","","","-80,-70,-60,-50,-40","media/audio/stims/spherical_300cm_s20_c20_cd-full_matched_a-70.wav","spherical","20","20","full","matched","-70","-50","838"
"echo-presentation","102","698714","0.0-102.0","5f4bd2bc2619997c752dffe0","5fef55e628823a0076ec12ee","601f447bf99897496d78a100","Mozilla/5.0 (Windows NT 10.0; Win64; x64) AppleWebKit/537.36 (KHTML, like Gecko) Chrome/88.0.4324.146 Safari/537.36","v1","","","","","","","","-80,-70,-60,-50,-40","media/audio/stims/spherical_300cm_s20_c20_cd-full_matched_a-50.wav","spherical","20","20","full","matched","-50","-50","601"
"echo-presentation","103","701316","0.0-103.0","5f4bd2bc2619997c752dffe0","5fef55e628823a0076ec12ee","601f447bf99897496d78a100","Mozilla/5.0 (Windows NT 10.0; Win64; x64) AppleWebKit/537.36 (KHTML, like Gecko) Chrome/88.0.4324.146 Safari/537.36","v1","","","","","","","","-80,-70,-60,-50,-40","media/audio/stims/spherical_300cm_s20_c20_cd-full_matched_a-60.wav","spherical","20","20","full","matched","-60","-80","1880"
"echo-presentation","104","703316","0.0-104.0","5f4bd2bc2619997c752dffe0","5fef55e628823a0076ec12ee","601f447bf99897496d78a100","Mozilla/5.0 (Windows NT 10.0; Win64; x64) AppleWebKit/537.36 (KHTML, like Gecko) Chrome/88.0.4324.146 Safari/537.36","v1","","","","","","","","-80,-70,-60,-50,-40","media/audio/stims/spherical_300cm_s20_c20_cd-full_matched_a-40.wav","spherical","20","20","full","matched","-40","-60","933"
"echo-presentation","105","704816","0.0-105.0","5f4bd2bc2619997c752dffe0","5fef55e628823a0076ec12ee","601f447bf99897496d78a100","Mozilla/5.0 (Windows NT 10.0; Win64; x64) AppleWebKit/537.36 (KHTML, like Gecko) Chrome/88.0.4324.146 Safari/537.36","v1","","","","","","","","-80,-70,-60,-50,-40","media/audio/stims/spherical_300cm_s20_c20_cd-full_matched_a-70.wav","spherical","20","20","full","matched","-70","-80","703"
"echo-presentation","106","707785","0.0-106.0","5f4bd2bc2619997c752dffe0","5fef55e628823a0076ec12ee","601f447bf99897496d78a100","Mozilla/5.0 (Windows NT 10.0; Win64; x64) AppleWebKit/537.36 (KHTML, like Gecko) Chrome/88.0.4324.146 Safari/537.36","v1","","","","","","","","-80,-70,-60,-50,-40","media/audio/stims/spherical_300cm_s20_c20_cd-full_matched_a-50.wav","spherical","20","20","full","matched","-50","-80","2170"
"echo-presentation","107","709406","0.0-107.0","5f4bd2bc2619997c752dffe0","5fef55e628823a0076ec12ee","601f447bf99897496d78a100","Mozilla/5.0 (Windows NT 10.0; Win64; x64) AppleWebKit/537.36 (KHTML, like Gecko) Chrome/88.0.4324.146 Safari/537.36","v1","","","","","","","","-80,-70,-60,-50,-40","media/audio/stims/spherical_300cm_s20_c20_cd-full_matched_a-50.wav","spherical","20","20","full","matched","-50","-50","593"
"echo-presentation","108","712316","0.0-108.0","5f4bd2bc2619997c752dffe0","5fef55e628823a0076ec12ee","601f447bf99897496d78a100","Mozilla/5.0 (Windows NT 10.0; Win64; x64) AppleWebKit/537.36 (KHTML, like Gecko) Chrome/88.0.4324.146 Safari/537.36","v1","","","","","","","","-80,-70,-60,-50,-40","media/audio/stims/spherical_300cm_s20_c20_cd-full_matched_a-60.wav","spherical","20","20","full","matched","-60","-80","1927"
"echo-presentation","109","714116","0.0-109.0","5f4bd2bc2619997c752dffe0","5fef55e628823a0076ec12ee","601f447bf99897496d78a100","Mozilla/5.0 (Windows NT 10.0; Win64; x64) AppleWebKit/537.36 (KHTML, like Gecko) Chrome/88.0.4324.146 Safari/537.36","v1","","","","","","","","-80,-70,-60,-50,-40","media/audio/stims/spherical_300cm_s20_c20_cd-full_matched_a-80.wav","spherical","20","20","full","matched","-80","-60","923"
"echo-presentation","110","716144","0.0-110.0","5f4bd2bc2619997c752dffe0","5fef55e628823a0076ec12ee","601f447bf99897496d78a100","Mozilla/5.0 (Windows NT 10.0; Win64; x64) AppleWebKit/537.36 (KHTML, like Gecko) Chrome/88.0.4324.146 Safari/537.36","v1","","","","","","","","-80,-70,-60,-50,-40","media/audio/stims/spherical_300cm_s20_c20_cd-full_matched_a-40.wav","spherical","20","20","full","matched","-40","-50","1193"
"echo-presentation","111","718442","0.0-111.0","5f4bd2bc2619997c752dffe0","5fef55e628823a0076ec12ee","601f447bf99897496d78a100","Mozilla/5.0 (Windows NT 10.0; Win64; x64) AppleWebKit/537.36 (KHTML, like Gecko) Chrome/88.0.4324.146 Safari/537.36","v1","","","","","","","","-80,-70,-60,-50,-40","media/audio/stims/spherical_300cm_s20_c20_cd-full_matched_a-60.wav","spherical","20","20","full","matched","-60","-50","1483"
"echo-presentation","112","720967","0.0-112.0","5f4bd2bc2619997c752dffe0","5fef55e628823a0076ec12ee","601f447bf99897496d78a100","Mozilla/5.0 (Windows NT 10.0; Win64; x64) AppleWebKit/537.36 (KHTML, like Gecko) Chrome/88.0.4324.146 Safari/537.36","v1","","","","","","","","-80,-70,-60,-50,-40","media/audio/stims/spherical_300cm_s20_c20_cd-full_matched_a-40.wav","spherical","20","20","full","matched","-40","-70","684"
"echo-presentation","113","722746","0.0-113.0","5f4bd2bc2619997c752dffe0","5fef55e628823a0076ec12ee","601f447bf99897496d78a100","Mozilla/5.0 (Windows NT 10.0; Win64; x64) AppleWebKit/537.36 (KHTML, like Gecko) Chrome/88.0.4324.146 Safari/537.36","v1","","","","","","","","-80,-70,-60,-50,-40","media/audio/stims/spherical_300cm_s20_c20_cd-full_matched_a-40.wav","spherical","20","20","full","matched","-40","-60","845"
"echo-presentation","114","724577","0.0-114.0","5f4bd2bc2619997c752dffe0","5fef55e628823a0076ec12ee","601f447bf99897496d78a100","Mozilla/5.0 (Windows NT 10.0; Win64; x64) AppleWebKit/537.36 (KHTML, like Gecko) Chrome/88.0.4324.146 Safari/537.36","v1","","","","","","","","-80,-70,-60,-50,-40","media/audio/stims/spherical_300cm_s20_c20_cd-full_matched_a-60.wav","spherical","20","20","full","matched","-60","-70","889"
"echo-presentation","115","726636","0.0-115.0","5f4bd2bc2619997c752dffe0","5fef55e628823a0076ec12ee","601f447bf99897496d78a100","Mozilla/5.0 (Windows NT 10.0; Win64; x64) AppleWebKit/537.36 (KHTML, like Gecko) Chrome/88.0.4324.146 Safari/537.36","v1","","","","","","","","-80,-70,-60,-50,-40","media/audio/stims/spherical_300cm_s20_c20_cd-full_matched_a-70.wav","spherical","20","20","full","matched","-70","-50","1261"
"block-bookend","116","731348","0.0-116.0","5f4bd2bc2619997c752dffe0","5fef55e628823a0076ec12ee","601f447bf99897496d78a100","Mozilla/5.0 (Windows NT 10.0; Win64; x64) AppleWebKit/537.36 (KHTML, like Gecko) Chrome/88.0.4324.146 Safari/537.36","v1","","","","","","","","","","","","","","","","",""
"block-bookend","117","735408","0.0-117.0","5f4bd2bc2619997c752dffe0","5fef55e628823a0076ec12ee","601f447bf99897496d78a100","Mozilla/5.0 (Windows NT 10.0; Win64; x64) AppleWebKit/537.36 (KHTML, like Gecko) Chrome/88.0.4324.146 Safari/537.36","v1","","","","","","","","","","","","","","","","",""
"echo-presentation","118","739746","0.0-118.0","5f4bd2bc2619997c752dffe0","5fef55e628823a0076ec12ee","601f447bf99897496d78a100","Mozilla/5.0 (Windows NT 10.0; Win64; x64) AppleWebKit/537.36 (KHTML, like Gecko) Chrome/88.0.4324.146 Safari/537.36","v1","","","","","","","","-80,-70,-60,-50,-40","media/audio/stims/spherical_300cm_s20_c20_cd-full_matched_a-70.wav","spherical","20","20","full","matched","-70","-80","2294"
"echo-presentation","119","743971","0.0-119.0","5f4bd2bc2619997c752dffe0","5fef55e628823a0076ec12ee","601f447bf99897496d78a100","Mozilla/5.0 (Windows NT 10.0; Win64; x64) AppleWebKit/537.36 (KHTML, like Gecko) Chrome/88.0.4324.146 Safari/537.36","v1","","","","","","","","-80,-70,-60,-50,-40","media/audio/stims/spherical_300cm_s20_c20_cd-full_matched_a-80.wav","spherical","20","20","full","matched","-80","-70","3194"
"echo-presentation","120","747681","0.0-120.0","5f4bd2bc2619997c752dffe0","5fef55e628823a0076ec12ee","601f447bf99897496d78a100","Mozilla/5.0 (Windows NT 10.0; Win64; x64) AppleWebKit/537.36 (KHTML, like Gecko) Chrome/88.0.4324.146 Safari/537.36","v1","","","","","","","","-80,-70,-60,-50,-40","media/audio/stims/spherical_300cm_s20_c20_cd-full_matched_a-40.wav","spherical","20","20","full","matched","-40","-50","1332"
"echo-presentation","121","749727","0.0-121.0","5f4bd2bc2619997c752dffe0","5fef55e628823a0076ec12ee","601f447bf99897496d78a100","Mozilla/5.0 (Windows NT 10.0; Win64; x64) AppleWebKit/537.36 (KHTML, like Gecko) Chrome/88.0.4324.146 Safari/537.36","v1","","","","","","","","-80,-70,-60,-50,-40","media/audio/stims/spherical_300cm_s20_c20_cd-full_matched_a-60.wav","spherical","20","20","full","matched","-60","-50","1040"
"echo-presentation","122","751776","0.0-122.0","5f4bd2bc2619997c752dffe0","5fef55e628823a0076ec12ee","601f447bf99897496d78a100","Mozilla/5.0 (Windows NT 10.0; Win64; x64) AppleWebKit/537.36 (KHTML, like Gecko) Chrome/88.0.4324.146 Safari/537.36","v1","","","","","","","","-80,-70,-60,-50,-40","media/audio/stims/spherical_300cm_s20_c20_cd-full_matched_a-40.wav","spherical","20","20","full","matched","-40","-70","983"
"echo-presentation","123","753846","0.0-123.0","5f4bd2bc2619997c752dffe0","5fef55e628823a0076ec12ee","601f447bf99897496d78a100","Mozilla/5.0 (Windows NT 10.0; Win64; x64) AppleWebKit/537.36 (KHTML, like Gecko) Chrome/88.0.4324.146 Safari/537.36","v1","","","","","","","","-80,-70,-60,-50,-40","media/audio/stims/spherical_300cm_s20_c20_cd-full_matched_a-70.wav","spherical","20","20","full","matched","-70","-80","966"
"echo-presentation","124","755790","0.0-124.0","5f4bd2bc2619997c752dffe0","5fef55e628823a0076ec12ee","601f447bf99897496d78a100","Mozilla/5.0 (Windows NT 10.0; Win64; x64) AppleWebKit/537.36 (KHTML, like Gecko) Chrome/88.0.4324.146 Safari/537.36","v1","","","","","","","","-80,-70,-60,-50,-40","media/audio/stims/spherical_300cm_s20_c20_cd-full_matched_a-80.wav","spherical","20","20","full","matched","-80","-60","870"
"echo-presentation","125","757589","0.0-125.0","5f4bd2bc2619997c752dffe0","5fef55e628823a0076ec12ee","601f447bf99897496d78a100","Mozilla/5.0 (Windows NT 10.0; Win64; x64) AppleWebKit/537.36 (KHTML, like Gecko) Chrome/88.0.4324.146 Safari/537.36","v1","","","","","","","","-80,-70,-60,-50,-40","media/audio/stims/spherical_300cm_s20_c20_cd-full_matched_a-60.wav","spherical","20","20","full","matched","-60","-80","723"
"echo-presentation","126","761781","0.0-126.0","5f4bd2bc2619997c752dffe0","5fef55e628823a0076ec12ee","601f447bf99897496d78a100","Mozilla/5.0 (Windows NT 10.0; Win64; x64) AppleWebKit/537.36 (KHTML, like Gecko) Chrome/88.0.4324.146 Safari/537.36","v1","","","","","","","","-80,-70,-60,-50,-40","media/audio/stims/spherical_300cm_s20_c20_cd-full_matched_a-80.wav","spherical","20","20","full","matched","-80","-80","3175"
"echo-presentation","127","763750","0.0-127.0","5f4bd2bc2619997c752dffe0","5fef55e628823a0076ec12ee","601f447bf99897496d78a100","Mozilla/5.0 (Windows NT 10.0; Win64; x64) AppleWebKit/537.36 (KHTML, like Gecko) Chrome/88.0.4324.146 Safari/537.36","v1","","","","","","","","-80,-70,-60,-50,-40","media/audio/stims/spherical_300cm_s20_c20_cd-full_matched_a-40.wav","spherical","20","20","full","matched","-40","-70","650"
"echo-presentation","128","765525","0.0-128.0","5f4bd2bc2619997c752dffe0","5fef55e628823a0076ec12ee","601f447bf99897496d78a100","Mozilla/5.0 (Windows NT 10.0; Win64; x64) AppleWebKit/537.36 (KHTML, like Gecko) Chrome/88.0.4324.146 Safari/537.36","v1","","","","","","","","-80,-70,-60,-50,-40","media/audio/stims/spherical_300cm_s20_c20_cd-full_matched_a-40.wav","spherical","20","20","full","matched","-40","-60","747"
"echo-presentation","129","767346","0.0-129.0","5f4bd2bc2619997c752dffe0","5fef55e628823a0076ec12ee","601f447bf99897496d78a100","Mozilla/5.0 (Windows NT 10.0; Win64; x64) AppleWebKit/537.36 (KHTML, like Gecko) Chrome/88.0.4324.146 Safari/537.36","v1","","","","","","","","-80,-70,-60,-50,-40","media/audio/stims/spherical_300cm_s20_c20_cd-full_matched_a-50.wav","spherical","20","20","full","matched","-50","-80","898"
"echo-presentation","130","769425","0.0-130.0","5f4bd2bc2619997c752dffe0","5fef55e628823a0076ec12ee","601f447bf99897496d78a100","Mozilla/5.0 (Windows NT 10.0; Win64; x64) AppleWebKit/537.36 (KHTML, like Gecko) Chrome/88.0.4324.146 Safari/537.36","v1","","","","","","","","-80,-70,-60,-50,-40","media/audio/stims/spherical_300cm_s20_c20_cd-full_matched_a-70.wav","spherical","20","20","full","matched","-70","-70","868"
"echo-presentation","131","771415","0.0-131.0","5f4bd2bc2619997c752dffe0","5fef55e628823a0076ec12ee","601f447bf99897496d78a100","Mozilla/5.0 (Windows NT 10.0; Win64; x64) AppleWebKit/537.36 (KHTML, like Gecko) Chrome/88.0.4324.146 Safari/537.36","v1","","","","","","","","-80,-70,-60,-50,-40","media/audio/stims/spherical_300cm_s20_c20_cd-full_matched_a-50.wav","spherical","20","20","full","matched","-50","-80","967"
"echo-presentation","132","773207","0.0-132.0","5f4bd2bc2619997c752dffe0","5fef55e628823a0076ec12ee","601f447bf99897496d78a100","Mozilla/5.0 (Windows NT 10.0; Win64; x64) AppleWebKit/537.36 (KHTML, like Gecko) Chrome/88.0.4324.146 Safari/537.36","v1","","","","","","","","-80,-70,-60,-50,-40","media/audio/stims/spherical_300cm_s20_c20_cd-full_matched_a-50.wav","spherical","20","20","full","matched","-50","-80","942"
"echo-presentation","133","774865","0.0-133.0","5f4bd2bc2619997c752dffe0","5fef55e628823a0076ec12ee","601f447bf99897496d78a100","Mozilla/5.0 (Windows NT 10.0; Win64; x64) AppleWebKit/537.36 (KHTML, like Gecko) Chrome/88.0.4324.146 Safari/537.36","v1","","","","","","","","-80,-70,-60,-50,-40","media/audio/stims/spherical_300cm_s20_c20_cd-full_matched_a-60.wav","spherical","20","20","full","matched","-60","-60","795"
"echo-presentation","134","776486","0.0-134.0","5f4bd2bc2619997c752dffe0","5fef55e628823a0076ec12ee","601f447bf99897496d78a100","Mozilla/5.0 (Windows NT 10.0; Win64; x64) AppleWebKit/537.36 (KHTML, like Gecko) Chrome/88.0.4324.146 Safari/537.36","v1","","","","","","","","-80,-70,-60,-50,-40","media/audio/stims/spherical_300cm_s20_c20_cd-full_matched_a-70.wav","spherical","20","20","full","matched","-70","-80","769"
"echo-presentation","135","778196","0.0-135.0","5f4bd2bc2619997c752dffe0","5fef55e628823a0076ec12ee","601f447bf99897496d78a100","Mozilla/5.0 (Windows NT 10.0; Win64; x64) AppleWebKit/537.36 (KHTML, like Gecko) Chrome/88.0.4324.146 Safari/537.36","v1","","","","","","","","-80,-70,-60,-50,-40","media/audio/stims/spherical_300cm_s20_c20_cd-full_matched_a-60.wav","spherical","20","20","full","matched","-60","-70","834"
"echo-presentation","136","780036","0.0-136.0","5f4bd2bc2619997c752dffe0","5fef55e628823a0076ec12ee","601f447bf99897496d78a100","Mozilla/5.0 (Windows NT 10.0; Win64; x64) AppleWebKit/537.36 (KHTML, like Gecko) Chrome/88.0.4324.146 Safari/537.36","v1","","","","","","","","-80,-70,-60,-50,-40","media/audio/stims/spherical_300cm_s20_c20_cd-full_matched_a-80.wav","spherical","20","20","full","matched","-80","-80","1006"
"echo-presentation","137","782356","0.0-137.0","5f4bd2bc2619997c752dffe0","5fef55e628823a0076ec12ee","601f447bf99897496d78a100","Mozilla/5.0 (Windows NT 10.0; Win64; x64) AppleWebKit/537.36 (KHTML, like Gecko) Chrome/88.0.4324.146 Safari/537.36","v1","","","","","","","","-80,-70,-60,-50,-40","media/audio/stims/spherical_300cm_s20_c20_cd-full_matched_a-50.wav","spherical","20","20","full","matched","-50","-70","1149"
"block-bookend","138","783958","0.0-138.0","5f4bd2bc2619997c752dffe0","5fef55e628823a0076ec12ee","601f447bf99897496d78a100","Mozilla/5.0 (Windows NT 10.0; Win64; x64) AppleWebKit/537.36 (KHTML, like Gecko) Chrome/88.0.4324.146 Safari/537.36","v1","","","","","","","","","","","","","","","","",""
