"trial_type","trial_index","time_elapsed","internal_node_id","prolificPid","studyId","sessionId","userAgent","version","rt","stimulus","key_press","chosenKeyset","failureCount","testIndex","globalVolume","choices","filename","modelName","slowdown","compensation","compensationDescriptor","receiverOrientationType","azimuth","responseAzimuth","responseDelay"
"pavlovia","0","4","0.0-0.0","5fa5b5af0c782d12315dfd32","60242478c74f84097a222710","6024267c1f909a096f2a6447","Mozilla/5.0 (Windows NT 10.0; Win64; x64) AppleWebKit/537.36 (KHTML, like Gecko) Chrome/88.0.4324.150 Safari/537.36","v1-up-stims","","","","","","","","","","","","","","","","",""
"html-keyboard-response","1","33093","0.0-1.0","5fa5b5af0c782d12315dfd32","60242478c74f84097a222710","6024267c1f909a096f2a6447","Mozilla/5.0 (Windows NT 10.0; Win64; x64) AppleWebKit/537.36 (KHTML, like Gecko) Chrome/88.0.4324.150 Safari/537.36","v1-up-stims","33088.17000000272","<div><h1>Welcome!</h1><p>Press any key to continue.</p></div>","32","","","","","","","","","","","","","",""
"consent-form","2","42815","0.0-2.0","5fa5b5af0c782d12315dfd32","60242478c74f84097a222710","6024267c1f909a096f2a6447","Mozilla/5.0 (Windows NT 10.0; Win64; x64) AppleWebKit/537.36 (KHTML, like Gecko) Chrome/88.0.4324.150 Safari/537.36","v1-up-stims","","","","","","","","","","","","","","","","",""
"keyset-select","3","111252","0.0-3.0","5fa5b5af0c782d12315dfd32","60242478c74f84097a222710","6024267c1f909a096f2a6447","Mozilla/5.0 (Windows NT 10.0; Win64; x64) AppleWebKit/537.36 (KHTML, like Gecko) Chrome/88.0.4324.150 Safari/537.36","v1-up-stims","","","","left-hand","","","","","","","","","","","","",""
"headphone-check","4","168414","0.0-4.0","5fa5b5af0c782d12315dfd32","60242478c74f84097a222710","6024267c1f909a096f2a6447","Mozilla/5.0 (Windows NT 10.0; Win64; x64) AppleWebKit/537.36 (KHTML, like Gecko) Chrome/88.0.4324.150 Safari/537.36","v1-up-stims","","","","","0","6","0.3","","","","","","","","","",""
"headphone-backwards-check","5","180857","0.0-5.0","5fa5b5af0c782d12315dfd32","60242478c74f84097a222710","6024267c1f909a096f2a6447","Mozilla/5.0 (Windows NT 10.0; Win64; x64) AppleWebKit/537.36 (KHTML, like Gecko) Chrome/88.0.4324.150 Safari/537.36","v1-up-stims","","","","","0","","","","","","","","","","","",""
"training","6","301438","0.0-6.0","5fa5b5af0c782d12315dfd32","60242478c74f84097a222710","6024267c1f909a096f2a6447","Mozilla/5.0 (Windows NT 10.0; Win64; x64) AppleWebKit/537.36 (KHTML, like Gecko) Chrome/88.0.4324.150 Safari/537.36","v1-up-stims","","","","","","","","","","","","","","","","",""
"block-bookend","7","317999","0.0-7.0","5fa5b5af0c782d12315dfd32","60242478c74f84097a222710","6024267c1f909a096f2a6447","Mozilla/5.0 (Windows NT 10.0; Win64; x64) AppleWebKit/537.36 (KHTML, like Gecko) Chrome/88.0.4324.150 Safari/537.36","v1-up-stims","","","","","","","","","","","","","","","","",""
"echo-presentation","8","326282","0.0-8.0","5fa5b5af0c782d12315dfd32","60242478c74f84097a222710","6024267c1f909a096f2a6447","Mozilla/5.0 (Windows NT 10.0; Win64; x64) AppleWebKit/537.36 (KHTML, like Gecko) Chrome/88.0.4324.150 Safari/537.36","v1-up-stims","","","","","","","","-20,-10,0,10,20","media/audio/stims/spherical_300cm_s20_c10_cd-half_matched_a10.wav","spherical","20","10","half","matched","10","0","3448"
"echo-presentation","9","329684","0.0-9.0","5fa5b5af0c782d12315dfd32","60242478c74f84097a222710","6024267c1f909a096f2a6447","Mozilla/5.0 (Windows NT 10.0; Win64; x64) AppleWebKit/537.36 (KHTML, like Gecko) Chrome/88.0.4324.150 Safari/537.36","v1-up-stims","","","","","","","","-20,-10,0,10,20","media/audio/stims/spherical_300cm_s20_c10_cd-half_matched_a-20.wav","spherical","20","10","half","matched","-20","-10","1862"
"echo-presentation","10","332253","0.0-10.0","5fa5b5af0c782d12315dfd32","60242478c74f84097a222710","6024267c1f909a096f2a6447","Mozilla/5.0 (Windows NT 10.0; Win64; x64) AppleWebKit/537.36 (KHTML, like Gecko) Chrome/88.0.4324.150 Safari/537.36","v1-up-stims","","","","","","","","-20,-10,0,10,20","media/audio/stims/spherical_300cm_s20_c10_cd-half_matched_a-10.wav","spherical","20","10","half","matched","-10","-10","1427"
"echo-presentation","11","335055","0.0-11.0","5fa5b5af0c782d12315dfd32","60242478c74f84097a222710","6024267c1f909a096f2a6447","Mozilla/5.0 (Windows NT 10.0; Win64; x64) AppleWebKit/537.36 (KHTML, like Gecko) Chrome/88.0.4324.150 Safari/537.36","v1-up-stims","","","","","","","","-20,-10,0,10,20","media/audio/stims/spherical_300cm_s20_c10_cd-half_matched_a-10.wav","spherical","20","10","half","matched","-10","-20","1562"
"echo-presentation","12","337912","0.0-12.0","5fa5b5af0c782d12315dfd32","60242478c74f84097a222710","6024267c1f909a096f2a6447","Mozilla/5.0 (Windows NT 10.0; Win64; x64) AppleWebKit/537.36 (KHTML, like Gecko) Chrome/88.0.4324.150 Safari/537.36","v1-up-stims","","","","","","","","-20,-10,0,10,20","media/audio/stims/spherical_300cm_s20_c10_cd-half_matched_a20.wav","spherical","20","10","half","matched","20","10","1818"
"echo-presentation","13","342981","0.0-13.0","5fa5b5af0c782d12315dfd32","60242478c74f84097a222710","6024267c1f909a096f2a6447","Mozilla/5.0 (Windows NT 10.0; Win64; x64) AppleWebKit/537.36 (KHTML, like Gecko) Chrome/88.0.4324.150 Safari/537.36","v1-up-stims","","","","","","","","-20,-10,0,10,20","media/audio/stims/spherical_300cm_s20_c10_cd-half_matched_a0.wav","spherical","20","10","half","matched","0","10","3883"
"echo-presentation","14","345423","0.0-14.0","5fa5b5af0c782d12315dfd32","60242478c74f84097a222710","6024267c1f909a096f2a6447","Mozilla/5.0 (Windows NT 10.0; Win64; x64) AppleWebKit/537.36 (KHTML, like Gecko) Chrome/88.0.4324.150 Safari/537.36","v1-up-stims","","","","","","","","-20,-10,0,10,20","media/audio/stims/spherical_300cm_s20_c10_cd-half_matched_a-20.wav","spherical","20","10","half","matched","-20","-10","1291"
"echo-presentation","15","348580","0.0-15.0","5fa5b5af0c782d12315dfd32","60242478c74f84097a222710","6024267c1f909a096f2a6447","Mozilla/5.0 (Windows NT 10.0; Win64; x64) AppleWebKit/537.36 (KHTML, like Gecko) Chrome/88.0.4324.150 Safari/537.36","v1-up-stims","","","","","","","","-20,-10,0,10,20","media/audio/stims/spherical_300cm_s20_c10_cd-half_matched_a0.wav","spherical","20","10","half","matched","0","0","2062"
"echo-presentation","16","350828","0.0-16.0","5fa5b5af0c782d12315dfd32","60242478c74f84097a222710","6024267c1f909a096f2a6447","Mozilla/5.0 (Windows NT 10.0; Win64; x64) AppleWebKit/537.36 (KHTML, like Gecko) Chrome/88.0.4324.150 Safari/537.36","v1-up-stims","","","","","","","","-20,-10,0,10,20","media/audio/stims/spherical_300cm_s20_c10_cd-half_matched_a0.wav","spherical","20","10","half","matched","0","0","1133"
"echo-presentation","17","353142","0.0-17.0","5fa5b5af0c782d12315dfd32","60242478c74f84097a222710","6024267c1f909a096f2a6447","Mozilla/5.0 (Windows NT 10.0; Win64; x64) AppleWebKit/537.36 (KHTML, like Gecko) Chrome/88.0.4324.150 Safari/537.36","v1-up-stims","","","","","","","","-20,-10,0,10,20","media/audio/stims/spherical_300cm_s20_c10_cd-half_matched_a20.wav","spherical","20","10","half","matched","20","10","1475"
"echo-presentation","18","355458","0.0-18.0","5fa5b5af0c782d12315dfd32","60242478c74f84097a222710","6024267c1f909a096f2a6447","Mozilla/5.0 (Windows NT 10.0; Win64; x64) AppleWebKit/537.36 (KHTML, like Gecko) Chrome/88.0.4324.150 Safari/537.36","v1-up-stims","","","","","","","","-20,-10,0,10,20","media/audio/stims/spherical_300cm_s20_c10_cd-half_matched_a0.wav","spherical","20","10","half","matched","0","0","1518"
"echo-presentation","19","358311","0.0-19.0","5fa5b5af0c782d12315dfd32","60242478c74f84097a222710","6024267c1f909a096f2a6447","Mozilla/5.0 (Windows NT 10.0; Win64; x64) AppleWebKit/537.36 (KHTML, like Gecko) Chrome/88.0.4324.150 Safari/537.36","v1-up-stims","","","","","","","","-20,-10,0,10,20","media/audio/stims/spherical_300cm_s20_c10_cd-half_matched_a-20.wav","spherical","20","10","half","matched","-20","-20","1875"
"echo-presentation","20","362094","0.0-20.0","5fa5b5af0c782d12315dfd32","60242478c74f84097a222710","6024267c1f909a096f2a6447","Mozilla/5.0 (Windows NT 10.0; Win64; x64) AppleWebKit/537.36 (KHTML, like Gecko) Chrome/88.0.4324.150 Safari/537.36","v1-up-stims","","","","","","","","-20,-10,0,10,20","media/audio/stims/spherical_300cm_s20_c10_cd-half_matched_a-10.wav","spherical","20","10","half","matched","-10","-10","2852"
"echo-presentation","21","364513","0.0-21.0","5fa5b5af0c782d12315dfd32","60242478c74f84097a222710","6024267c1f909a096f2a6447","Mozilla/5.0 (Windows NT 10.0; Win64; x64) AppleWebKit/537.36 (KHTML, like Gecko) Chrome/88.0.4324.150 Safari/537.36","v1-up-stims","","","","","","","","-20,-10,0,10,20","media/audio/stims/spherical_300cm_s20_c10_cd-half_matched_a10.wav","spherical","20","10","half","matched","10","10","1400"
"echo-presentation","22","367766","0.0-22.0","5fa5b5af0c782d12315dfd32","60242478c74f84097a222710","6024267c1f909a096f2a6447","Mozilla/5.0 (Windows NT 10.0; Win64; x64) AppleWebKit/537.36 (KHTML, like Gecko) Chrome/88.0.4324.150 Safari/537.36","v1-up-stims","","","","","","","","-20,-10,0,10,20","media/audio/stims/spherical_300cm_s20_c10_cd-half_matched_a10.wav","spherical","20","10","half","matched","10","20","2432"
"echo-presentation","23","371847","0.0-23.0","5fa5b5af0c782d12315dfd32","60242478c74f84097a222710","6024267c1f909a096f2a6447","Mozilla/5.0 (Windows NT 10.0; Win64; x64) AppleWebKit/537.36 (KHTML, like Gecko) Chrome/88.0.4324.150 Safari/537.36","v1-up-stims","","","","","","","","-20,-10,0,10,20","media/audio/stims/spherical_300cm_s20_c10_cd-half_matched_a20.wav","spherical","20","10","half","matched","20","10","2488"
"echo-presentation","24","374252","0.0-24.0","5fa5b5af0c782d12315dfd32","60242478c74f84097a222710","6024267c1f909a096f2a6447","Mozilla/5.0 (Windows NT 10.0; Win64; x64) AppleWebKit/537.36 (KHTML, like Gecko) Chrome/88.0.4324.150 Safari/537.36","v1-up-stims","","","","","","","","-20,-10,0,10,20","media/audio/stims/spherical_300cm_s20_c10_cd-half_matched_a-20.wav","spherical","20","10","half","matched","-20","-10","1535"
"echo-presentation","25","377253","0.0-25.0","5fa5b5af0c782d12315dfd32","60242478c74f84097a222710","6024267c1f909a096f2a6447","Mozilla/5.0 (Windows NT 10.0; Win64; x64) AppleWebKit/537.36 (KHTML, like Gecko) Chrome/88.0.4324.150 Safari/537.36","v1-up-stims","","","","","","","","-20,-10,0,10,20","media/audio/stims/spherical_300cm_s20_c10_cd-half_matched_a10.wav","spherical","20","10","half","matched","10","0","1899"
"echo-presentation","26","380130","0.0-26.0","5fa5b5af0c782d12315dfd32","60242478c74f84097a222710","6024267c1f909a096f2a6447","Mozilla/5.0 (Windows NT 10.0; Win64; x64) AppleWebKit/537.36 (KHTML, like Gecko) Chrome/88.0.4324.150 Safari/537.36","v1-up-stims","","","","","","","","-20,-10,0,10,20","media/audio/stims/spherical_300cm_s20_c10_cd-half_matched_a20.wav","spherical","20","10","half","matched","20","20","1415"
"echo-presentation","27","382870","0.0-27.0","5fa5b5af0c782d12315dfd32","60242478c74f84097a222710","6024267c1f909a096f2a6447","Mozilla/5.0 (Windows NT 10.0; Win64; x64) AppleWebKit/537.36 (KHTML, like Gecko) Chrome/88.0.4324.150 Safari/537.36","v1-up-stims","","","","","","","","-20,-10,0,10,20","media/audio/stims/spherical_300cm_s20_c10_cd-half_matched_a-10.wav","spherical","20","10","half","matched","-10","-10","1748"
"block-bookend","28","386315","0.0-28.0","5fa5b5af0c782d12315dfd32","60242478c74f84097a222710","6024267c1f909a096f2a6447","Mozilla/5.0 (Windows NT 10.0; Win64; x64) AppleWebKit/537.36 (KHTML, like Gecko) Chrome/88.0.4324.150 Safari/537.36","v1-up-stims","","","","","","","","","","","","","","","","",""
"block-bookend","29","395978","0.0-29.0","5fa5b5af0c782d12315dfd32","60242478c74f84097a222710","6024267c1f909a096f2a6447","Mozilla/5.0 (Windows NT 10.0; Win64; x64) AppleWebKit/537.36 (KHTML, like Gecko) Chrome/88.0.4324.150 Safari/537.36","v1-up-stims","","","","","","","","","","","","","","","","",""
"echo-presentation","30","399399","0.0-30.0","5fa5b5af0c782d12315dfd32","60242478c74f84097a222710","6024267c1f909a096f2a6447","Mozilla/5.0 (Windows NT 10.0; Win64; x64) AppleWebKit/537.36 (KHTML, like Gecko) Chrome/88.0.4324.150 Safari/537.36","v1-up-stims","","","","","","","","-20,-10,0,10,20","media/audio/stims/spherical_300cm_s20_c10_cd-half_matched_a-20.wav","spherical","20","10","half","matched","-20","-20","1370"
"echo-presentation","31","401439","0.0-31.0","5fa5b5af0c782d12315dfd32","60242478c74f84097a222710","6024267c1f909a096f2a6447","Mozilla/5.0 (Windows NT 10.0; Win64; x64) AppleWebKit/537.36 (KHTML, like Gecko) Chrome/88.0.4324.150 Safari/537.36","v1-up-stims","","","","","","","","-20,-10,0,10,20","media/audio/stims/spherical_300cm_s20_c10_cd-half_matched_a-20.wav","spherical","20","10","half","matched","-20","-20","999"
"echo-presentation","32","403481","0.0-32.0","5fa5b5af0c782d12315dfd32","60242478c74f84097a222710","6024267c1f909a096f2a6447","Mozilla/5.0 (Windows NT 10.0; Win64; x64) AppleWebKit/537.36 (KHTML, like Gecko) Chrome/88.0.4324.150 Safari/537.36","v1-up-stims","","","","","","","","-20,-10,0,10,20","media/audio/stims/spherical_300cm_s20_c10_cd-half_matched_a-20.wav","spherical","20","10","half","matched","-20","-20","987"
"echo-presentation","33","405852","0.0-33.0","5fa5b5af0c782d12315dfd32","60242478c74f84097a222710","6024267c1f909a096f2a6447","Mozilla/5.0 (Windows NT 10.0; Win64; x64) AppleWebKit/537.36 (KHTML, like Gecko) Chrome/88.0.4324.150 Safari/537.36","v1-up-stims","","","","","","","","-20,-10,0,10,20","media/audio/stims/spherical_300cm_s20_c10_cd-half_matched_a0.wav","spherical","20","10","half","matched","0","0","1536"
"echo-presentation","34","408173","0.0-34.0","5fa5b5af0c782d12315dfd32","60242478c74f84097a222710","6024267c1f909a096f2a6447","Mozilla/5.0 (Windows NT 10.0; Win64; x64) AppleWebKit/537.36 (KHTML, like Gecko) Chrome/88.0.4324.150 Safari/537.36","v1-up-stims","","","","","","","","-20,-10,0,10,20","media/audio/stims/spherical_300cm_s20_c10_cd-half_matched_a10.wav","spherical","20","10","half","matched","10","10","1218"
"echo-presentation","35","410138","0.0-35.0","5fa5b5af0c782d12315dfd32","60242478c74f84097a222710","6024267c1f909a096f2a6447","Mozilla/5.0 (Windows NT 10.0; Win64; x64) AppleWebKit/537.36 (KHTML, like Gecko) Chrome/88.0.4324.150 Safari/537.36","v1-up-stims","","","","","","","","-20,-10,0,10,20","media/audio/stims/spherical_300cm_s20_c10_cd-half_matched_a-20.wav","spherical","20","10","half","matched","-20","-20","1181"
"echo-presentation","36","412826","0.0-36.0","5fa5b5af0c782d12315dfd32","60242478c74f84097a222710","6024267c1f909a096f2a6447","Mozilla/5.0 (Windows NT 10.0; Win64; x64) AppleWebKit/537.36 (KHTML, like Gecko) Chrome/88.0.4324.150 Safari/537.36","v1-up-stims","","","","","","","","-20,-10,0,10,20","media/audio/stims/spherical_300cm_s20_c10_cd-half_matched_a0.wav","spherical","20","10","half","matched","0","0","1702"
"echo-presentation","37","414783","0.0-37.0","5fa5b5af0c782d12315dfd32","60242478c74f84097a222710","6024267c1f909a096f2a6447","Mozilla/5.0 (Windows NT 10.0; Win64; x64) AppleWebKit/537.36 (KHTML, like Gecko) Chrome/88.0.4324.150 Safari/537.36","v1-up-stims","","","","","","","","-20,-10,0,10,20","media/audio/stims/spherical_300cm_s20_c10_cd-half_matched_a20.wav","spherical","20","10","half","matched","20","10","1169"
"echo-presentation","38","417104","0.0-38.0","5fa5b5af0c782d12315dfd32","60242478c74f84097a222710","6024267c1f909a096f2a6447","Mozilla/5.0 (Windows NT 10.0; Win64; x64) AppleWebKit/537.36 (KHTML, like Gecko) Chrome/88.0.4324.150 Safari/537.36","v1-up-stims","","","","","","","","-20,-10,0,10,20","media/audio/stims/spherical_300cm_s20_c10_cd-half_matched_a20.wav","spherical","20","10","half","matched","20","20","1655"
"echo-presentation","39","419501","0.0-39.0","5fa5b5af0c782d12315dfd32","60242478c74f84097a222710","6024267c1f909a096f2a6447","Mozilla/5.0 (Windows NT 10.0; Win64; x64) AppleWebKit/537.36 (KHTML, like Gecko) Chrome/88.0.4324.150 Safari/537.36","v1-up-stims","","","","","","","","-20,-10,0,10,20","media/audio/stims/spherical_300cm_s20_c10_cd-half_matched_a10.wav","spherical","20","10","half","matched","10","10","1404"
"echo-presentation","40","421757","0.0-40.0","5fa5b5af0c782d12315dfd32","60242478c74f84097a222710","6024267c1f909a096f2a6447","Mozilla/5.0 (Windows NT 10.0; Win64; x64) AppleWebKit/537.36 (KHTML, like Gecko) Chrome/88.0.4324.150 Safari/537.36","v1-up-stims","","","","","","","","-20,-10,0,10,20","media/audio/stims/spherical_300cm_s20_c10_cd-half_matched_a0.wav","spherical","20","10","half","matched","0","0","1426"
"echo-presentation","41","424110","0.0-41.0","5fa5b5af0c782d12315dfd32","60242478c74f84097a222710","6024267c1f909a096f2a6447","Mozilla/5.0 (Windows NT 10.0; Win64; x64) AppleWebKit/537.36 (KHTML, like Gecko) Chrome/88.0.4324.150 Safari/537.36","v1-up-stims","","","","","","","","-20,-10,0,10,20","media/audio/stims/spherical_300cm_s20_c10_cd-half_matched_a-10.wav","spherical","20","10","half","matched","-10","-10","1531"
"echo-presentation","42","426191","0.0-42.0","5fa5b5af0c782d12315dfd32","60242478c74f84097a222710","6024267c1f909a096f2a6447","Mozilla/5.0 (Windows NT 10.0; Win64; x64) AppleWebKit/537.36 (KHTML, like Gecko) Chrome/88.0.4324.150 Safari/537.36","v1-up-stims","","","","","","","","-20,-10,0,10,20","media/audio/stims/spherical_300cm_s20_c10_cd-half_matched_a10.wav","spherical","20","10","half","matched","10","10","1413"
"echo-presentation","43","427965","0.0-43.0","5fa5b5af0c782d12315dfd32","60242478c74f84097a222710","6024267c1f909a096f2a6447","Mozilla/5.0 (Windows NT 10.0; Win64; x64) AppleWebKit/537.36 (KHTML, like Gecko) Chrome/88.0.4324.150 Safari/537.36","v1-up-stims","","","","","","","","-20,-10,0,10,20","media/audio/stims/spherical_300cm_s20_c10_cd-half_matched_a20.wav","spherical","20","10","half","matched","20","20","1211"
"echo-presentation","44","430029","0.0-44.0","5fa5b5af0c782d12315dfd32","60242478c74f84097a222710","6024267c1f909a096f2a6447","Mozilla/5.0 (Windows NT 10.0; Win64; x64) AppleWebKit/537.36 (KHTML, like Gecko) Chrome/88.0.4324.150 Safari/537.36","v1-up-stims","","","","","","","","-20,-10,0,10,20","media/audio/stims/spherical_300cm_s20_c10_cd-half_matched_a10.wav","spherical","20","10","half","matched","10","20","1164"
"echo-presentation","45","432436","0.0-45.0","5fa5b5af0c782d12315dfd32","60242478c74f84097a222710","6024267c1f909a096f2a6447","Mozilla/5.0 (Windows NT 10.0; Win64; x64) AppleWebKit/537.36 (KHTML, like Gecko) Chrome/88.0.4324.150 Safari/537.36","v1-up-stims","","","","","","","","-20,-10,0,10,20","media/audio/stims/spherical_300cm_s20_c10_cd-half_matched_a-10.wav","spherical","20","10","half","matched","-10","-10","1361"
"echo-presentation","46","434530","0.0-46.0","5fa5b5af0c782d12315dfd32","60242478c74f84097a222710","6024267c1f909a096f2a6447","Mozilla/5.0 (Windows NT 10.0; Win64; x64) AppleWebKit/537.36 (KHTML, like Gecko) Chrome/88.0.4324.150 Safari/537.36","v1-up-stims","","","","","","","","-20,-10,0,10,20","media/audio/stims/spherical_300cm_s20_c10_cd-half_matched_a0.wav","spherical","20","10","half","matched","0","0","1303"
"echo-presentation","47","436988","0.0-47.0","5fa5b5af0c782d12315dfd32","60242478c74f84097a222710","6024267c1f909a096f2a6447","Mozilla/5.0 (Windows NT 10.0; Win64; x64) AppleWebKit/537.36 (KHTML, like Gecko) Chrome/88.0.4324.150 Safari/537.36","v1-up-stims","","","","","","","","-20,-10,0,10,20","media/audio/stims/spherical_300cm_s20_c10_cd-half_matched_a-10.wav","spherical","20","10","half","matched","-10","-10","1551"
"echo-presentation","48","439127","0.0-48.0","5fa5b5af0c782d12315dfd32","60242478c74f84097a222710","6024267c1f909a096f2a6447","Mozilla/5.0 (Windows NT 10.0; Win64; x64) AppleWebKit/537.36 (KHTML, like Gecko) Chrome/88.0.4324.150 Safari/537.36","v1-up-stims","","","","","","","","-20,-10,0,10,20","media/audio/stims/spherical_300cm_s20_c10_cd-half_matched_a-10.wav","spherical","20","10","half","matched","-10","-10","1201"
"echo-presentation","49","441222","0.0-49.0","5fa5b5af0c782d12315dfd32","60242478c74f84097a222710","6024267c1f909a096f2a6447","Mozilla/5.0 (Windows NT 10.0; Win64; x64) AppleWebKit/537.36 (KHTML, like Gecko) Chrome/88.0.4324.150 Safari/537.36","v1-up-stims","","","","","","","","-20,-10,0,10,20","media/audio/stims/spherical_300cm_s20_c10_cd-half_matched_a20.wav","spherical","20","10","half","matched","20","20","1210"
"block-bookend","50","443210","0.0-50.0","5fa5b5af0c782d12315dfd32","60242478c74f84097a222710","6024267c1f909a096f2a6447","Mozilla/5.0 (Windows NT 10.0; Win64; x64) AppleWebKit/537.36 (KHTML, like Gecko) Chrome/88.0.4324.150 Safari/537.36","v1-up-stims","","","","","","","","","","","","","","","","",""
"block-bookend","51","449316","0.0-51.0","5fa5b5af0c782d12315dfd32","60242478c74f84097a222710","6024267c1f909a096f2a6447","Mozilla/5.0 (Windows NT 10.0; Win64; x64) AppleWebKit/537.36 (KHTML, like Gecko) Chrome/88.0.4324.150 Safari/537.36","v1-up-stims","","","","","","","","","","","","","","","","",""
"echo-presentation","52","453116","0.0-52.0","5fa5b5af0c782d12315dfd32","60242478c74f84097a222710","6024267c1f909a096f2a6447","Mozilla/5.0 (Windows NT 10.0; Win64; x64) AppleWebKit/537.36 (KHTML, like Gecko) Chrome/88.0.4324.150 Safari/537.36","v1-up-stims","","","","","","","","-80,-70,-60,-50,-40","media/audio/stims/spherical_300cm_s20_c10_cd-half_matched_a-60.wav","spherical","20","10","half","matched","-60","-80","1564"
"echo-presentation","53","454994","0.0-53.0","5fa5b5af0c782d12315dfd32","60242478c74f84097a222710","6024267c1f909a096f2a6447","Mozilla/5.0 (Windows NT 10.0; Win64; x64) AppleWebKit/537.36 (KHTML, like Gecko) Chrome/88.0.4324.150 Safari/537.36","v1-up-stims","","","","","","","","-80,-70,-60,-50,-40","media/audio/stims/spherical_300cm_s20_c10_cd-half_matched_a-70.wav","spherical","20","10","half","matched","-70","-80","1056"
"echo-presentation","54","457006","0.0-54.0","5fa5b5af0c782d12315dfd32","60242478c74f84097a222710","6024267c1f909a096f2a6447","Mozilla/5.0 (Windows NT 10.0; Win64; x64) AppleWebKit/537.36 (KHTML, like Gecko) Chrome/88.0.4324.150 Safari/537.36","v1-up-stims","","","","","","","","-80,-70,-60,-50,-40","media/audio/stims/spherical_300cm_s20_c10_cd-half_matched_a-40.wav","spherical","20","10","half","matched","-40","-80","993"
"echo-presentation","55","460237","0.0-55.0","5fa5b5af0c782d12315dfd32","60242478c74f84097a222710","6024267c1f909a096f2a6447","Mozilla/5.0 (Windows NT 10.0; Win64; x64) AppleWebKit/537.36 (KHTML, like Gecko) Chrome/88.0.4324.150 Safari/537.36","v1-up-stims","","","","","","","","-80,-70,-60,-50,-40","media/audio/stims/spherical_300cm_s20_c10_cd-half_matched_a-60.wav","spherical","20","10","half","matched","-60","-80","1959"
"echo-presentation","56","462457","0.0-56.0","5fa5b5af0c782d12315dfd32","60242478c74f84097a222710","6024267c1f909a096f2a6447","Mozilla/5.0 (Windows NT 10.0; Win64; x64) AppleWebKit/537.36 (KHTML, like Gecko) Chrome/88.0.4324.150 Safari/537.36","v1-up-stims","","","","","","","","-80,-70,-60,-50,-40","media/audio/stims/spherical_300cm_s20_c10_cd-half_matched_a-70.wav","spherical","20","10","half","matched","-70","-80","1379"
"echo-presentation","57","464672","0.0-57.0","5fa5b5af0c782d12315dfd32","60242478c74f84097a222710","6024267c1f909a096f2a6447","Mozilla/5.0 (Windows NT 10.0; Win64; x64) AppleWebKit/537.36 (KHTML, like Gecko) Chrome/88.0.4324.150 Safari/537.36","v1-up-stims","","","","","","","","-80,-70,-60,-50,-40","media/audio/stims/spherical_300cm_s20_c10_cd-half_matched_a-60.wav","spherical","20","10","half","matched","-60","-80","1212"
"echo-presentation","58","466702","0.0-58.0","5fa5b5af0c782d12315dfd32","60242478c74f84097a222710","6024267c1f909a096f2a6447","Mozilla/5.0 (Windows NT 10.0; Win64; x64) AppleWebKit/537.36 (KHTML, like Gecko) Chrome/88.0.4324.150 Safari/537.36","v1-up-stims","","","","","","","","-80,-70,-60,-50,-40","media/audio/stims/spherical_300cm_s20_c10_cd-half_matched_a-80.wav","spherical","20","10","half","matched","-80","-80","1242"
"echo-presentation","59","468712","0.0-59.0","5fa5b5af0c782d12315dfd32","60242478c74f84097a222710","6024267c1f909a096f2a6447","Mozilla/5.0 (Windows NT 10.0; Win64; x64) AppleWebKit/537.36 (KHTML, like Gecko) Chrome/88.0.4324.150 Safari/537.36","v1-up-stims","","","","","","","","-80,-70,-60,-50,-40","media/audio/stims/spherical_300cm_s20_c10_cd-half_matched_a-70.wav","spherical","20","10","half","matched","-70","-80","1166"
"echo-presentation","60","471486","0.0-60.0","5fa5b5af0c782d12315dfd32","60242478c74f84097a222710","6024267c1f909a096f2a6447","Mozilla/5.0 (Windows NT 10.0; Win64; x64) AppleWebKit/537.36 (KHTML, like Gecko) Chrome/88.0.4324.150 Safari/537.36","v1-up-stims","","","","","","","","-80,-70,-60,-50,-40","media/audio/stims/spherical_300cm_s20_c10_cd-half_matched_a-40.wav","spherical","20","10","half","matched","-40","-80","1827"
"echo-presentation","61","473461","0.0-61.0","5fa5b5af0c782d12315dfd32","60242478c74f84097a222710","6024267c1f909a096f2a6447","Mozilla/5.0 (Windows NT 10.0; Win64; x64) AppleWebKit/537.36 (KHTML, like Gecko) Chrome/88.0.4324.150 Safari/537.36","v1-up-stims","","","","","","","","-80,-70,-60,-50,-40","media/audio/stims/spherical_300cm_s20_c10_cd-half_matched_a-50.wav","spherical","20","10","half","matched","-50","-80","1191"
"echo-presentation","62","475901","0.0-62.0","5fa5b5af0c782d12315dfd32","60242478c74f84097a222710","6024267c1f909a096f2a6447","Mozilla/5.0 (Windows NT 10.0; Win64; x64) AppleWebKit/537.36 (KHTML, like Gecko) Chrome/88.0.4324.150 Safari/537.36","v1-up-stims","","","","","","","","-80,-70,-60,-50,-40","media/audio/stims/spherical_300cm_s20_c10_cd-half_matched_a-60.wav","spherical","20","10","half","matched","-60","-80","1141"
"echo-presentation","63","477728","0.0-63.0","5fa5b5af0c782d12315dfd32","60242478c74f84097a222710","6024267c1f909a096f2a6447","Mozilla/5.0 (Windows NT 10.0; Win64; x64) AppleWebKit/537.36 (KHTML, like Gecko) Chrome/88.0.4324.150 Safari/537.36","v1-up-stims","","","","","","","","-80,-70,-60,-50,-40","media/audio/stims/spherical_300cm_s20_c10_cd-half_matched_a-50.wav","spherical","20","10","half","matched","-50","-80","992"
"echo-presentation","64","479584","0.0-64.0","5fa5b5af0c782d12315dfd32","60242478c74f84097a222710","6024267c1f909a096f2a6447","Mozilla/5.0 (Windows NT 10.0; Win64; x64) AppleWebKit/537.36 (KHTML, like Gecko) Chrome/88.0.4324.150 Safari/537.36","v1-up-stims","","","","","","","","-80,-70,-60,-50,-40","media/audio/stims/spherical_300cm_s20_c10_cd-half_matched_a-70.wav","spherical","20","10","half","matched","-70","-80","1070"
"echo-presentation","65","481156","0.0-65.0","5fa5b5af0c782d12315dfd32","60242478c74f84097a222710","6024267c1f909a096f2a6447","Mozilla/5.0 (Windows NT 10.0; Win64; x64) AppleWebKit/537.36 (KHTML, like Gecko) Chrome/88.0.4324.150 Safari/537.36","v1-up-stims","","","","","","","","-80,-70,-60,-50,-40","media/audio/stims/spherical_300cm_s20_c10_cd-half_matched_a-40.wav","spherical","20","10","half","matched","-40","-80","915"
"echo-presentation","66","482860","0.0-66.0","5fa5b5af0c782d12315dfd32","60242478c74f84097a222710","6024267c1f909a096f2a6447","Mozilla/5.0 (Windows NT 10.0; Win64; x64) AppleWebKit/537.36 (KHTML, like Gecko) Chrome/88.0.4324.150 Safari/537.36","v1-up-stims","","","","","","","","-80,-70,-60,-50,-40","media/audio/stims/spherical_300cm_s20_c10_cd-half_matched_a-50.wav","spherical","20","10","half","matched","-50","-80","882"
"echo-presentation","67","484626","0.0-67.0","5fa5b5af0c782d12315dfd32","60242478c74f84097a222710","6024267c1f909a096f2a6447","Mozilla/5.0 (Windows NT 10.0; Win64; x64) AppleWebKit/537.36 (KHTML, like Gecko) Chrome/88.0.4324.150 Safari/537.36","v1-up-stims","","","","","","","","-80,-70,-60,-50,-40","media/audio/stims/spherical_300cm_s20_c10_cd-half_matched_a-50.wav","spherical","20","10","half","matched","-50","-80","983"
"echo-presentation","68","486452","0.0-68.0","5fa5b5af0c782d12315dfd32","60242478c74f84097a222710","6024267c1f909a096f2a6447","Mozilla/5.0 (Windows NT 10.0; Win64; x64) AppleWebKit/537.36 (KHTML, like Gecko) Chrome/88.0.4324.150 Safari/537.36","v1-up-stims","","","","","","","","-80,-70,-60,-50,-40","media/audio/stims/spherical_300cm_s20_c10_cd-half_matched_a-80.wav","spherical","20","10","half","matched","-80","-80","908"
"echo-presentation","69","488298","0.0-69.0","5fa5b5af0c782d12315dfd32","60242478c74f84097a222710","6024267c1f909a096f2a6447","Mozilla/5.0 (Windows NT 10.0; Win64; x64) AppleWebKit/537.36 (KHTML, like Gecko) Chrome/88.0.4324.150 Safari/537.36","v1-up-stims","","","","","","","","-80,-70,-60,-50,-40","media/audio/stims/spherical_300cm_s20_c10_cd-half_matched_a-80.wav","spherical","20","10","half","matched","-80","-80","967"
"echo-presentation","70","490003","0.0-70.0","5fa5b5af0c782d12315dfd32","60242478c74f84097a222710","6024267c1f909a096f2a6447","Mozilla/5.0 (Windows NT 10.0; Win64; x64) AppleWebKit/537.36 (KHTML, like Gecko) Chrome/88.0.4324.150 Safari/537.36","v1-up-stims","","","","","","","","-80,-70,-60,-50,-40","media/audio/stims/spherical_300cm_s20_c10_cd-half_matched_a-40.wav","spherical","20","10","half","matched","-40","-80","918"
"echo-presentation","71","492440","0.0-71.0","5fa5b5af0c782d12315dfd32","60242478c74f84097a222710","6024267c1f909a096f2a6447","Mozilla/5.0 (Windows NT 10.0; Win64; x64) AppleWebKit/537.36 (KHTML, like Gecko) Chrome/88.0.4324.150 Safari/537.36","v1-up-stims","","","","","","","","-80,-70,-60,-50,-40","media/audio/stims/spherical_300cm_s20_c10_cd-half_matched_a-80.wav","spherical","20","10","half","matched","-80","-80","1754"
"block-bookend","72","494173","0.0-72.0","5fa5b5af0c782d12315dfd32","60242478c74f84097a222710","6024267c1f909a096f2a6447","Mozilla/5.0 (Windows NT 10.0; Win64; x64) AppleWebKit/537.36 (KHTML, like Gecko) Chrome/88.0.4324.150 Safari/537.36","v1-up-stims","","","","","","","","","","","","","","","","",""
"block-bookend","73","500309","0.0-73.0","5fa5b5af0c782d12315dfd32","60242478c74f84097a222710","6024267c1f909a096f2a6447","Mozilla/5.0 (Windows NT 10.0; Win64; x64) AppleWebKit/537.36 (KHTML, like Gecko) Chrome/88.0.4324.150 Safari/537.36","v1-up-stims","","","","","","","","","","","","","","","","",""
"echo-presentation","74","503370","0.0-74.0","5fa5b5af0c782d12315dfd32","60242478c74f84097a222710","6024267c1f909a096f2a6447","Mozilla/5.0 (Windows NT 10.0; Win64; x64) AppleWebKit/537.36 (KHTML, like Gecko) Chrome/88.0.4324.150 Safari/537.36","v1-up-stims","","","","","","","","-80,-70,-60,-50,-40","media/audio/stims/spherical_300cm_s20_c10_cd-half_matched_a-70.wav","spherical","20","10","half","matched","-70","-80","1270"
"echo-presentation","75","505859","0.0-75.0","5fa5b5af0c782d12315dfd32","60242478c74f84097a222710","6024267c1f909a096f2a6447","Mozilla/5.0 (Windows NT 10.0; Win64; x64) AppleWebKit/537.36 (KHTML, like Gecko) Chrome/88.0.4324.150 Safari/537.36","v1-up-stims","","","","","","","","-80,-70,-60,-50,-40","media/audio/stims/spherical_300cm_s20_c10_cd-half_matched_a-40.wav","spherical","20","10","half","matched","-40","-80","1679"
"echo-presentation","76","507803","0.0-76.0","5fa5b5af0c782d12315dfd32","60242478c74f84097a222710","6024267c1f909a096f2a6447","Mozilla/5.0 (Windows NT 10.0; Win64; x64) AppleWebKit/537.36 (KHTML, like Gecko) Chrome/88.0.4324.150 Safari/537.36","v1-up-stims","","","","","","","","-80,-70,-60,-50,-40","media/audio/stims/spherical_300cm_s20_c10_cd-half_matched_a-60.wav","spherical","20","10","half","matched","-60","-80","1027"
"echo-presentation","77","509307","0.0-77.0","5fa5b5af0c782d12315dfd32","60242478c74f84097a222710","6024267c1f909a096f2a6447","Mozilla/5.0 (Windows NT 10.0; Win64; x64) AppleWebKit/537.36 (KHTML, like Gecko) Chrome/88.0.4324.150 Safari/537.36","v1-up-stims","","","","","","","","-80,-70,-60,-50,-40","media/audio/stims/spherical_300cm_s20_c10_cd-half_matched_a-60.wav","spherical","20","10","half","matched","-60","-80","900"
"echo-presentation","78","511142","0.0-78.0","5fa5b5af0c782d12315dfd32","60242478c74f84097a222710","6024267c1f909a096f2a6447","Mozilla/5.0 (Windows NT 10.0; Win64; x64) AppleWebKit/537.36 (KHTML, like Gecko) Chrome/88.0.4324.150 Safari/537.36","v1-up-stims","","","","","","","","-80,-70,-60,-50,-40","media/audio/stims/spherical_300cm_s20_c10_cd-half_matched_a-60.wav","spherical","20","10","half","matched","-60","-80","862"
"echo-presentation","79","512738","0.0-79.0","5fa5b5af0c782d12315dfd32","60242478c74f84097a222710","6024267c1f909a096f2a6447","Mozilla/5.0 (Windows NT 10.0; Win64; x64) AppleWebKit/537.36 (KHTML, like Gecko) Chrome/88.0.4324.150 Safari/537.36","v1-up-stims","","","","","","","","-80,-70,-60,-50,-40","media/audio/stims/spherical_300cm_s20_c10_cd-half_matched_a-50.wav","spherical","20","10","half","matched","-50","-80","920"
"echo-presentation","80","514437","0.0-80.0","5fa5b5af0c782d12315dfd32","60242478c74f84097a222710","6024267c1f909a096f2a6447","Mozilla/5.0 (Windows NT 10.0; Win64; x64) AppleWebKit/537.36 (KHTML, like Gecko) Chrome/88.0.4324.150 Safari/537.36","v1-up-stims","","","","","","","","-80,-70,-60,-50,-40","media/audio/stims/spherical_300cm_s20_c10_cd-half_matched_a-50.wav","spherical","20","10","half","matched","-50","-80","939"
"echo-presentation","81","516042","0.0-81.0","5fa5b5af0c782d12315dfd32","60242478c74f84097a222710","6024267c1f909a096f2a6447","Mozilla/5.0 (Windows NT 10.0; Win64; x64) AppleWebKit/537.36 (KHTML, like Gecko) Chrome/88.0.4324.150 Safari/537.36","v1-up-stims","","","","","","","","-80,-70,-60,-50,-40","media/audio/stims/spherical_300cm_s20_c10_cd-half_matched_a-60.wav","spherical","20","10","half","matched","-60","-80","1065"
"echo-presentation","82","517802","0.0-82.0","5fa5b5af0c782d12315dfd32","60242478c74f84097a222710","6024267c1f909a096f2a6447","Mozilla/5.0 (Windows NT 10.0; Win64; x64) AppleWebKit/537.36 (KHTML, like Gecko) Chrome/88.0.4324.150 Safari/537.36","v1-up-stims","","","","","","","","-80,-70,-60,-50,-40","media/audio/stims/spherical_300cm_s20_c10_cd-half_matched_a-80.wav","spherical","20","10","half","matched","-80","-80","997"
"echo-presentation","83","519554","0.0-83.0","5fa5b5af0c782d12315dfd32","60242478c74f84097a222710","6024267c1f909a096f2a6447","Mozilla/5.0 (Windows NT 10.0; Win64; x64) AppleWebKit/537.36 (KHTML, like Gecko) Chrome/88.0.4324.150 Safari/537.36","v1-up-stims","","","","","","","","-80,-70,-60,-50,-40","media/audio/stims/spherical_300cm_s20_c10_cd-half_matched_a-70.wav","spherical","20","10","half","matched","-70","-80","958"
"echo-presentation","84","521335","0.0-84.0","5fa5b5af0c782d12315dfd32","60242478c74f84097a222710","6024267c1f909a096f2a6447","Mozilla/5.0 (Windows NT 10.0; Win64; x64) AppleWebKit/537.36 (KHTML, like Gecko) Chrome/88.0.4324.150 Safari/537.36","v1-up-stims","","","","","","","","-80,-70,-60,-50,-40","media/audio/stims/spherical_300cm_s20_c10_cd-half_matched_a-50.wav","spherical","20","10","half","matched","-50","-80","961"
"echo-presentation","85","523072","0.0-85.0","5fa5b5af0c782d12315dfd32","60242478c74f84097a222710","6024267c1f909a096f2a6447","Mozilla/5.0 (Windows NT 10.0; Win64; x64) AppleWebKit/537.36 (KHTML, like Gecko) Chrome/88.0.4324.150 Safari/537.36","v1-up-stims","","","","","","","","-80,-70,-60,-50,-40","media/audio/stims/spherical_300cm_s20_c10_cd-half_matched_a-80.wav","spherical","20","10","half","matched","-80","-80","939"
"echo-presentation","86","524763","0.0-86.0","5fa5b5af0c782d12315dfd32","60242478c74f84097a222710","6024267c1f909a096f2a6447","Mozilla/5.0 (Windows NT 10.0; Win64; x64) AppleWebKit/537.36 (KHTML, like Gecko) Chrome/88.0.4324.150 Safari/537.36","v1-up-stims","","","","","","","","-80,-70,-60,-50,-40","media/audio/stims/spherical_300cm_s20_c10_cd-half_matched_a-70.wav","spherical","20","10","half","matched","-70","-80","867"
"echo-presentation","87","527231","0.0-87.0","5fa5b5af0c782d12315dfd32","60242478c74f84097a222710","6024267c1f909a096f2a6447","Mozilla/5.0 (Windows NT 10.0; Win64; x64) AppleWebKit/537.36 (KHTML, like Gecko) Chrome/88.0.4324.150 Safari/537.36","v1-up-stims","","","","","","","","-80,-70,-60,-50,-40","media/audio/stims/spherical_300cm_s20_c10_cd-half_matched_a-70.wav","spherical","20","10","half","matched","-70","-80","1697"
"echo-presentation","88","529618","0.0-88.0","5fa5b5af0c782d12315dfd32","60242478c74f84097a222710","6024267c1f909a096f2a6447","Mozilla/5.0 (Windows NT 10.0; Win64; x64) AppleWebKit/537.36 (KHTML, like Gecko) Chrome/88.0.4324.150 Safari/537.36","v1-up-stims","","","","","","","","-80,-70,-60,-50,-40","media/audio/stims/spherical_300cm_s20_c10_cd-half_matched_a-40.wav","spherical","20","10","half","matched","-40","-80","1510"
"echo-presentation","89","531172","0.0-89.0","5fa5b5af0c782d12315dfd32","60242478c74f84097a222710","6024267c1f909a096f2a6447","Mozilla/5.0 (Windows NT 10.0; Win64; x64) AppleWebKit/537.36 (KHTML, like Gecko) Chrome/88.0.4324.150 Safari/537.36","v1-up-stims","","","","","","","","-80,-70,-60,-50,-40","media/audio/stims/spherical_300cm_s20_c10_cd-half_matched_a-40.wav","spherical","20","10","half","matched","-40","-80","931"
"echo-presentation","90","533034","0.0-90.0","5fa5b5af0c782d12315dfd32","60242478c74f84097a222710","6024267c1f909a096f2a6447","Mozilla/5.0 (Windows NT 10.0; Win64; x64) AppleWebKit/537.36 (KHTML, like Gecko) Chrome/88.0.4324.150 Safari/537.36","v1-up-stims","","","","","","","","-80,-70,-60,-50,-40","media/audio/stims/spherical_300cm_s20_c10_cd-half_matched_a-50.wav","spherical","20","10","half","matched","-50","-80","1029"
"echo-presentation","91","534815","0.0-91.0","5fa5b5af0c782d12315dfd32","60242478c74f84097a222710","6024267c1f909a096f2a6447","Mozilla/5.0 (Windows NT 10.0; Win64; x64) AppleWebKit/537.36 (KHTML, like Gecko) Chrome/88.0.4324.150 Safari/537.36","v1-up-stims","","","","","","","","-80,-70,-60,-50,-40","media/audio/stims/spherical_300cm_s20_c10_cd-half_matched_a-40.wav","spherical","20","10","half","matched","-40","-80","946"
"echo-presentation","92","536662","0.0-92.0","5fa5b5af0c782d12315dfd32","60242478c74f84097a222710","6024267c1f909a096f2a6447","Mozilla/5.0 (Windows NT 10.0; Win64; x64) AppleWebKit/537.36 (KHTML, like Gecko) Chrome/88.0.4324.150 Safari/537.36","v1-up-stims","","","","","","","","-80,-70,-60,-50,-40","media/audio/stims/spherical_300cm_s20_c10_cd-half_matched_a-80.wav","spherical","20","10","half","matched","-80","-80","996"
"echo-presentation","93","538498","0.0-93.0","5fa5b5af0c782d12315dfd32","60242478c74f84097a222710","6024267c1f909a096f2a6447","Mozilla/5.0 (Windows NT 10.0; Win64; x64) AppleWebKit/537.36 (KHTML, like Gecko) Chrome/88.0.4324.150 Safari/537.36","v1-up-stims","","","","","","","","-80,-70,-60,-50,-40","media/audio/stims/spherical_300cm_s20_c10_cd-half_matched_a-80.wav","spherical","20","10","half","matched","-80","-80","1039"
"block-bookend","94","538892","0.0-94.0","5fa5b5af0c782d12315dfd32","60242478c74f84097a222710","6024267c1f909a096f2a6447","Mozilla/5.0 (Windows NT 10.0; Win64; x64) AppleWebKit/537.36 (KHTML, like Gecko) Chrome/88.0.4324.150 Safari/537.36","v1-up-stims","","","","","","","","","","","","","","","","",""
"block-bookend","95","545138","0.0-95.0","5fa5b5af0c782d12315dfd32","60242478c74f84097a222710","6024267c1f909a096f2a6447","Mozilla/5.0 (Windows NT 10.0; Win64; x64) AppleWebKit/537.36 (KHTML, like Gecko) Chrome/88.0.4324.150 Safari/537.36","v1-up-stims","","","","","","","","","","","","","","","","",""
"echo-presentation","96","548948","0.0-96.0","5fa5b5af0c782d12315dfd32","60242478c74f84097a222710","6024267c1f909a096f2a6447","Mozilla/5.0 (Windows NT 10.0; Win64; x64) AppleWebKit/537.36 (KHTML, like Gecko) Chrome/88.0.4324.150 Safari/537.36","v1-up-stims","","","","","","","","40,50,60,70,80","media/audio/stims/spherical_300cm_s20_c10_cd-half_matched_a70.wav","spherical","20","10","half","matched","70","80","1337"
"echo-presentation","97","551164","0.0-97.0","5fa5b5af0c782d12315dfd32","60242478c74f84097a222710","6024267c1f909a096f2a6447","Mozilla/5.0 (Windows NT 10.0; Win64; x64) AppleWebKit/537.36 (KHTML, like Gecko) Chrome/88.0.4324.150 Safari/537.36","v1-up-stims","","","","","","","","40,50,60,70,80","media/audio/stims/spherical_300cm_s20_c10_cd-half_matched_a70.wav","spherical","20","10","half","matched","70","80","1190"
"echo-presentation","98","552980","0.0-98.0","5fa5b5af0c782d12315dfd32","60242478c74f84097a222710","6024267c1f909a096f2a6447","Mozilla/5.0 (Windows NT 10.0; Win64; x64) AppleWebKit/537.36 (KHTML, like Gecko) Chrome/88.0.4324.150 Safari/537.36","v1-up-stims","","","","","","","","40,50,60,70,80","media/audio/stims/spherical_300cm_s20_c10_cd-half_matched_a70.wav","spherical","20","10","half","matched","70","80","953"
"echo-presentation","99","555373","0.0-99.0","5fa5b5af0c782d12315dfd32","60242478c74f84097a222710","6024267c1f909a096f2a6447","Mozilla/5.0 (Windows NT 10.0; Win64; x64) AppleWebKit/537.36 (KHTML, like Gecko) Chrome/88.0.4324.150 Safari/537.36","v1-up-stims","","","","","","","","40,50,60,70,80","media/audio/stims/spherical_300cm_s20_c10_cd-half_matched_a60.wav","spherical","20","10","half","matched","60","80","1598"
"echo-presentation","100","558106","0.0-100.0","5fa5b5af0c782d12315dfd32","60242478c74f84097a222710","6024267c1f909a096f2a6447","Mozilla/5.0 (Windows NT 10.0; Win64; x64) AppleWebKit/537.36 (KHTML, like Gecko) Chrome/88.0.4324.150 Safari/537.36","v1-up-stims","","","","","","","","40,50,60,70,80","media/audio/stims/spherical_300cm_s20_c10_cd-half_matched_a70.wav","spherical","20","10","half","matched","70","70","1874"
"echo-presentation","101","560563","0.0-101.0","5fa5b5af0c782d12315dfd32","60242478c74f84097a222710","6024267c1f909a096f2a6447","Mozilla/5.0 (Windows NT 10.0; Win64; x64) AppleWebKit/537.36 (KHTML, like Gecko) Chrome/88.0.4324.150 Safari/537.36","v1-up-stims","","","","","","","","40,50,60,70,80","media/audio/stims/spherical_300cm_s20_c10_cd-half_matched_a50.wav","spherical","20","10","half","matched","50","70","1694"
"echo-presentation","102","562780","0.0-102.0","5fa5b5af0c782d12315dfd32","60242478c74f84097a222710","6024267c1f909a096f2a6447","Mozilla/5.0 (Windows NT 10.0; Win64; x64) AppleWebKit/537.36 (KHTML, like Gecko) Chrome/88.0.4324.150 Safari/537.36","v1-up-stims","","","","","","","","40,50,60,70,80","media/audio/stims/spherical_300cm_s20_c10_cd-half_matched_a50.wav","spherical","20","10","half","matched","50","80","1441"
"echo-presentation","103","564444","0.0-103.0","5fa5b5af0c782d12315dfd32","60242478c74f84097a222710","6024267c1f909a096f2a6447","Mozilla/5.0 (Windows NT 10.0; Win64; x64) AppleWebKit/537.36 (KHTML, like Gecko) Chrome/88.0.4324.150 Safari/537.36","v1-up-stims","","","","","","","","40,50,60,70,80","media/audio/stims/spherical_300cm_s20_c10_cd-half_matched_a40.wav","spherical","20","10","half","matched","40","80","1034"
"echo-presentation","104","566567","0.0-104.0","5fa5b5af0c782d12315dfd32","60242478c74f84097a222710","6024267c1f909a096f2a6447","Mozilla/5.0 (Windows NT 10.0; Win64; x64) AppleWebKit/537.36 (KHTML, like Gecko) Chrome/88.0.4324.150 Safari/537.36","v1-up-stims","","","","","","","","40,50,60,70,80","media/audio/stims/spherical_300cm_s20_c10_cd-half_matched_a60.wav","spherical","20","10","half","matched","60","70","1400"
"echo-presentation","105","568803","0.0-105.0","5fa5b5af0c782d12315dfd32","60242478c74f84097a222710","6024267c1f909a096f2a6447","Mozilla/5.0 (Windows NT 10.0; Win64; x64) AppleWebKit/537.36 (KHTML, like Gecko) Chrome/88.0.4324.150 Safari/537.36","v1-up-stims","","","","","","","","40,50,60,70,80","media/audio/stims/spherical_300cm_s20_c10_cd-half_matched_a60.wav","spherical","20","10","half","matched","60","70","1478"
"echo-presentation","106","570824","0.0-106.0","5fa5b5af0c782d12315dfd32","60242478c74f84097a222710","6024267c1f909a096f2a6447","Mozilla/5.0 (Windows NT 10.0; Win64; x64) AppleWebKit/537.36 (KHTML, like Gecko) Chrome/88.0.4324.150 Safari/537.36","v1-up-stims","","","","","","","","40,50,60,70,80","media/audio/stims/spherical_300cm_s20_c10_cd-half_matched_a40.wav","spherical","20","10","half","matched","40","80","1268"
"echo-presentation","107","572428","0.0-107.0","5fa5b5af0c782d12315dfd32","60242478c74f84097a222710","6024267c1f909a096f2a6447","Mozilla/5.0 (Windows NT 10.0; Win64; x64) AppleWebKit/537.36 (KHTML, like Gecko) Chrome/88.0.4324.150 Safari/537.36","v1-up-stims","","","","","","","","40,50,60,70,80","media/audio/stims/spherical_300cm_s20_c10_cd-half_matched_a80.wav","spherical","20","10","half","matched","80","80","983"
"echo-presentation","108","574731","0.0-108.0","5fa5b5af0c782d12315dfd32","60242478c74f84097a222710","6024267c1f909a096f2a6447","Mozilla/5.0 (Windows NT 10.0; Win64; x64) AppleWebKit/537.36 (KHTML, like Gecko) Chrome/88.0.4324.150 Safari/537.36","v1-up-stims","","","","","","","","40,50,60,70,80","media/audio/stims/spherical_300cm_s20_c10_cd-half_matched_a80.wav","spherical","20","10","half","matched","80","80","1596"
"echo-presentation","109","576898","0.0-109.0","5fa5b5af0c782d12315dfd32","60242478c74f84097a222710","6024267c1f909a096f2a6447","Mozilla/5.0 (Windows NT 10.0; Win64; x64) AppleWebKit/537.36 (KHTML, like Gecko) Chrome/88.0.4324.150 Safari/537.36","v1-up-stims","","","","","","","","40,50,60,70,80","media/audio/stims/spherical_300cm_s20_c10_cd-half_matched_a80.wav","spherical","20","10","half","matched","80","80","1271"
"echo-presentation","110","579057","0.0-110.0","5fa5b5af0c782d12315dfd32","60242478c74f84097a222710","6024267c1f909a096f2a6447","Mozilla/5.0 (Windows NT 10.0; Win64; x64) AppleWebKit/537.36 (KHTML, like Gecko) Chrome/88.0.4324.150 Safari/537.36","v1-up-stims","","","","","","","","40,50,60,70,80","media/audio/stims/spherical_300cm_s20_c10_cd-half_matched_a50.wav","spherical","20","10","half","matched","50","80","1397"
"echo-presentation","111","580594","0.0-111.0","5fa5b5af0c782d12315dfd32","60242478c74f84097a222710","6024267c1f909a096f2a6447","Mozilla/5.0 (Windows NT 10.0; Win64; x64) AppleWebKit/537.36 (KHTML, like Gecko) Chrome/88.0.4324.150 Safari/537.36","v1-up-stims","","","","","","","","40,50,60,70,80","media/audio/stims/spherical_300cm_s20_c10_cd-half_matched_a40.wav","spherical","20","10","half","matched","40","80","886"
"echo-presentation","112","582323","0.0-112.0","5fa5b5af0c782d12315dfd32","60242478c74f84097a222710","6024267c1f909a096f2a6447","Mozilla/5.0 (Windows NT 10.0; Win64; x64) AppleWebKit/537.36 (KHTML, like Gecko) Chrome/88.0.4324.150 Safari/537.36","v1-up-stims","","","","","","","","40,50,60,70,80","media/audio/stims/spherical_300cm_s20_c10_cd-half_matched_a60.wav","spherical","20","10","half","matched","60","80","888"
"echo-presentation","113","583982","0.0-113.0","5fa5b5af0c782d12315dfd32","60242478c74f84097a222710","6024267c1f909a096f2a6447","Mozilla/5.0 (Windows NT 10.0; Win64; x64) AppleWebKit/537.36 (KHTML, like Gecko) Chrome/88.0.4324.150 Safari/537.36","v1-up-stims","","","","","","","","40,50,60,70,80","media/audio/stims/spherical_300cm_s20_c10_cd-half_matched_a80.wav","spherical","20","10","half","matched","80","80","907"
"echo-presentation","114","585565","0.0-114.0","5fa5b5af0c782d12315dfd32","60242478c74f84097a222710","6024267c1f909a096f2a6447","Mozilla/5.0 (Windows NT 10.0; Win64; x64) AppleWebKit/537.36 (KHTML, like Gecko) Chrome/88.0.4324.150 Safari/537.36","v1-up-stims","","","","","","","","40,50,60,70,80","media/audio/stims/spherical_300cm_s20_c10_cd-half_matched_a50.wav","spherical","20","10","half","matched","50","80","798"
"echo-presentation","115","587329","0.0-115.0","5fa5b5af0c782d12315dfd32","60242478c74f84097a222710","6024267c1f909a096f2a6447","Mozilla/5.0 (Windows NT 10.0; Win64; x64) AppleWebKit/537.36 (KHTML, like Gecko) Chrome/88.0.4324.150 Safari/537.36","v1-up-stims","","","","","","","","40,50,60,70,80","media/audio/stims/spherical_300cm_s20_c10_cd-half_matched_a40.wav","spherical","20","10","half","matched","40","80","948"
"block-bookend","116","587987","0.0-116.0","5fa5b5af0c782d12315dfd32","60242478c74f84097a222710","6024267c1f909a096f2a6447","Mozilla/5.0 (Windows NT 10.0; Win64; x64) AppleWebKit/537.36 (KHTML, like Gecko) Chrome/88.0.4324.150 Safari/537.36","v1-up-stims","","","","","","","","","","","","","","","","",""
"block-bookend","117","592799","0.0-117.0","5fa5b5af0c782d12315dfd32","60242478c74f84097a222710","6024267c1f909a096f2a6447","Mozilla/5.0 (Windows NT 10.0; Win64; x64) AppleWebKit/537.36 (KHTML, like Gecko) Chrome/88.0.4324.150 Safari/537.36","v1-up-stims","","","","","","","","","","","","","","","","",""
"echo-presentation","118","596170","0.0-118.0","5fa5b5af0c782d12315dfd32","60242478c74f84097a222710","6024267c1f909a096f2a6447","Mozilla/5.0 (Windows NT 10.0; Win64; x64) AppleWebKit/537.36 (KHTML, like Gecko) Chrome/88.0.4324.150 Safari/537.36","v1-up-stims","","","","","","","","40,50,60,70,80","media/audio/stims/spherical_300cm_s20_c10_cd-half_matched_a60.wav","spherical","20","10","half","matched","60","80","1194"
"echo-presentation","119","597988","0.0-119.0","5fa5b5af0c782d12315dfd32","60242478c74f84097a222710","6024267c1f909a096f2a6447","Mozilla/5.0 (Windows NT 10.0; Win64; x64) AppleWebKit/537.36 (KHTML, like Gecko) Chrome/88.0.4324.150 Safari/537.36","v1-up-stims","","","","","","","","40,50,60,70,80","media/audio/stims/spherical_300cm_s20_c10_cd-half_matched_a70.wav","spherical","20","10","half","matched","70","80","1016"
"echo-presentation","120","603138","0.0-120.0","5fa5b5af0c782d12315dfd32","60242478c74f84097a222710","6024267c1f909a096f2a6447","Mozilla/5.0 (Windows NT 10.0; Win64; x64) AppleWebKit/537.36 (KHTML, like Gecko) Chrome/88.0.4324.150 Safari/537.36","v1-up-stims","","","","","","","","40,50,60,70,80","media/audio/stims/spherical_300cm_s20_c10_cd-half_matched_a50.wav","spherical","20","10","half","matched","50","80","4381"
"echo-presentation","121","608503","0.0-121.0","5fa5b5af0c782d12315dfd32","60242478c74f84097a222710","6024267c1f909a096f2a6447","Mozilla/5.0 (Windows NT 10.0; Win64; x64) AppleWebKit/537.36 (KHTML, like Gecko) Chrome/88.0.4324.150 Safari/537.36","v1-up-stims","","","","","","","","40,50,60,70,80","media/audio/stims/spherical_300cm_s20_c10_cd-half_matched_a70.wav","spherical","20","10","half","matched","70","80","4674"
"echo-presentation","122","611624","0.0-122.0","5fa5b5af0c782d12315dfd32","60242478c74f84097a222710","6024267c1f909a096f2a6447","Mozilla/5.0 (Windows NT 10.0; Win64; x64) AppleWebKit/537.36 (KHTML, like Gecko) Chrome/88.0.4324.150 Safari/537.36","v1-up-stims","","","","","","","","40,50,60,70,80","media/audio/stims/spherical_300cm_s20_c10_cd-half_matched_a40.wav","spherical","20","10","half","matched","40","80","2551"
"echo-presentation","123","613800","0.0-123.0","5fa5b5af0c782d12315dfd32","60242478c74f84097a222710","6024267c1f909a096f2a6447","Mozilla/5.0 (Windows NT 10.0; Win64; x64) AppleWebKit/537.36 (KHTML, like Gecko) Chrome/88.0.4324.150 Safari/537.36","v1-up-stims","","","","","","","","40,50,60,70,80","media/audio/stims/spherical_300cm_s20_c10_cd-half_matched_a40.wav","spherical","20","10","half","matched","40","80","1381"
"echo-presentation","124","615355","0.0-124.0","5fa5b5af0c782d12315dfd32","60242478c74f84097a222710","6024267c1f909a096f2a6447","Mozilla/5.0 (Windows NT 10.0; Win64; x64) AppleWebKit/537.36 (KHTML, like Gecko) Chrome/88.0.4324.150 Safari/537.36","v1-up-stims","","","","","","","","40,50,60,70,80","media/audio/stims/spherical_300cm_s20_c10_cd-half_matched_a60.wav","spherical","20","10","half","matched","60","80","1016"
"echo-presentation","125","617036","0.0-125.0","5fa5b5af0c782d12315dfd32","60242478c74f84097a222710","6024267c1f909a096f2a6447","Mozilla/5.0 (Windows NT 10.0; Win64; x64) AppleWebKit/537.36 (KHTML, like Gecko) Chrome/88.0.4324.150 Safari/537.36","v1-up-stims","","","","","","","","40,50,60,70,80","media/audio/stims/spherical_300cm_s20_c10_cd-half_matched_a40.wav","spherical","20","10","half","matched","40","80","1014"
"echo-presentation","126","618966","0.0-126.0","5fa5b5af0c782d12315dfd32","60242478c74f84097a222710","6024267c1f909a096f2a6447","Mozilla/5.0 (Windows NT 10.0; Win64; x64) AppleWebKit/537.36 (KHTML, like Gecko) Chrome/88.0.4324.150 Safari/537.36","v1-up-stims","","","","","","","","40,50,60,70,80","media/audio/stims/spherical_300cm_s20_c10_cd-half_matched_a80.wav","spherical","20","10","half","matched","80","80","1356"
"echo-presentation","127","622112","0.0-127.0","5fa5b5af0c782d12315dfd32","60242478c74f84097a222710","6024267c1f909a096f2a6447","Mozilla/5.0 (Windows NT 10.0; Win64; x64) AppleWebKit/537.36 (KHTML, like Gecko) Chrome/88.0.4324.150 Safari/537.36","v1-up-stims","","","","","","","","40,50,60,70,80","media/audio/stims/spherical_300cm_s20_c10_cd-half_matched_a80.wav","spherical","20","10","half","matched","80","60","2176"
"echo-presentation","128","624043","0.0-128.0","5fa5b5af0c782d12315dfd32","60242478c74f84097a222710","6024267c1f909a096f2a6447","Mozilla/5.0 (Windows NT 10.0; Win64; x64) AppleWebKit/537.36 (KHTML, like Gecko) Chrome/88.0.4324.150 Safari/537.36","v1-up-stims","","","","","","","","40,50,60,70,80","media/audio/stims/spherical_300cm_s20_c10_cd-half_matched_a70.wav","spherical","20","10","half","matched","70","60","1383"
"echo-presentation","129","626024","0.0-129.0","5fa5b5af0c782d12315dfd32","60242478c74f84097a222710","6024267c1f909a096f2a6447","Mozilla/5.0 (Windows NT 10.0; Win64; x64) AppleWebKit/537.36 (KHTML, like Gecko) Chrome/88.0.4324.150 Safari/537.36","v1-up-stims","","","","","","","","40,50,60,70,80","media/audio/stims/spherical_300cm_s20_c10_cd-half_matched_a80.wav","spherical","20","10","half","matched","80","50","1401"
"echo-presentation","130","628071","0.0-130.0","5fa5b5af0c782d12315dfd32","60242478c74f84097a222710","6024267c1f909a096f2a6447","Mozilla/5.0 (Windows NT 10.0; Win64; x64) AppleWebKit/537.36 (KHTML, like Gecko) Chrome/88.0.4324.150 Safari/537.36","v1-up-stims","","","","","","","","40,50,60,70,80","media/audio/stims/spherical_300cm_s20_c10_cd-half_matched_a50.wav","spherical","20","10","half","matched","50","70","1261"
"echo-presentation","131","630005","0.0-131.0","5fa5b5af0c782d12315dfd32","60242478c74f84097a222710","6024267c1f909a096f2a6447","Mozilla/5.0 (Windows NT 10.0; Win64; x64) AppleWebKit/537.36 (KHTML, like Gecko) Chrome/88.0.4324.150 Safari/537.36","v1-up-stims","","","","","","","","40,50,60,70,80","media/audio/stims/spherical_300cm_s20_c10_cd-half_matched_a50.wav","spherical","20","10","half","matched","50","70","1336"
"echo-presentation","132","631740","0.0-132.0","5fa5b5af0c782d12315dfd32","60242478c74f84097a222710","6024267c1f909a096f2a6447","Mozilla/5.0 (Windows NT 10.0; Win64; x64) AppleWebKit/537.36 (KHTML, like Gecko) Chrome/88.0.4324.150 Safari/537.36","v1-up-stims","","","","","","","","40,50,60,70,80","media/audio/stims/spherical_300cm_s20_c10_cd-half_matched_a40.wav","spherical","20","10","half","matched","40","70","874"
"echo-presentation","133","633429","0.0-133.0","5fa5b5af0c782d12315dfd32","60242478c74f84097a222710","6024267c1f909a096f2a6447","Mozilla/5.0 (Windows NT 10.0; Win64; x64) AppleWebKit/537.36 (KHTML, like Gecko) Chrome/88.0.4324.150 Safari/537.36","v1-up-stims","","","","","","","","40,50,60,70,80","media/audio/stims/spherical_300cm_s20_c10_cd-half_matched_a50.wav","spherical","20","10","half","matched","50","70","1116"
"echo-presentation","134","635495","0.0-134.0","5fa5b5af0c782d12315dfd32","60242478c74f84097a222710","6024267c1f909a096f2a6447","Mozilla/5.0 (Windows NT 10.0; Win64; x64) AppleWebKit/537.36 (KHTML, like Gecko) Chrome/88.0.4324.150 Safari/537.36","v1-up-stims","","","","","","","","40,50,60,70,80","media/audio/stims/spherical_300cm_s20_c10_cd-half_matched_a70.wav","spherical","20","10","half","matched","70","80","1236"
"echo-presentation","135","637907","0.0-135.0","5fa5b5af0c782d12315dfd32","60242478c74f84097a222710","6024267c1f909a096f2a6447","Mozilla/5.0 (Windows NT 10.0; Win64; x64) AppleWebKit/537.36 (KHTML, like Gecko) Chrome/88.0.4324.150 Safari/537.36","v1-up-stims","","","","","","","","40,50,60,70,80","media/audio/stims/spherical_300cm_s20_c10_cd-half_matched_a60.wav","spherical","20","10","half","matched","60","70","1713"
"echo-presentation","136","639685","0.0-136.0","5fa5b5af0c782d12315dfd32","60242478c74f84097a222710","6024267c1f909a096f2a6447","Mozilla/5.0 (Windows NT 10.0; Win64; x64) AppleWebKit/537.36 (KHTML, like Gecko) Chrome/88.0.4324.150 Safari/537.36","v1-up-stims","","","","","","","","40,50,60,70,80","media/audio/stims/spherical_300cm_s20_c10_cd-half_matched_a60.wav","spherical","20","10","half","matched","60","70","766"
"echo-presentation","137","641549","0.0-137.0","5fa5b5af0c782d12315dfd32","60242478c74f84097a222710","6024267c1f909a096f2a6447","Mozilla/5.0 (Windows NT 10.0; Win64; x64) AppleWebKit/537.36 (KHTML, like Gecko) Chrome/88.0.4324.150 Safari/537.36","v1-up-stims","","","","","","","","40,50,60,70,80","media/audio/stims/spherical_300cm_s20_c10_cd-half_matched_a80.wav","spherical","20","10","half","matched","80","70","881"
"block-bookend","138","642836","0.0-138.0","5fa5b5af0c782d12315dfd32","60242478c74f84097a222710","6024267c1f909a096f2a6447","Mozilla/5.0 (Windows NT 10.0; Win64; x64) AppleWebKit/537.36 (KHTML, like Gecko) Chrome/88.0.4324.150 Safari/537.36","v1-up-stims","","","","","","","","","","","","","","","","",""
