"trial_type","trial_index","time_elapsed","internal_node_id","prolificPid","studyId","sessionId","userAgent","rt","stimulus","key_press","chosenKeyset","failureCount","testIndex","globalVolume","choices","filename","modelName","slowdown","compensation","compensationDescriptor","receiverOrientationType","azimuth","responseAzimuth","responseDelay"
"pavlovia","0","8","0.0-0.0","5f6916f985575a0f22ec8f69","5fef55e628823a0076ec12ee","6018d2150bf5c41cad6316ec","Mozilla/5.0 (Windows NT 10.0; Win64; x64) AppleWebKit/537.36 (KHTML, like Gecko) Chrome/87.0.4280.141 Safari/537.36 OPR/73.0.3856.344","","","","","","","","","","","","","","","","",""
"html-keyboard-response","1","2197","0.0-1.0","5f6916f985575a0f22ec8f69","5fef55e628823a0076ec12ee","6018d2150bf5c41cad6316ec","Mozilla/5.0 (Windows NT 10.0; Win64; x64) AppleWebKit/537.36 (KHTML, like Gecko) Chrome/87.0.4280.141 Safari/537.36 OPR/73.0.3856.344","2187.609999993583","<div><h1>Welcome!</h1><p>Press any key to continue.</p></div>","39","","","","","","","","","","","","","",""
"consent-form","2","9778","0.0-2.0","5f6916f985575a0f22ec8f69","5fef55e628823a0076ec12ee","6018d2150bf5c41cad6316ec","Mozilla/5.0 (Windows NT 10.0; Win64; x64) AppleWebKit/537.36 (KHTML, like Gecko) Chrome/87.0.4280.141 Safari/537.36 OPR/73.0.3856.344","","","","","","","","","","","","","","","","",""
"keyset-select","3","93852","0.0-3.0","5f6916f985575a0f22ec8f69","5fef55e628823a0076ec12ee","6018d2150bf5c41cad6316ec","Mozilla/5.0 (Windows NT 10.0; Win64; x64) AppleWebKit/537.36 (KHTML, like Gecko) Chrome/87.0.4280.141 Safari/537.36 OPR/73.0.3856.344","","","","left-hand","","","","","","","","","","","","",""
"headphone-check","4","142415","0.0-4.0","5f6916f985575a0f22ec8f69","5fef55e628823a0076ec12ee","6018d2150bf5c41cad6316ec","Mozilla/5.0 (Windows NT 10.0; Win64; x64) AppleWebKit/537.36 (KHTML, like Gecko) Chrome/87.0.4280.141 Safari/537.36 OPR/73.0.3856.344","","","","","0","6","1","","","","","","","","","",""
"headphone-backwards-check","5","148921","0.0-5.0","5f6916f985575a0f22ec8f69","5fef55e628823a0076ec12ee","6018d2150bf5c41cad6316ec","Mozilla/5.0 (Windows NT 10.0; Win64; x64) AppleWebKit/537.36 (KHTML, like Gecko) Chrome/87.0.4280.141 Safari/537.36 OPR/73.0.3856.344","","","","","0","","","","","","","","","","","",""
"training","6","242694","0.0-6.0","5f6916f985575a0f22ec8f69","5fef55e628823a0076ec12ee","6018d2150bf5c41cad6316ec","Mozilla/5.0 (Windows NT 10.0; Win64; x64) AppleWebKit/537.36 (KHTML, like Gecko) Chrome/87.0.4280.141 Safari/537.36 OPR/73.0.3856.344","","","","","","","","","","","","","","","","",""
"block-bookend","7","252675","0.0-7.0","5f6916f985575a0f22ec8f69","5fef55e628823a0076ec12ee","6018d2150bf5c41cad6316ec","Mozilla/5.0 (Windows NT 10.0; Win64; x64) AppleWebKit/537.36 (KHTML, like Gecko) Chrome/87.0.4280.141 Safari/537.36 OPR/73.0.3856.344","","","","","","","","","","","","","","","","",""
"echo-presentation","8","263676","0.0-8.0","5f6916f985575a0f22ec8f69","5fef55e628823a0076ec12ee","6018d2150bf5c41cad6316ec","Mozilla/5.0 (Windows NT 10.0; Win64; x64) AppleWebKit/537.36 (KHTML, like Gecko) Chrome/87.0.4280.141 Safari/537.36 OPR/73.0.3856.344","","","","","","","","50,55,60,65,70","media/audio/stims/spherical_300cm_s20_c20_cd-full_matched_a55.wav","spherical","20","20","full","matched","55","55","8611"
"echo-presentation","9","270603","0.0-9.0","5f6916f985575a0f22ec8f69","5fef55e628823a0076ec12ee","6018d2150bf5c41cad6316ec","Mozilla/5.0 (Windows NT 10.0; Win64; x64) AppleWebKit/537.36 (KHTML, like Gecko) Chrome/87.0.4280.141 Safari/537.36 OPR/73.0.3856.344","","","","","","","","50,55,60,65,70","media/audio/stims/spherical_300cm_s20_c20_cd-full_matched_a60.wav","spherical","20","20","full","matched","60","60","5058"
"echo-presentation","10","273936","0.0-10.0","5f6916f985575a0f22ec8f69","5fef55e628823a0076ec12ee","6018d2150bf5c41cad6316ec","Mozilla/5.0 (Windows NT 10.0; Win64; x64) AppleWebKit/537.36 (KHTML, like Gecko) Chrome/87.0.4280.141 Safari/537.36 OPR/73.0.3856.344","","","","","","","","50,55,60,65,70","media/audio/stims/spherical_300cm_s20_c20_cd-full_matched_a60.wav","spherical","20","20","full","matched","60","55","1613"
"echo-presentation","11","280799","0.0-11.0","5f6916f985575a0f22ec8f69","5fef55e628823a0076ec12ee","6018d2150bf5c41cad6316ec","Mozilla/5.0 (Windows NT 10.0; Win64; x64) AppleWebKit/537.36 (KHTML, like Gecko) Chrome/87.0.4280.141 Safari/537.36 OPR/73.0.3856.344","","","","","","","","50,55,60,65,70","media/audio/stims/spherical_300cm_s20_c20_cd-full_matched_a65.wav","spherical","20","20","full","matched","65","60","5230"
"echo-presentation","12","286070","0.0-12.0","5f6916f985575a0f22ec8f69","5fef55e628823a0076ec12ee","6018d2150bf5c41cad6316ec","Mozilla/5.0 (Windows NT 10.0; Win64; x64) AppleWebKit/537.36 (KHTML, like Gecko) Chrome/87.0.4280.141 Safari/537.36 OPR/73.0.3856.344","","","","","","","","50,55,60,65,70","media/audio/stims/spherical_300cm_s20_c20_cd-full_matched_a65.wav","spherical","20","20","full","matched","65","55","2606"
"echo-presentation","13","298897","0.0-13.0","5f6916f985575a0f22ec8f69","5fef55e628823a0076ec12ee","6018d2150bf5c41cad6316ec","Mozilla/5.0 (Windows NT 10.0; Win64; x64) AppleWebKit/537.36 (KHTML, like Gecko) Chrome/87.0.4280.141 Safari/537.36 OPR/73.0.3856.344","","","","","","","","50,55,60,65,70","media/audio/stims/spherical_300cm_s20_c20_cd-full_matched_a70.wav","spherical","20","20","full","matched","70","60","11216"
"echo-presentation","14","305270","0.0-14.0","5f6916f985575a0f22ec8f69","5fef55e628823a0076ec12ee","6018d2150bf5c41cad6316ec","Mozilla/5.0 (Windows NT 10.0; Win64; x64) AppleWebKit/537.36 (KHTML, like Gecko) Chrome/87.0.4280.141 Safari/537.36 OPR/73.0.3856.344","","","","","","","","50,55,60,65,70","media/audio/stims/spherical_300cm_s20_c20_cd-full_matched_a50.wav","spherical","20","20","full","matched","50","60","4749"
"echo-presentation","15","309467","0.0-15.0","5f6916f985575a0f22ec8f69","5fef55e628823a0076ec12ee","6018d2150bf5c41cad6316ec","Mozilla/5.0 (Windows NT 10.0; Win64; x64) AppleWebKit/537.36 (KHTML, like Gecko) Chrome/87.0.4280.141 Safari/537.36 OPR/73.0.3856.344","","","","","","","","50,55,60,65,70","media/audio/stims/spherical_300cm_s20_c20_cd-full_matched_a65.wav","spherical","20","20","full","matched","65","60","2498"
"echo-presentation","16","324233","0.0-16.0","5f6916f985575a0f22ec8f69","5fef55e628823a0076ec12ee","6018d2150bf5c41cad6316ec","Mozilla/5.0 (Windows NT 10.0; Win64; x64) AppleWebKit/537.36 (KHTML, like Gecko) Chrome/87.0.4280.141 Safari/537.36 OPR/73.0.3856.344","","","","","","","","50,55,60,65,70","media/audio/stims/spherical_300cm_s20_c20_cd-full_matched_a55.wav","spherical","20","20","full","matched","55","65","13323"
"echo-presentation","17","332922","0.0-17.0","5f6916f985575a0f22ec8f69","5fef55e628823a0076ec12ee","6018d2150bf5c41cad6316ec","Mozilla/5.0 (Windows NT 10.0; Win64; x64) AppleWebKit/537.36 (KHTML, like Gecko) Chrome/87.0.4280.141 Safari/537.36 OPR/73.0.3856.344","","","","","","","","50,55,60,65,70","media/audio/stims/spherical_300cm_s20_c20_cd-full_matched_a55.wav","spherical","20","20","full","matched","55","60","7200"
"echo-presentation","18","338604","0.0-18.0","5f6916f985575a0f22ec8f69","5fef55e628823a0076ec12ee","6018d2150bf5c41cad6316ec","Mozilla/5.0 (Windows NT 10.0; Win64; x64) AppleWebKit/537.36 (KHTML, like Gecko) Chrome/87.0.4280.141 Safari/537.36 OPR/73.0.3856.344","","","","","","","","50,55,60,65,70","media/audio/stims/spherical_300cm_s20_c20_cd-full_matched_a55.wav","spherical","20","20","full","matched","55","60","4145"
"echo-presentation","19","345942","0.0-19.0","5f6916f985575a0f22ec8f69","5fef55e628823a0076ec12ee","6018d2150bf5c41cad6316ec","Mozilla/5.0 (Windows NT 10.0; Win64; x64) AppleWebKit/537.36 (KHTML, like Gecko) Chrome/87.0.4280.141 Safari/537.36 OPR/73.0.3856.344","","","","","","","","50,55,60,65,70","media/audio/stims/spherical_300cm_s20_c20_cd-full_matched_a50.wav","spherical","20","20","full","matched","50","60","5337"
"echo-presentation","20","350981","0.0-20.0","5f6916f985575a0f22ec8f69","5fef55e628823a0076ec12ee","6018d2150bf5c41cad6316ec","Mozilla/5.0 (Windows NT 10.0; Win64; x64) AppleWebKit/537.36 (KHTML, like Gecko) Chrome/87.0.4280.141 Safari/537.36 OPR/73.0.3856.344","","","","","","","","50,55,60,65,70","media/audio/stims/spherical_300cm_s20_c20_cd-full_matched_a50.wav","spherical","20","20","full","matched","50","65","3483"
"echo-presentation","21","356504","0.0-21.0","5f6916f985575a0f22ec8f69","5fef55e628823a0076ec12ee","6018d2150bf5c41cad6316ec","Mozilla/5.0 (Windows NT 10.0; Win64; x64) AppleWebKit/537.36 (KHTML, like Gecko) Chrome/87.0.4280.141 Safari/537.36 OPR/73.0.3856.344","","","","","","","","50,55,60,65,70","media/audio/stims/spherical_300cm_s20_c20_cd-full_matched_a70.wav","spherical","20","20","full","matched","70","60","4175"
"echo-presentation","22","361513","0.0-22.0","5f6916f985575a0f22ec8f69","5fef55e628823a0076ec12ee","6018d2150bf5c41cad6316ec","Mozilla/5.0 (Windows NT 10.0; Win64; x64) AppleWebKit/537.36 (KHTML, like Gecko) Chrome/87.0.4280.141 Safari/537.36 OPR/73.0.3856.344","","","","","","","","50,55,60,65,70","media/audio/stims/spherical_300cm_s20_c20_cd-full_matched_a65.wav","spherical","20","20","full","matched","65","65","3437"
"echo-presentation","23","365940","0.0-23.0","5f6916f985575a0f22ec8f69","5fef55e628823a0076ec12ee","6018d2150bf5c41cad6316ec","Mozilla/5.0 (Windows NT 10.0; Win64; x64) AppleWebKit/537.36 (KHTML, like Gecko) Chrome/87.0.4280.141 Safari/537.36 OPR/73.0.3856.344","","","","","","","","50,55,60,65,70","media/audio/stims/spherical_300cm_s20_c20_cd-full_matched_a60.wav","spherical","20","20","full","matched","60","60","2877"
"echo-presentation","24","372023","0.0-24.0","5f6916f985575a0f22ec8f69","5fef55e628823a0076ec12ee","6018d2150bf5c41cad6316ec","Mozilla/5.0 (Windows NT 10.0; Win64; x64) AppleWebKit/537.36 (KHTML, like Gecko) Chrome/87.0.4280.141 Safari/537.36 OPR/73.0.3856.344","","","","","","","","50,55,60,65,70","media/audio/stims/spherical_300cm_s20_c20_cd-full_matched_a70.wav","spherical","20","20","full","matched","70","60","4696"
"echo-presentation","25","377790","0.0-25.0","5f6916f985575a0f22ec8f69","5fef55e628823a0076ec12ee","6018d2150bf5c41cad6316ec","Mozilla/5.0 (Windows NT 10.0; Win64; x64) AppleWebKit/537.36 (KHTML, like Gecko) Chrome/87.0.4280.141 Safari/537.36 OPR/73.0.3856.344","","","","","","","","50,55,60,65,70","media/audio/stims/spherical_300cm_s20_c20_cd-full_matched_a50.wav","spherical","20","20","full","matched","50","65","4377"
"echo-presentation","26","382373","0.0-26.0","5f6916f985575a0f22ec8f69","5fef55e628823a0076ec12ee","6018d2150bf5c41cad6316ec","Mozilla/5.0 (Windows NT 10.0; Win64; x64) AppleWebKit/537.36 (KHTML, like Gecko) Chrome/87.0.4280.141 Safari/537.36 OPR/73.0.3856.344","","","","","","","","50,55,60,65,70","media/audio/stims/spherical_300cm_s20_c20_cd-full_matched_a60.wav","spherical","20","20","full","matched","60","65","2568"
"echo-presentation","27","385838","0.0-27.0","5f6916f985575a0f22ec8f69","5fef55e628823a0076ec12ee","6018d2150bf5c41cad6316ec","Mozilla/5.0 (Windows NT 10.0; Win64; x64) AppleWebKit/537.36 (KHTML, like Gecko) Chrome/87.0.4280.141 Safari/537.36 OPR/73.0.3856.344","","","","","","","","50,55,60,65,70","media/audio/stims/spherical_300cm_s20_c20_cd-full_matched_a70.wav","spherical","20","20","full","matched","70","60","2062"
"block-bookend","28","388555","0.0-28.0","5f6916f985575a0f22ec8f69","5fef55e628823a0076ec12ee","6018d2150bf5c41cad6316ec","Mozilla/5.0 (Windows NT 10.0; Win64; x64) AppleWebKit/537.36 (KHTML, like Gecko) Chrome/87.0.4280.141 Safari/537.36 OPR/73.0.3856.344","","","","","","","","","","","","","","","","",""
"block-bookend","29","402913","0.0-29.0","5f6916f985575a0f22ec8f69","5fef55e628823a0076ec12ee","6018d2150bf5c41cad6316ec","Mozilla/5.0 (Windows NT 10.0; Win64; x64) AppleWebKit/537.36 (KHTML, like Gecko) Chrome/87.0.4280.141 Safari/537.36 OPR/73.0.3856.344","","","","","","","","","","","","","","","","",""
"echo-presentation","30","410020","0.0-30.0","5f6916f985575a0f22ec8f69","5fef55e628823a0076ec12ee","6018d2150bf5c41cad6316ec","Mozilla/5.0 (Windows NT 10.0; Win64; x64) AppleWebKit/537.36 (KHTML, like Gecko) Chrome/87.0.4280.141 Safari/537.36 OPR/73.0.3856.344","","","","","","","","-70,-65,-60,-55,-50","media/audio/stims/spherical_300cm_s20_c20_cd-full_matched_a-60.wav","spherical","20","20","full","matched","-60","-65","5123"
"echo-presentation","31","416510","0.0-31.0","5f6916f985575a0f22ec8f69","5fef55e628823a0076ec12ee","6018d2150bf5c41cad6316ec","Mozilla/5.0 (Windows NT 10.0; Win64; x64) AppleWebKit/537.36 (KHTML, like Gecko) Chrome/87.0.4280.141 Safari/537.36 OPR/73.0.3856.344","","","","","","","","-70,-65,-60,-55,-50","media/audio/stims/spherical_300cm_s20_c20_cd-full_matched_a-65.wav","spherical","20","20","full","matched","-65","-65","4978"
"echo-presentation","32","421235","0.0-32.0","5f6916f985575a0f22ec8f69","5fef55e628823a0076ec12ee","6018d2150bf5c41cad6316ec","Mozilla/5.0 (Windows NT 10.0; Win64; x64) AppleWebKit/537.36 (KHTML, like Gecko) Chrome/87.0.4280.141 Safari/537.36 OPR/73.0.3856.344","","","","","","","","-70,-65,-60,-55,-50","media/audio/stims/spherical_300cm_s20_c20_cd-full_matched_a-50.wav","spherical","20","20","full","matched","-50","-70","3253"
"echo-presentation","33","429617","0.0-33.0","5f6916f985575a0f22ec8f69","5fef55e628823a0076ec12ee","6018d2150bf5c41cad6316ec","Mozilla/5.0 (Windows NT 10.0; Win64; x64) AppleWebKit/537.36 (KHTML, like Gecko) Chrome/87.0.4280.141 Safari/537.36 OPR/73.0.3856.344","","","","","","","","-70,-65,-60,-55,-50","media/audio/stims/spherical_300cm_s20_c20_cd-full_matched_a-55.wav","spherical","20","20","full","matched","-55","-65","6886"
"echo-presentation","34","432265","0.0-34.0","5f6916f985575a0f22ec8f69","5fef55e628823a0076ec12ee","6018d2150bf5c41cad6316ec","Mozilla/5.0 (Windows NT 10.0; Win64; x64) AppleWebKit/537.36 (KHTML, like Gecko) Chrome/87.0.4280.141 Safari/537.36 OPR/73.0.3856.344","","","","","","","","-70,-65,-60,-55,-50","media/audio/stims/spherical_300cm_s20_c20_cd-full_matched_a-55.wav","spherical","20","20","full","matched","-55","-70","1359"
"echo-presentation","35","435319","0.0-35.0","5f6916f985575a0f22ec8f69","5fef55e628823a0076ec12ee","6018d2150bf5c41cad6316ec","Mozilla/5.0 (Windows NT 10.0; Win64; x64) AppleWebKit/537.36 (KHTML, like Gecko) Chrome/87.0.4280.141 Safari/537.36 OPR/73.0.3856.344","","","","","","","","-70,-65,-60,-55,-50","media/audio/stims/spherical_300cm_s20_c20_cd-full_matched_a-55.wav","spherical","20","20","full","matched","-55","-60","1441"
"echo-presentation","36","438937","0.0-36.0","5f6916f985575a0f22ec8f69","5fef55e628823a0076ec12ee","6018d2150bf5c41cad6316ec","Mozilla/5.0 (Windows NT 10.0; Win64; x64) AppleWebKit/537.36 (KHTML, like Gecko) Chrome/87.0.4280.141 Safari/537.36 OPR/73.0.3856.344","","","","","","","","-70,-65,-60,-55,-50","media/audio/stims/spherical_300cm_s20_c20_cd-full_matched_a-60.wav","spherical","20","20","full","matched","-60","-60","2265"
"echo-presentation","37","442015","0.0-37.0","5f6916f985575a0f22ec8f69","5fef55e628823a0076ec12ee","6018d2150bf5c41cad6316ec","Mozilla/5.0 (Windows NT 10.0; Win64; x64) AppleWebKit/537.36 (KHTML, like Gecko) Chrome/87.0.4280.141 Safari/537.36 OPR/73.0.3856.344","","","","","","","","-70,-65,-60,-55,-50","media/audio/stims/spherical_300cm_s20_c20_cd-full_matched_a-70.wav","spherical","20","20","full","matched","-70","-50","2004"
"echo-presentation","38","446454","0.0-38.0","5f6916f985575a0f22ec8f69","5fef55e628823a0076ec12ee","6018d2150bf5c41cad6316ec","Mozilla/5.0 (Windows NT 10.0; Win64; x64) AppleWebKit/537.36 (KHTML, like Gecko) Chrome/87.0.4280.141 Safari/537.36 OPR/73.0.3856.344","","","","","","","","-70,-65,-60,-55,-50","media/audio/stims/spherical_300cm_s20_c20_cd-full_matched_a-50.wav","spherical","20","20","full","matched","-50","-70","2055"
"echo-presentation","39","449072","0.0-39.0","5f6916f985575a0f22ec8f69","5fef55e628823a0076ec12ee","6018d2150bf5c41cad6316ec","Mozilla/5.0 (Windows NT 10.0; Win64; x64) AppleWebKit/537.36 (KHTML, like Gecko) Chrome/87.0.4280.141 Safari/537.36 OPR/73.0.3856.344","","","","","","","","-70,-65,-60,-55,-50","media/audio/stims/spherical_300cm_s20_c20_cd-full_matched_a-70.wav","spherical","20","20","full","matched","-70","-50","1378"
"echo-presentation","40","452984","0.0-40.0","5f6916f985575a0f22ec8f69","5fef55e628823a0076ec12ee","6018d2150bf5c41cad6316ec","Mozilla/5.0 (Windows NT 10.0; Win64; x64) AppleWebKit/537.36 (KHTML, like Gecko) Chrome/87.0.4280.141 Safari/537.36 OPR/73.0.3856.344","","","","","","","","-70,-65,-60,-55,-50","media/audio/stims/spherical_300cm_s20_c20_cd-full_matched_a-50.wav","spherical","20","20","full","matched","-50","-60","2155"
"echo-presentation","41","456882","0.0-41.0","5f6916f985575a0f22ec8f69","5fef55e628823a0076ec12ee","6018d2150bf5c41cad6316ec","Mozilla/5.0 (Windows NT 10.0; Win64; x64) AppleWebKit/537.36 (KHTML, like Gecko) Chrome/87.0.4280.141 Safari/537.36 OPR/73.0.3856.344","","","","","","","","-70,-65,-60,-55,-50","media/audio/stims/spherical_300cm_s20_c20_cd-full_matched_a-65.wav","spherical","20","20","full","matched","-65","-60","2590"
"echo-presentation","42","460504","0.0-42.0","5f6916f985575a0f22ec8f69","5fef55e628823a0076ec12ee","6018d2150bf5c41cad6316ec","Mozilla/5.0 (Windows NT 10.0; Win64; x64) AppleWebKit/537.36 (KHTML, like Gecko) Chrome/87.0.4280.141 Safari/537.36 OPR/73.0.3856.344","","","","","","","","-70,-65,-60,-55,-50","media/audio/stims/spherical_300cm_s20_c20_cd-full_matched_a-60.wav","spherical","20","20","full","matched","-60","-60","2342"
"echo-presentation","43","465501","0.0-43.0","5f6916f985575a0f22ec8f69","5fef55e628823a0076ec12ee","6018d2150bf5c41cad6316ec","Mozilla/5.0 (Windows NT 10.0; Win64; x64) AppleWebKit/537.36 (KHTML, like Gecko) Chrome/87.0.4280.141 Safari/537.36 OPR/73.0.3856.344","","","","","","","","-70,-65,-60,-55,-50","media/audio/stims/spherical_300cm_s20_c20_cd-full_matched_a-65.wav","spherical","20","20","full","matched","-65","-50","3827"
"echo-presentation","44","469080","0.0-44.0","5f6916f985575a0f22ec8f69","5fef55e628823a0076ec12ee","6018d2150bf5c41cad6316ec","Mozilla/5.0 (Windows NT 10.0; Win64; x64) AppleWebKit/537.36 (KHTML, like Gecko) Chrome/87.0.4280.141 Safari/537.36 OPR/73.0.3856.344","","","","","","","","-70,-65,-60,-55,-50","media/audio/stims/spherical_300cm_s20_c20_cd-full_matched_a-70.wav","spherical","20","20","full","matched","-70","-55","2120"
"echo-presentation","45","473446","0.0-45.0","5f6916f985575a0f22ec8f69","5fef55e628823a0076ec12ee","6018d2150bf5c41cad6316ec","Mozilla/5.0 (Windows NT 10.0; Win64; x64) AppleWebKit/537.36 (KHTML, like Gecko) Chrome/87.0.4280.141 Safari/537.36 OPR/73.0.3856.344","","","","","","","","-70,-65,-60,-55,-50","media/audio/stims/spherical_300cm_s20_c20_cd-full_matched_a-70.wav","spherical","20","20","full","matched","-70","-65","3034"
"echo-presentation","46","476603","0.0-46.0","5f6916f985575a0f22ec8f69","5fef55e628823a0076ec12ee","6018d2150bf5c41cad6316ec","Mozilla/5.0 (Windows NT 10.0; Win64; x64) AppleWebKit/537.36 (KHTML, like Gecko) Chrome/87.0.4280.141 Safari/537.36 OPR/73.0.3856.344","","","","","","","","-70,-65,-60,-55,-50","media/audio/stims/spherical_300cm_s20_c20_cd-full_matched_a-55.wav","spherical","20","20","full","matched","-55","-70","1761"
"echo-presentation","47","480034","0.0-47.0","5f6916f985575a0f22ec8f69","5fef55e628823a0076ec12ee","6018d2150bf5c41cad6316ec","Mozilla/5.0 (Windows NT 10.0; Win64; x64) AppleWebKit/537.36 (KHTML, like Gecko) Chrome/87.0.4280.141 Safari/537.36 OPR/73.0.3856.344","","","","","","","","-70,-65,-60,-55,-50","media/audio/stims/spherical_300cm_s20_c20_cd-full_matched_a-50.wav","spherical","20","20","full","matched","-50","-60","2129"
"echo-presentation","48","483193","0.0-48.0","5f6916f985575a0f22ec8f69","5fef55e628823a0076ec12ee","6018d2150bf5c41cad6316ec","Mozilla/5.0 (Windows NT 10.0; Win64; x64) AppleWebKit/537.36 (KHTML, like Gecko) Chrome/87.0.4280.141 Safari/537.36 OPR/73.0.3856.344","","","","","","","","-70,-65,-60,-55,-50","media/audio/stims/spherical_300cm_s20_c20_cd-full_matched_a-65.wav","spherical","20","20","full","matched","-65","-65","1866"
"echo-presentation","49","488339","0.0-49.0","5f6916f985575a0f22ec8f69","5fef55e628823a0076ec12ee","6018d2150bf5c41cad6316ec","Mozilla/5.0 (Windows NT 10.0; Win64; x64) AppleWebKit/537.36 (KHTML, like Gecko) Chrome/87.0.4280.141 Safari/537.36 OPR/73.0.3856.344","","","","","","","","-70,-65,-60,-55,-50","media/audio/stims/spherical_300cm_s20_c20_cd-full_matched_a-60.wav","spherical","20","20","full","matched","-60","-65","3827"
"block-bookend","50","517432","0.0-50.0","5f6916f985575a0f22ec8f69","5fef55e628823a0076ec12ee","6018d2150bf5c41cad6316ec","Mozilla/5.0 (Windows NT 10.0; Win64; x64) AppleWebKit/537.36 (KHTML, like Gecko) Chrome/87.0.4280.141 Safari/537.36 OPR/73.0.3856.344","","","","","","","","","","","","","","","","",""
"block-bookend","51","552406","0.0-51.0","5f6916f985575a0f22ec8f69","5fef55e628823a0076ec12ee","6018d2150bf5c41cad6316ec","Mozilla/5.0 (Windows NT 10.0; Win64; x64) AppleWebKit/537.36 (KHTML, like Gecko) Chrome/87.0.4280.141 Safari/537.36 OPR/73.0.3856.344","","","","","","","","","","","","","","","","",""
"echo-presentation","52","555831","0.0-52.0","5f6916f985575a0f22ec8f69","5fef55e628823a0076ec12ee","6018d2150bf5c41cad6316ec","Mozilla/5.0 (Windows NT 10.0; Win64; x64) AppleWebKit/537.36 (KHTML, like Gecko) Chrome/87.0.4280.141 Safari/537.36 OPR/73.0.3856.344","","","","","","","","-70,-65,-60,-55,-50","media/audio/stims/spherical_300cm_s20_c20_cd-full_matched_a-65.wav","spherical","20","20","full","matched","-65","-65","1805"
"echo-presentation","53","558887","0.0-53.0","5f6916f985575a0f22ec8f69","5fef55e628823a0076ec12ee","6018d2150bf5c41cad6316ec","Mozilla/5.0 (Windows NT 10.0; Win64; x64) AppleWebKit/537.36 (KHTML, like Gecko) Chrome/87.0.4280.141 Safari/537.36 OPR/73.0.3856.344","","","","","","","","-70,-65,-60,-55,-50","media/audio/stims/spherical_300cm_s20_c20_cd-full_matched_a-55.wav","spherical","20","20","full","matched","-55","-60","1676"
"echo-presentation","54","561065","0.0-54.0","5f6916f985575a0f22ec8f69","5fef55e628823a0076ec12ee","6018d2150bf5c41cad6316ec","Mozilla/5.0 (Windows NT 10.0; Win64; x64) AppleWebKit/537.36 (KHTML, like Gecko) Chrome/87.0.4280.141 Safari/537.36 OPR/73.0.3856.344","","","","","","","","-70,-65,-60,-55,-50","media/audio/stims/spherical_300cm_s20_c20_cd-full_matched_a-65.wav","spherical","20","20","full","matched","-65","-70","1093"
"echo-presentation","55","563355","0.0-55.0","5f6916f985575a0f22ec8f69","5fef55e628823a0076ec12ee","6018d2150bf5c41cad6316ec","Mozilla/5.0 (Windows NT 10.0; Win64; x64) AppleWebKit/537.36 (KHTML, like Gecko) Chrome/87.0.4280.141 Safari/537.36 OPR/73.0.3856.344","","","","","","","","-70,-65,-60,-55,-50","media/audio/stims/spherical_300cm_s20_c20_cd-full_matched_a-60.wav","spherical","20","20","full","matched","-60","-65","1162"
"echo-presentation","56","565525","0.0-56.0","5f6916f985575a0f22ec8f69","5fef55e628823a0076ec12ee","6018d2150bf5c41cad6316ec","Mozilla/5.0 (Windows NT 10.0; Win64; x64) AppleWebKit/537.36 (KHTML, like Gecko) Chrome/87.0.4280.141 Safari/537.36 OPR/73.0.3856.344","","","","","","","","-70,-65,-60,-55,-50","media/audio/stims/spherical_300cm_s20_c20_cd-full_matched_a-60.wav","spherical","20","20","full","matched","-60","-70","1339"
"echo-presentation","57","569445","0.0-57.0","5f6916f985575a0f22ec8f69","5fef55e628823a0076ec12ee","6018d2150bf5c41cad6316ec","Mozilla/5.0 (Windows NT 10.0; Win64; x64) AppleWebKit/537.36 (KHTML, like Gecko) Chrome/87.0.4280.141 Safari/537.36 OPR/73.0.3856.344","","","","","","","","-70,-65,-60,-55,-50","media/audio/stims/spherical_300cm_s20_c20_cd-full_matched_a-70.wav","spherical","20","20","full","matched","-70","-65","2945"
"echo-presentation","58","572199","0.0-58.0","5f6916f985575a0f22ec8f69","5fef55e628823a0076ec12ee","6018d2150bf5c41cad6316ec","Mozilla/5.0 (Windows NT 10.0; Win64; x64) AppleWebKit/537.36 (KHTML, like Gecko) Chrome/87.0.4280.141 Safari/537.36 OPR/73.0.3856.344","","","","","","","","-70,-65,-60,-55,-50","media/audio/stims/spherical_300cm_s20_c20_cd-full_matched_a-55.wav","spherical","20","20","full","matched","-55","-70","940"
"echo-presentation","59","574515","0.0-59.0","5f6916f985575a0f22ec8f69","5fef55e628823a0076ec12ee","6018d2150bf5c41cad6316ec","Mozilla/5.0 (Windows NT 10.0; Win64; x64) AppleWebKit/537.36 (KHTML, like Gecko) Chrome/87.0.4280.141 Safari/537.36 OPR/73.0.3856.344","","","","","","","","-70,-65,-60,-55,-50","media/audio/stims/spherical_300cm_s20_c20_cd-full_matched_a-55.wav","spherical","20","20","full","matched","-55","-65","1339"
"echo-presentation","60","576479","0.0-60.0","5f6916f985575a0f22ec8f69","5fef55e628823a0076ec12ee","6018d2150bf5c41cad6316ec","Mozilla/5.0 (Windows NT 10.0; Win64; x64) AppleWebKit/537.36 (KHTML, like Gecko) Chrome/87.0.4280.141 Safari/537.36 OPR/73.0.3856.344","","","","","","","","-70,-65,-60,-55,-50","media/audio/stims/spherical_300cm_s20_c20_cd-full_matched_a-60.wav","spherical","20","20","full","matched","-60","-70","1112"
"echo-presentation","61","579204","0.0-61.0","5f6916f985575a0f22ec8f69","5fef55e628823a0076ec12ee","6018d2150bf5c41cad6316ec","Mozilla/5.0 (Windows NT 10.0; Win64; x64) AppleWebKit/537.36 (KHTML, like Gecko) Chrome/87.0.4280.141 Safari/537.36 OPR/73.0.3856.344","","","","","","","","-70,-65,-60,-55,-50","media/audio/stims/spherical_300cm_s20_c20_cd-full_matched_a-70.wav","spherical","20","20","full","matched","-70","-70","1700"
"echo-presentation","62","581361","0.0-62.0","5f6916f985575a0f22ec8f69","5fef55e628823a0076ec12ee","6018d2150bf5c41cad6316ec","Mozilla/5.0 (Windows NT 10.0; Win64; x64) AppleWebKit/537.36 (KHTML, like Gecko) Chrome/87.0.4280.141 Safari/537.36 OPR/73.0.3856.344","","","","","","","","-70,-65,-60,-55,-50","media/audio/stims/spherical_300cm_s20_c20_cd-full_matched_a-50.wav","spherical","20","20","full","matched","-50","-70","1220"
"echo-presentation","63","583434","0.0-63.0","5f6916f985575a0f22ec8f69","5fef55e628823a0076ec12ee","6018d2150bf5c41cad6316ec","Mozilla/5.0 (Windows NT 10.0; Win64; x64) AppleWebKit/537.36 (KHTML, like Gecko) Chrome/87.0.4280.141 Safari/537.36 OPR/73.0.3856.344","","","","","","","","-70,-65,-60,-55,-50","media/audio/stims/spherical_300cm_s20_c20_cd-full_matched_a-60.wav","spherical","20","20","full","matched","-60","-70","1177"
"echo-presentation","64","586164","0.0-64.0","5f6916f985575a0f22ec8f69","5fef55e628823a0076ec12ee","6018d2150bf5c41cad6316ec","Mozilla/5.0 (Windows NT 10.0; Win64; x64) AppleWebKit/537.36 (KHTML, like Gecko) Chrome/87.0.4280.141 Safari/537.36 OPR/73.0.3856.344","","","","","","","","-70,-65,-60,-55,-50","media/audio/stims/spherical_300cm_s20_c20_cd-full_matched_a-50.wav","spherical","20","20","full","matched","-50","-70","1648"
"echo-presentation","65","588065","0.0-65.0","5f6916f985575a0f22ec8f69","5fef55e628823a0076ec12ee","6018d2150bf5c41cad6316ec","Mozilla/5.0 (Windows NT 10.0; Win64; x64) AppleWebKit/537.36 (KHTML, like Gecko) Chrome/87.0.4280.141 Safari/537.36 OPR/73.0.3856.344","","","","","","","","-70,-65,-60,-55,-50","media/audio/stims/spherical_300cm_s20_c20_cd-full_matched_a-50.wav","spherical","20","20","full","matched","-50","-70","1012"
"echo-presentation","66","593251","0.0-66.0","5f6916f985575a0f22ec8f69","5fef55e628823a0076ec12ee","6018d2150bf5c41cad6316ec","Mozilla/5.0 (Windows NT 10.0; Win64; x64) AppleWebKit/537.36 (KHTML, like Gecko) Chrome/87.0.4280.141 Safari/537.36 OPR/73.0.3856.344","","","","","","","","-70,-65,-60,-55,-50","media/audio/stims/spherical_300cm_s20_c20_cd-full_matched_a-65.wav","spherical","20","20","full","matched","-65","-70","4343"
"echo-presentation","67","595731","0.0-67.0","5f6916f985575a0f22ec8f69","5fef55e628823a0076ec12ee","6018d2150bf5c41cad6316ec","Mozilla/5.0 (Windows NT 10.0; Win64; x64) AppleWebKit/537.36 (KHTML, like Gecko) Chrome/87.0.4280.141 Safari/537.36 OPR/73.0.3856.344","","","","","","","","-70,-65,-60,-55,-50","media/audio/stims/spherical_300cm_s20_c20_cd-full_matched_a-50.wav","spherical","20","20","full","matched","-50","-70","1512"
"echo-presentation","68","598149","0.0-68.0","5f6916f985575a0f22ec8f69","5fef55e628823a0076ec12ee","6018d2150bf5c41cad6316ec","Mozilla/5.0 (Windows NT 10.0; Win64; x64) AppleWebKit/537.36 (KHTML, like Gecko) Chrome/87.0.4280.141 Safari/537.36 OPR/73.0.3856.344","","","","","","","","-70,-65,-60,-55,-50","media/audio/stims/spherical_300cm_s20_c20_cd-full_matched_a-70.wav","spherical","20","20","full","matched","-70","-70","1432"
"echo-presentation","69","600002","0.0-69.0","5f6916f985575a0f22ec8f69","5fef55e628823a0076ec12ee","6018d2150bf5c41cad6316ec","Mozilla/5.0 (Windows NT 10.0; Win64; x64) AppleWebKit/537.36 (KHTML, like Gecko) Chrome/87.0.4280.141 Safari/537.36 OPR/73.0.3856.344","","","","","","","","-70,-65,-60,-55,-50","media/audio/stims/spherical_300cm_s20_c20_cd-full_matched_a-55.wav","spherical","20","20","full","matched","-55","-70","1063"
"echo-presentation","70","602493","0.0-70.0","5f6916f985575a0f22ec8f69","5fef55e628823a0076ec12ee","6018d2150bf5c41cad6316ec","Mozilla/5.0 (Windows NT 10.0; Win64; x64) AppleWebKit/537.36 (KHTML, like Gecko) Chrome/87.0.4280.141 Safari/537.36 OPR/73.0.3856.344","","","","","","","","-70,-65,-60,-55,-50","media/audio/stims/spherical_300cm_s20_c20_cd-full_matched_a-65.wav","spherical","20","20","full","matched","-65","-70","1590"
"echo-presentation","71","604745","0.0-71.0","5f6916f985575a0f22ec8f69","5fef55e628823a0076ec12ee","6018d2150bf5c41cad6316ec","Mozilla/5.0 (Windows NT 10.0; Win64; x64) AppleWebKit/537.36 (KHTML, like Gecko) Chrome/87.0.4280.141 Safari/537.36 OPR/73.0.3856.344","","","","","","","","-70,-65,-60,-55,-50","media/audio/stims/spherical_300cm_s20_c20_cd-full_matched_a-70.wav","spherical","20","20","full","matched","-70","-70","1248"
"block-bookend","72","606422","0.0-72.0","5f6916f985575a0f22ec8f69","5fef55e628823a0076ec12ee","6018d2150bf5c41cad6316ec","Mozilla/5.0 (Windows NT 10.0; Win64; x64) AppleWebKit/537.36 (KHTML, like Gecko) Chrome/87.0.4280.141 Safari/537.36 OPR/73.0.3856.344","","","","","","","","","","","","","","","","",""
"block-bookend","73","615163","0.0-73.0","5f6916f985575a0f22ec8f69","5fef55e628823a0076ec12ee","6018d2150bf5c41cad6316ec","Mozilla/5.0 (Windows NT 10.0; Win64; x64) AppleWebKit/537.36 (KHTML, like Gecko) Chrome/87.0.4280.141 Safari/537.36 OPR/73.0.3856.344","","","","","","","","","","","","","","","","",""
"echo-presentation","74","618845","0.0-74.0","5f6916f985575a0f22ec8f69","5fef55e628823a0076ec12ee","6018d2150bf5c41cad6316ec","Mozilla/5.0 (Windows NT 10.0; Win64; x64) AppleWebKit/537.36 (KHTML, like Gecko) Chrome/87.0.4280.141 Safari/537.36 OPR/73.0.3856.344","","","","","","","","-10,-5,0,5,10","media/audio/stims/spherical_300cm_s20_c20_cd-full_matched_a-10.wav","spherical","20","20","full","matched","-10","-10","1921"
"echo-presentation","75","622753","0.0-75.0","5f6916f985575a0f22ec8f69","5fef55e628823a0076ec12ee","6018d2150bf5c41cad6316ec","Mozilla/5.0 (Windows NT 10.0; Win64; x64) AppleWebKit/537.36 (KHTML, like Gecko) Chrome/87.0.4280.141 Safari/537.36 OPR/73.0.3856.344","","","","","","","","-10,-5,0,5,10","media/audio/stims/spherical_300cm_s20_c20_cd-full_matched_a-5.wav","spherical","20","20","full","matched","-5","10","2906"
"echo-presentation","76","625137","0.0-76.0","5f6916f985575a0f22ec8f69","5fef55e628823a0076ec12ee","6018d2150bf5c41cad6316ec","Mozilla/5.0 (Windows NT 10.0; Win64; x64) AppleWebKit/537.36 (KHTML, like Gecko) Chrome/87.0.4280.141 Safari/537.36 OPR/73.0.3856.344","","","","","","","","-10,-5,0,5,10","media/audio/stims/spherical_300cm_s20_c20_cd-full_matched_a0.wav","spherical","20","20","full","matched","0","0","1443"
"echo-presentation","77","627376","0.0-77.0","5f6916f985575a0f22ec8f69","5fef55e628823a0076ec12ee","6018d2150bf5c41cad6316ec","Mozilla/5.0 (Windows NT 10.0; Win64; x64) AppleWebKit/537.36 (KHTML, like Gecko) Chrome/87.0.4280.141 Safari/537.36 OPR/73.0.3856.344","","","","","","","","-10,-5,0,5,10","media/audio/stims/spherical_300cm_s20_c20_cd-full_matched_a10.wav","spherical","20","20","full","matched","10","5","1248"
"echo-presentation","78","629616","0.0-78.0","5f6916f985575a0f22ec8f69","5fef55e628823a0076ec12ee","6018d2150bf5c41cad6316ec","Mozilla/5.0 (Windows NT 10.0; Win64; x64) AppleWebKit/537.36 (KHTML, like Gecko) Chrome/87.0.4280.141 Safari/537.36 OPR/73.0.3856.344","","","","","","","","-10,-5,0,5,10","media/audio/stims/spherical_300cm_s20_c20_cd-full_matched_a5.wav","spherical","20","20","full","matched","5","-5","1448"
"echo-presentation","79","632232","0.0-79.0","5f6916f985575a0f22ec8f69","5fef55e628823a0076ec12ee","6018d2150bf5c41cad6316ec","Mozilla/5.0 (Windows NT 10.0; Win64; x64) AppleWebKit/537.36 (KHTML, like Gecko) Chrome/87.0.4280.141 Safari/537.36 OPR/73.0.3856.344","","","","","","","","-10,-5,0,5,10","media/audio/stims/spherical_300cm_s20_c20_cd-full_matched_a-5.wav","spherical","20","20","full","matched","-5","5","1786"
"echo-presentation","80","634344","0.0-80.0","5f6916f985575a0f22ec8f69","5fef55e628823a0076ec12ee","6018d2150bf5c41cad6316ec","Mozilla/5.0 (Windows NT 10.0; Win64; x64) AppleWebKit/537.36 (KHTML, like Gecko) Chrome/87.0.4280.141 Safari/537.36 OPR/73.0.3856.344","","","","","","","","-10,-5,0,5,10","media/audio/stims/spherical_300cm_s20_c20_cd-full_matched_a10.wav","spherical","20","20","full","matched","10","5","1278"
"echo-presentation","81","636199","0.0-81.0","5f6916f985575a0f22ec8f69","5fef55e628823a0076ec12ee","6018d2150bf5c41cad6316ec","Mozilla/5.0 (Windows NT 10.0; Win64; x64) AppleWebKit/537.36 (KHTML, like Gecko) Chrome/87.0.4280.141 Safari/537.36 OPR/73.0.3856.344","","","","","","","","-10,-5,0,5,10","media/audio/stims/spherical_300cm_s20_c20_cd-full_matched_a10.wav","spherical","20","20","full","matched","10","5","1113"
"echo-presentation","82","638940","0.0-82.0","5f6916f985575a0f22ec8f69","5fef55e628823a0076ec12ee","6018d2150bf5c41cad6316ec","Mozilla/5.0 (Windows NT 10.0; Win64; x64) AppleWebKit/537.36 (KHTML, like Gecko) Chrome/87.0.4280.141 Safari/537.36 OPR/73.0.3856.344","","","","","","","","-10,-5,0,5,10","media/audio/stims/spherical_300cm_s20_c20_cd-full_matched_a-10.wav","spherical","20","20","full","matched","-10","-5","1638"
"echo-presentation","83","641445","0.0-83.0","5f6916f985575a0f22ec8f69","5fef55e628823a0076ec12ee","6018d2150bf5c41cad6316ec","Mozilla/5.0 (Windows NT 10.0; Win64; x64) AppleWebKit/537.36 (KHTML, like Gecko) Chrome/87.0.4280.141 Safari/537.36 OPR/73.0.3856.344","","","","","","","","-10,-5,0,5,10","media/audio/stims/spherical_300cm_s20_c20_cd-full_matched_a0.wav","spherical","20","20","full","matched","0","0","1735"
"echo-presentation","84","643438","0.0-84.0","5f6916f985575a0f22ec8f69","5fef55e628823a0076ec12ee","6018d2150bf5c41cad6316ec","Mozilla/5.0 (Windows NT 10.0; Win64; x64) AppleWebKit/537.36 (KHTML, like Gecko) Chrome/87.0.4280.141 Safari/537.36 OPR/73.0.3856.344","","","","","","","","-10,-5,0,5,10","media/audio/stims/spherical_300cm_s20_c20_cd-full_matched_a-5.wav","spherical","20","20","full","matched","-5","5","1178"
"echo-presentation","85","646305","0.0-85.0","5f6916f985575a0f22ec8f69","5fef55e628823a0076ec12ee","6018d2150bf5c41cad6316ec","Mozilla/5.0 (Windows NT 10.0; Win64; x64) AppleWebKit/537.36 (KHTML, like Gecko) Chrome/87.0.4280.141 Safari/537.36 OPR/73.0.3856.344","","","","","","","","-10,-5,0,5,10","media/audio/stims/spherical_300cm_s20_c20_cd-full_matched_a5.wav","spherical","20","20","full","matched","5","0","1995"
"echo-presentation","86","648696","0.0-86.0","5f6916f985575a0f22ec8f69","5fef55e628823a0076ec12ee","6018d2150bf5c41cad6316ec","Mozilla/5.0 (Windows NT 10.0; Win64; x64) AppleWebKit/537.36 (KHTML, like Gecko) Chrome/87.0.4280.141 Safari/537.36 OPR/73.0.3856.344","","","","","","","","-10,-5,0,5,10","media/audio/stims/spherical_300cm_s20_c20_cd-full_matched_a-10.wav","spherical","20","20","full","matched","-10","-10","1663"
"echo-presentation","87","650926","0.0-87.0","5f6916f985575a0f22ec8f69","5fef55e628823a0076ec12ee","6018d2150bf5c41cad6316ec","Mozilla/5.0 (Windows NT 10.0; Win64; x64) AppleWebKit/537.36 (KHTML, like Gecko) Chrome/87.0.4280.141 Safari/537.36 OPR/73.0.3856.344","","","","","","","","-10,-5,0,5,10","media/audio/stims/spherical_300cm_s20_c20_cd-full_matched_a10.wav","spherical","20","20","full","matched","10","10","1428"
"echo-presentation","88","652950","0.0-88.0","5f6916f985575a0f22ec8f69","5fef55e628823a0076ec12ee","6018d2150bf5c41cad6316ec","Mozilla/5.0 (Windows NT 10.0; Win64; x64) AppleWebKit/537.36 (KHTML, like Gecko) Chrome/87.0.4280.141 Safari/537.36 OPR/73.0.3856.344","","","","","","","","-10,-5,0,5,10","media/audio/stims/spherical_300cm_s20_c20_cd-full_matched_a0.wav","spherical","20","20","full","matched","0","5","1189"
"echo-presentation","89","654851","0.0-89.0","5f6916f985575a0f22ec8f69","5fef55e628823a0076ec12ee","6018d2150bf5c41cad6316ec","Mozilla/5.0 (Windows NT 10.0; Win64; x64) AppleWebKit/537.36 (KHTML, like Gecko) Chrome/87.0.4280.141 Safari/537.36 OPR/73.0.3856.344","","","","","","","","-10,-5,0,5,10","media/audio/stims/spherical_300cm_s20_c20_cd-full_matched_a-10.wav","spherical","20","20","full","matched","-10","-10","1175"
"echo-presentation","90","659266","0.0-90.0","5f6916f985575a0f22ec8f69","5fef55e628823a0076ec12ee","6018d2150bf5c41cad6316ec","Mozilla/5.0 (Windows NT 10.0; Win64; x64) AppleWebKit/537.36 (KHTML, like Gecko) Chrome/87.0.4280.141 Safari/537.36 OPR/73.0.3856.344","","","","","","","","-10,-5,0,5,10","media/audio/stims/spherical_300cm_s20_c20_cd-full_matched_a5.wav","spherical","20","20","full","matched","5","5","3672"
"echo-presentation","91","662211","0.0-91.0","5f6916f985575a0f22ec8f69","5fef55e628823a0076ec12ee","6018d2150bf5c41cad6316ec","Mozilla/5.0 (Windows NT 10.0; Win64; x64) AppleWebKit/537.36 (KHTML, like Gecko) Chrome/87.0.4280.141 Safari/537.36 OPR/73.0.3856.344","","","","","","","","-10,-5,0,5,10","media/audio/stims/spherical_300cm_s20_c20_cd-full_matched_a-5.wav","spherical","20","20","full","matched","-5","10","2124"
"echo-presentation","92","666325","0.0-92.0","5f6916f985575a0f22ec8f69","5fef55e628823a0076ec12ee","6018d2150bf5c41cad6316ec","Mozilla/5.0 (Windows NT 10.0; Win64; x64) AppleWebKit/537.36 (KHTML, like Gecko) Chrome/87.0.4280.141 Safari/537.36 OPR/73.0.3856.344","","","","","","","","-10,-5,0,5,10","media/audio/stims/spherical_300cm_s20_c20_cd-full_matched_a5.wav","spherical","20","20","full","matched","5","10","3375"
"echo-presentation","93","669443","0.0-93.0","5f6916f985575a0f22ec8f69","5fef55e628823a0076ec12ee","6018d2150bf5c41cad6316ec","Mozilla/5.0 (Windows NT 10.0; Win64; x64) AppleWebKit/537.36 (KHTML, like Gecko) Chrome/87.0.4280.141 Safari/537.36 OPR/73.0.3856.344","","","","","","","","-10,-5,0,5,10","media/audio/stims/spherical_300cm_s20_c20_cd-full_matched_a0.wav","spherical","20","20","full","matched","0","5","2338"
"block-bookend","94","670939","0.0-94.0","5f6916f985575a0f22ec8f69","5fef55e628823a0076ec12ee","6018d2150bf5c41cad6316ec","Mozilla/5.0 (Windows NT 10.0; Win64; x64) AppleWebKit/537.36 (KHTML, like Gecko) Chrome/87.0.4280.141 Safari/537.36 OPR/73.0.3856.344","","","","","","","","","","","","","","","","",""
"block-bookend","95","677129","0.0-95.0","5f6916f985575a0f22ec8f69","5fef55e628823a0076ec12ee","6018d2150bf5c41cad6316ec","Mozilla/5.0 (Windows NT 10.0; Win64; x64) AppleWebKit/537.36 (KHTML, like Gecko) Chrome/87.0.4280.141 Safari/537.36 OPR/73.0.3856.344","","","","","","","","","","","","","","","","",""
"echo-presentation","96","679867","0.0-96.0","5f6916f985575a0f22ec8f69","5fef55e628823a0076ec12ee","6018d2150bf5c41cad6316ec","Mozilla/5.0 (Windows NT 10.0; Win64; x64) AppleWebKit/537.36 (KHTML, like Gecko) Chrome/87.0.4280.141 Safari/537.36 OPR/73.0.3856.344","","","","","","","","-10,-5,0,5,10","media/audio/stims/spherical_300cm_s20_c20_cd-full_matched_a10.wav","spherical","20","20","full","matched","10","5","1293"
"echo-presentation","97","682299","0.0-97.0","5f6916f985575a0f22ec8f69","5fef55e628823a0076ec12ee","6018d2150bf5c41cad6316ec","Mozilla/5.0 (Windows NT 10.0; Win64; x64) AppleWebKit/537.36 (KHTML, like Gecko) Chrome/87.0.4280.141 Safari/537.36 OPR/73.0.3856.344","","","","","","","","-10,-5,0,5,10","media/audio/stims/spherical_300cm_s20_c20_cd-full_matched_a-10.wav","spherical","20","20","full","matched","-10","-10","1277"
"echo-presentation","98","686228","0.0-98.0","5f6916f985575a0f22ec8f69","5fef55e628823a0076ec12ee","6018d2150bf5c41cad6316ec","Mozilla/5.0 (Windows NT 10.0; Win64; x64) AppleWebKit/537.36 (KHTML, like Gecko) Chrome/87.0.4280.141 Safari/537.36 OPR/73.0.3856.344","","","","","","","","-10,-5,0,5,10","media/audio/stims/spherical_300cm_s20_c20_cd-full_matched_a0.wav","spherical","20","20","full","matched","0","-5","3115"
"echo-presentation","99","688017","0.0-99.0","5f6916f985575a0f22ec8f69","5fef55e628823a0076ec12ee","6018d2150bf5c41cad6316ec","Mozilla/5.0 (Windows NT 10.0; Win64; x64) AppleWebKit/537.36 (KHTML, like Gecko) Chrome/87.0.4280.141 Safari/537.36 OPR/73.0.3856.344","","","","","","","","-10,-5,0,5,10","media/audio/stims/spherical_300cm_s20_c20_cd-full_matched_a10.wav","spherical","20","20","full","matched","10","5","1060"
"echo-presentation","100","690242","0.0-100.0","5f6916f985575a0f22ec8f69","5fef55e628823a0076ec12ee","6018d2150bf5c41cad6316ec","Mozilla/5.0 (Windows NT 10.0; Win64; x64) AppleWebKit/537.36 (KHTML, like Gecko) Chrome/87.0.4280.141 Safari/537.36 OPR/73.0.3856.344","","","","","","","","-10,-5,0,5,10","media/audio/stims/spherical_300cm_s20_c20_cd-full_matched_a-5.wav","spherical","20","20","full","matched","-5","0","1402"
"echo-presentation","101","692088","0.0-101.0","5f6916f985575a0f22ec8f69","5fef55e628823a0076ec12ee","6018d2150bf5c41cad6316ec","Mozilla/5.0 (Windows NT 10.0; Win64; x64) AppleWebKit/537.36 (KHTML, like Gecko) Chrome/87.0.4280.141 Safari/537.36 OPR/73.0.3856.344","","","","","","","","-10,-5,0,5,10","media/audio/stims/spherical_300cm_s20_c20_cd-full_matched_a10.wav","spherical","20","20","full","matched","10","5","1066"
"echo-presentation","102","693740","0.0-102.0","5f6916f985575a0f22ec8f69","5fef55e628823a0076ec12ee","6018d2150bf5c41cad6316ec","Mozilla/5.0 (Windows NT 10.0; Win64; x64) AppleWebKit/537.36 (KHTML, like Gecko) Chrome/87.0.4280.141 Safari/537.36 OPR/73.0.3856.344","","","","","","","","-10,-5,0,5,10","media/audio/stims/spherical_300cm_s20_c20_cd-full_matched_a-5.wav","spherical","20","20","full","matched","-5","-5","931"
"echo-presentation","103","696923","0.0-103.0","5f6916f985575a0f22ec8f69","5fef55e628823a0076ec12ee","6018d2150bf5c41cad6316ec","Mozilla/5.0 (Windows NT 10.0; Win64; x64) AppleWebKit/537.36 (KHTML, like Gecko) Chrome/87.0.4280.141 Safari/537.36 OPR/73.0.3856.344","","","","","","","","-10,-5,0,5,10","media/audio/stims/spherical_300cm_s20_c20_cd-full_matched_a5.wav","spherical","20","20","full","matched","5","-5","2370"
"echo-presentation","104","699436","0.0-104.0","5f6916f985575a0f22ec8f69","5fef55e628823a0076ec12ee","6018d2150bf5c41cad6316ec","Mozilla/5.0 (Windows NT 10.0; Win64; x64) AppleWebKit/537.36 (KHTML, like Gecko) Chrome/87.0.4280.141 Safari/537.36 OPR/73.0.3856.344","","","","","","","","-10,-5,0,5,10","media/audio/stims/spherical_300cm_s20_c20_cd-full_matched_a0.wav","spherical","20","20","full","matched","0","10","1678"
"echo-presentation","105","702007","0.0-105.0","5f6916f985575a0f22ec8f69","5fef55e628823a0076ec12ee","6018d2150bf5c41cad6316ec","Mozilla/5.0 (Windows NT 10.0; Win64; x64) AppleWebKit/537.36 (KHTML, like Gecko) Chrome/87.0.4280.141 Safari/537.36 OPR/73.0.3856.344","","","","","","","","-10,-5,0,5,10","media/audio/stims/spherical_300cm_s20_c20_cd-full_matched_a-10.wav","spherical","20","20","full","matched","-10","-10","1690"
"echo-presentation","106","703907","0.0-106.0","5f6916f985575a0f22ec8f69","5fef55e628823a0076ec12ee","6018d2150bf5c41cad6316ec","Mozilla/5.0 (Windows NT 10.0; Win64; x64) AppleWebKit/537.36 (KHTML, like Gecko) Chrome/87.0.4280.141 Safari/537.36 OPR/73.0.3856.344","","","","","","","","-10,-5,0,5,10","media/audio/stims/spherical_300cm_s20_c20_cd-full_matched_a10.wav","spherical","20","20","full","matched","10","10","1179"
"echo-presentation","107","706795","0.0-107.0","5f6916f985575a0f22ec8f69","5fef55e628823a0076ec12ee","6018d2150bf5c41cad6316ec","Mozilla/5.0 (Windows NT 10.0; Win64; x64) AppleWebKit/537.36 (KHTML, like Gecko) Chrome/87.0.4280.141 Safari/537.36 OPR/73.0.3856.344","","","","","","","","-10,-5,0,5,10","media/audio/stims/spherical_300cm_s20_c20_cd-full_matched_a-5.wav","spherical","20","20","full","matched","-5","0","2047"
"echo-presentation","108","709007","0.0-108.0","5f6916f985575a0f22ec8f69","5fef55e628823a0076ec12ee","6018d2150bf5c41cad6316ec","Mozilla/5.0 (Windows NT 10.0; Win64; x64) AppleWebKit/537.36 (KHTML, like Gecko) Chrome/87.0.4280.141 Safari/537.36 OPR/73.0.3856.344","","","","","","","","-10,-5,0,5,10","media/audio/stims/spherical_300cm_s20_c20_cd-full_matched_a5.wav","spherical","20","20","full","matched","5","-5","1563"
"echo-presentation","109","714620","0.0-109.0","5f6916f985575a0f22ec8f69","5fef55e628823a0076ec12ee","6018d2150bf5c41cad6316ec","Mozilla/5.0 (Windows NT 10.0; Win64; x64) AppleWebKit/537.36 (KHTML, like Gecko) Chrome/87.0.4280.141 Safari/537.36 OPR/73.0.3856.344","","","","","","","","-10,-5,0,5,10","media/audio/stims/spherical_300cm_s20_c20_cd-full_matched_a0.wav","spherical","20","20","full","matched","0","0","4859"
"echo-presentation","110","716690","0.0-110.0","5f6916f985575a0f22ec8f69","5fef55e628823a0076ec12ee","6018d2150bf5c41cad6316ec","Mozilla/5.0 (Windows NT 10.0; Win64; x64) AppleWebKit/537.36 (KHTML, like Gecko) Chrome/87.0.4280.141 Safari/537.36 OPR/73.0.3856.344","","","","","","","","-10,-5,0,5,10","media/audio/stims/spherical_300cm_s20_c20_cd-full_matched_a5.wav","spherical","20","20","full","matched","5","0","1298"
"echo-presentation","111","718252","0.0-111.0","5f6916f985575a0f22ec8f69","5fef55e628823a0076ec12ee","6018d2150bf5c41cad6316ec","Mozilla/5.0 (Windows NT 10.0; Win64; x64) AppleWebKit/537.36 (KHTML, like Gecko) Chrome/87.0.4280.141 Safari/537.36 OPR/73.0.3856.344","","","","","","","","-10,-5,0,5,10","media/audio/stims/spherical_300cm_s20_c20_cd-full_matched_a-10.wav","spherical","20","20","full","matched","-10","-5","922"
"echo-presentation","112","720730","0.0-112.0","5f6916f985575a0f22ec8f69","5fef55e628823a0076ec12ee","6018d2150bf5c41cad6316ec","Mozilla/5.0 (Windows NT 10.0; Win64; x64) AppleWebKit/537.36 (KHTML, like Gecko) Chrome/87.0.4280.141 Safari/537.36 OPR/73.0.3856.344","","","","","","","","-10,-5,0,5,10","media/audio/stims/spherical_300cm_s20_c20_cd-full_matched_a5.wav","spherical","20","20","full","matched","5","-5","1699"
"echo-presentation","113","722642","0.0-113.0","5f6916f985575a0f22ec8f69","5fef55e628823a0076ec12ee","6018d2150bf5c41cad6316ec","Mozilla/5.0 (Windows NT 10.0; Win64; x64) AppleWebKit/537.36 (KHTML, like Gecko) Chrome/87.0.4280.141 Safari/537.36 OPR/73.0.3856.344","","","","","","","","-10,-5,0,5,10","media/audio/stims/spherical_300cm_s20_c20_cd-full_matched_a-10.wav","spherical","20","20","full","matched","-10","-10","1371"
"echo-presentation","114","724485","0.0-114.0","5f6916f985575a0f22ec8f69","5fef55e628823a0076ec12ee","6018d2150bf5c41cad6316ec","Mozilla/5.0 (Windows NT 10.0; Win64; x64) AppleWebKit/537.36 (KHTML, like Gecko) Chrome/87.0.4280.141 Safari/537.36 OPR/73.0.3856.344","","","","","","","","-10,-5,0,5,10","media/audio/stims/spherical_300cm_s20_c20_cd-full_matched_a-5.wav","spherical","20","20","full","matched","-5","5","1066"
"echo-presentation","115","726795","0.0-115.0","5f6916f985575a0f22ec8f69","5fef55e628823a0076ec12ee","6018d2150bf5c41cad6316ec","Mozilla/5.0 (Windows NT 10.0; Win64; x64) AppleWebKit/537.36 (KHTML, like Gecko) Chrome/87.0.4280.141 Safari/537.36 OPR/73.0.3856.344","","","","","","","","-10,-5,0,5,10","media/audio/stims/spherical_300cm_s20_c20_cd-full_matched_a0.wav","spherical","20","20","full","matched","0","-5","1462"
"block-bookend","116","729488","0.0-116.0","5f6916f985575a0f22ec8f69","5fef55e628823a0076ec12ee","6018d2150bf5c41cad6316ec","Mozilla/5.0 (Windows NT 10.0; Win64; x64) AppleWebKit/537.36 (KHTML, like Gecko) Chrome/87.0.4280.141 Safari/537.36 OPR/73.0.3856.344","","","","","","","","","","","","","","","","",""
"block-bookend","117","739460","0.0-117.0","5f6916f985575a0f22ec8f69","5fef55e628823a0076ec12ee","6018d2150bf5c41cad6316ec","Mozilla/5.0 (Windows NT 10.0; Win64; x64) AppleWebKit/537.36 (KHTML, like Gecko) Chrome/87.0.4280.141 Safari/537.36 OPR/73.0.3856.344","","","","","","","","","","","","","","","","",""
"echo-presentation","118","746227","0.0-118.0","5f6916f985575a0f22ec8f69","5fef55e628823a0076ec12ee","6018d2150bf5c41cad6316ec","Mozilla/5.0 (Windows NT 10.0; Win64; x64) AppleWebKit/537.36 (KHTML, like Gecko) Chrome/87.0.4280.141 Safari/537.36 OPR/73.0.3856.344","","","","","","","","50,55,60,65,70","media/audio/stims/spherical_300cm_s20_c20_cd-full_matched_a55.wav","spherical","20","20","full","matched","55","70","5453"
"echo-presentation","119","749335","0.0-119.0","5f6916f985575a0f22ec8f69","5fef55e628823a0076ec12ee","6018d2150bf5c41cad6316ec","Mozilla/5.0 (Windows NT 10.0; Win64; x64) AppleWebKit/537.36 (KHTML, like Gecko) Chrome/87.0.4280.141 Safari/537.36 OPR/73.0.3856.344","","","","","","","","50,55,60,65,70","media/audio/stims/spherical_300cm_s20_c20_cd-full_matched_a50.wav","spherical","20","20","full","matched","50","70","1891"
"echo-presentation","120","752230","0.0-120.0","5f6916f985575a0f22ec8f69","5fef55e628823a0076ec12ee","6018d2150bf5c41cad6316ec","Mozilla/5.0 (Windows NT 10.0; Win64; x64) AppleWebKit/537.36 (KHTML, like Gecko) Chrome/87.0.4280.141 Safari/537.36 OPR/73.0.3856.344","","","","","","","","50,55,60,65,70","media/audio/stims/spherical_300cm_s20_c20_cd-full_matched_a65.wav","spherical","20","20","full","matched","65","65","2040"
"echo-presentation","121","755201","0.0-121.0","5f6916f985575a0f22ec8f69","5fef55e628823a0076ec12ee","6018d2150bf5c41cad6316ec","Mozilla/5.0 (Windows NT 10.0; Win64; x64) AppleWebKit/537.36 (KHTML, like Gecko) Chrome/87.0.4280.141 Safari/537.36 OPR/73.0.3856.344","","","","","","","","50,55,60,65,70","media/audio/stims/spherical_300cm_s20_c20_cd-full_matched_a70.wav","spherical","20","20","full","matched","70","65","1898"
"echo-presentation","122","757361","0.0-122.0","5f6916f985575a0f22ec8f69","5fef55e628823a0076ec12ee","6018d2150bf5c41cad6316ec","Mozilla/5.0 (Windows NT 10.0; Win64; x64) AppleWebKit/537.36 (KHTML, like Gecko) Chrome/87.0.4280.141 Safari/537.36 OPR/73.0.3856.344","","","","","","","","50,55,60,65,70","media/audio/stims/spherical_300cm_s20_c20_cd-full_matched_a60.wav","spherical","20","20","full","matched","60","65","1229"
"echo-presentation","123","764393","0.0-123.0","5f6916f985575a0f22ec8f69","5fef55e628823a0076ec12ee","6018d2150bf5c41cad6316ec","Mozilla/5.0 (Windows NT 10.0; Win64; x64) AppleWebKit/537.36 (KHTML, like Gecko) Chrome/87.0.4280.141 Safari/537.36 OPR/73.0.3856.344","","","","","","","","50,55,60,65,70","media/audio/stims/spherical_300cm_s20_c20_cd-full_matched_a60.wav","spherical","20","20","full","matched","60","65","6203"
"echo-presentation","124","768020","0.0-124.0","5f6916f985575a0f22ec8f69","5fef55e628823a0076ec12ee","6018d2150bf5c41cad6316ec","Mozilla/5.0 (Windows NT 10.0; Win64; x64) AppleWebKit/537.36 (KHTML, like Gecko) Chrome/87.0.4280.141 Safari/537.36 OPR/73.0.3856.344","","","","","","","","50,55,60,65,70","media/audio/stims/spherical_300cm_s20_c20_cd-full_matched_a50.wav","spherical","20","20","full","matched","50","70","2836"
"echo-presentation","125","770383","0.0-125.0","5f6916f985575a0f22ec8f69","5fef55e628823a0076ec12ee","6018d2150bf5c41cad6316ec","Mozilla/5.0 (Windows NT 10.0; Win64; x64) AppleWebKit/537.36 (KHTML, like Gecko) Chrome/87.0.4280.141 Safari/537.36 OPR/73.0.3856.344","","","","","","","","50,55,60,65,70","media/audio/stims/spherical_300cm_s20_c20_cd-full_matched_a55.wav","spherical","20","20","full","matched","55","70","1548"
"echo-presentation","126","772767","0.0-126.0","5f6916f985575a0f22ec8f69","5fef55e628823a0076ec12ee","6018d2150bf5c41cad6316ec","Mozilla/5.0 (Windows NT 10.0; Win64; x64) AppleWebKit/537.36 (KHTML, like Gecko) Chrome/87.0.4280.141 Safari/537.36 OPR/73.0.3856.344","","","","","","","","50,55,60,65,70","media/audio/stims/spherical_300cm_s20_c20_cd-full_matched_a65.wav","spherical","20","20","full","matched","65","70","1540"
"echo-presentation","127","774951","0.0-127.0","5f6916f985575a0f22ec8f69","5fef55e628823a0076ec12ee","6018d2150bf5c41cad6316ec","Mozilla/5.0 (Windows NT 10.0; Win64; x64) AppleWebKit/537.36 (KHTML, like Gecko) Chrome/87.0.4280.141 Safari/537.36 OPR/73.0.3856.344","","","","","","","","50,55,60,65,70","media/audio/stims/spherical_300cm_s20_c20_cd-full_matched_a50.wav","spherical","20","20","full","matched","50","70","1316"
"echo-presentation","128","777377","0.0-128.0","5f6916f985575a0f22ec8f69","5fef55e628823a0076ec12ee","6018d2150bf5c41cad6316ec","Mozilla/5.0 (Windows NT 10.0; Win64; x64) AppleWebKit/537.36 (KHTML, like Gecko) Chrome/87.0.4280.141 Safari/537.36 OPR/73.0.3856.344","","","","","","","","50,55,60,65,70","media/audio/stims/spherical_300cm_s20_c20_cd-full_matched_a65.wav","spherical","20","20","full","matched","65","70","1439"
"echo-presentation","129","779618","0.0-129.0","5f6916f985575a0f22ec8f69","5fef55e628823a0076ec12ee","6018d2150bf5c41cad6316ec","Mozilla/5.0 (Windows NT 10.0; Win64; x64) AppleWebKit/537.36 (KHTML, like Gecko) Chrome/87.0.4280.141 Safari/537.36 OPR/73.0.3856.344","","","","","","","","50,55,60,65,70","media/audio/stims/spherical_300cm_s20_c20_cd-full_matched_a55.wav","spherical","20","20","full","matched","55","65","1350"
"echo-presentation","130","781773","0.0-130.0","5f6916f985575a0f22ec8f69","5fef55e628823a0076ec12ee","6018d2150bf5c41cad6316ec","Mozilla/5.0 (Windows NT 10.0; Win64; x64) AppleWebKit/537.36 (KHTML, like Gecko) Chrome/87.0.4280.141 Safari/537.36 OPR/73.0.3856.344","","","","","","","","50,55,60,65,70","media/audio/stims/spherical_300cm_s20_c20_cd-full_matched_a60.wav","spherical","20","20","full","matched","60","65","1396"
"echo-presentation","131","783670","0.0-131.0","5f6916f985575a0f22ec8f69","5fef55e628823a0076ec12ee","6018d2150bf5c41cad6316ec","Mozilla/5.0 (Windows NT 10.0; Win64; x64) AppleWebKit/537.36 (KHTML, like Gecko) Chrome/87.0.4280.141 Safari/537.36 OPR/73.0.3856.344","","","","","","","","50,55,60,65,70","media/audio/stims/spherical_300cm_s20_c20_cd-full_matched_a65.wav","spherical","20","20","full","matched","65","55","1065"
"echo-presentation","132","785798","0.0-132.0","5f6916f985575a0f22ec8f69","5fef55e628823a0076ec12ee","6018d2150bf5c41cad6316ec","Mozilla/5.0 (Windows NT 10.0; Win64; x64) AppleWebKit/537.36 (KHTML, like Gecko) Chrome/87.0.4280.141 Safari/537.36 OPR/73.0.3856.344","","","","","","","","50,55,60,65,70","media/audio/stims/spherical_300cm_s20_c20_cd-full_matched_a70.wav","spherical","20","20","full","matched","70","50","1305"
"echo-presentation","133","788005","0.0-133.0","5f6916f985575a0f22ec8f69","5fef55e628823a0076ec12ee","6018d2150bf5c41cad6316ec","Mozilla/5.0 (Windows NT 10.0; Win64; x64) AppleWebKit/537.36 (KHTML, like Gecko) Chrome/87.0.4280.141 Safari/537.36 OPR/73.0.3856.344","","","","","","","","50,55,60,65,70","media/audio/stims/spherical_300cm_s20_c20_cd-full_matched_a60.wav","spherical","20","20","full","matched","60","50","1490"
"echo-presentation","134","790062","0.0-134.0","5f6916f985575a0f22ec8f69","5fef55e628823a0076ec12ee","6018d2150bf5c41cad6316ec","Mozilla/5.0 (Windows NT 10.0; Win64; x64) AppleWebKit/537.36 (KHTML, like Gecko) Chrome/87.0.4280.141 Safari/537.36 OPR/73.0.3856.344","","","","","","","","50,55,60,65,70","media/audio/stims/spherical_300cm_s20_c20_cd-full_matched_a70.wav","spherical","20","20","full","matched","70","55","1266"
"echo-presentation","135","793026","0.0-135.0","5f6916f985575a0f22ec8f69","5fef55e628823a0076ec12ee","6018d2150bf5c41cad6316ec","Mozilla/5.0 (Windows NT 10.0; Win64; x64) AppleWebKit/537.36 (KHTML, like Gecko) Chrome/87.0.4280.141 Safari/537.36 OPR/73.0.3856.344","","","","","","","","50,55,60,65,70","media/audio/stims/spherical_300cm_s20_c20_cd-full_matched_a50.wav","spherical","20","20","full","matched","50","65","2138"
"echo-presentation","136","795025","0.0-136.0","5f6916f985575a0f22ec8f69","5fef55e628823a0076ec12ee","6018d2150bf5c41cad6316ec","Mozilla/5.0 (Windows NT 10.0; Win64; x64) AppleWebKit/537.36 (KHTML, like Gecko) Chrome/87.0.4280.141 Safari/537.36 OPR/73.0.3856.344","","","","","","","","50,55,60,65,70","media/audio/stims/spherical_300cm_s20_c20_cd-full_matched_a70.wav","spherical","20","20","full","matched","70","70","1211"
"echo-presentation","137","797110","0.0-137.0","5f6916f985575a0f22ec8f69","5fef55e628823a0076ec12ee","6018d2150bf5c41cad6316ec","Mozilla/5.0 (Windows NT 10.0; Win64; x64) AppleWebKit/537.36 (KHTML, like Gecko) Chrome/87.0.4280.141 Safari/537.36 OPR/73.0.3856.344","","","","","","","","50,55,60,65,70","media/audio/stims/spherical_300cm_s20_c20_cd-full_matched_a55.wav","spherical","20","20","full","matched","55","65","1148"
"block-bookend","138","798646","0.0-138.0","5f6916f985575a0f22ec8f69","5fef55e628823a0076ec12ee","6018d2150bf5c41cad6316ec","Mozilla/5.0 (Windows NT 10.0; Win64; x64) AppleWebKit/537.36 (KHTML, like Gecko) Chrome/87.0.4280.141 Safari/537.36 OPR/73.0.3856.344","","","","","","","","","","","","","","","","",""
