"trial_type","trial_index","time_elapsed","internal_node_id","prolificPid","studyId","sessionId","userAgent","rt","stimulus","key_press","chosenKeyset","failureCount","testIndex","globalVolume","choices","filename","modelName","slowdown","compensation","compensationDescriptor","receiverOrientationType","azimuth","responseAzimuth","responseDelay"
"pavlovia","0","5","0.0-0.0","5eb2d3b0d573b507df21626f","5fef55e628823a0076ec12ee","6018d20b0c29361d7daf9e50","Mozilla/5.0 (Windows NT 6.1; Win64; x64) AppleWebKit/537.36 (KHTML, like Gecko) Chrome/88.0.4324.104 Safari/537.36","","","","","","","","","","","","","","","","",""
"html-keyboard-response","1","2411","0.0-1.0","5eb2d3b0d573b507df21626f","5fef55e628823a0076ec12ee","6018d20b0c29361d7daf9e50","Mozilla/5.0 (Windows NT 6.1; Win64; x64) AppleWebKit/537.36 (KHTML, like Gecko) Chrome/88.0.4324.104 Safari/537.36","2403.999999999996","<div><h1>Welcome!</h1><p>Press any key to continue.</p></div>","65","","","","","","","","","","","","","",""
"consent-form","2","154861","0.0-2.0","5eb2d3b0d573b507df21626f","5fef55e628823a0076ec12ee","6018d20b0c29361d7daf9e50","Mozilla/5.0 (Windows NT 6.1; Win64; x64) AppleWebKit/537.36 (KHTML, like Gecko) Chrome/88.0.4324.104 Safari/537.36","","","","","","","","","","","","","","","","",""
"keyset-select","3","201866","0.0-3.0","5eb2d3b0d573b507df21626f","5fef55e628823a0076ec12ee","6018d20b0c29361d7daf9e50","Mozilla/5.0 (Windows NT 6.1; Win64; x64) AppleWebKit/537.36 (KHTML, like Gecko) Chrome/88.0.4324.104 Safari/537.36","","","","left-hand","","","","","","","","","","","","",""
"headphone-check","4","286839","0.0-4.0","5eb2d3b0d573b507df21626f","5fef55e628823a0076ec12ee","6018d20b0c29361d7daf9e50","Mozilla/5.0 (Windows NT 6.1; Win64; x64) AppleWebKit/537.36 (KHTML, like Gecko) Chrome/88.0.4324.104 Safari/537.36","","","","","0","6","0.3","","","","","","","","","",""
"headphone-backwards-check","5","297193","0.0-5.0","5eb2d3b0d573b507df21626f","5fef55e628823a0076ec12ee","6018d20b0c29361d7daf9e50","Mozilla/5.0 (Windows NT 6.1; Win64; x64) AppleWebKit/537.36 (KHTML, like Gecko) Chrome/88.0.4324.104 Safari/537.36","","","","","0","","","","","","","","","","","",""
"training","6","406268","0.0-6.0","5eb2d3b0d573b507df21626f","5fef55e628823a0076ec12ee","6018d20b0c29361d7daf9e50","Mozilla/5.0 (Windows NT 6.1; Win64; x64) AppleWebKit/537.36 (KHTML, like Gecko) Chrome/88.0.4324.104 Safari/537.36","","","","","","","","","","","","","","","","",""
"block-bookend","7","419970","0.0-7.0","5eb2d3b0d573b507df21626f","5fef55e628823a0076ec12ee","6018d20b0c29361d7daf9e50","Mozilla/5.0 (Windows NT 6.1; Win64; x64) AppleWebKit/537.36 (KHTML, like Gecko) Chrome/88.0.4324.104 Safari/537.36","","","","","","","","","","","","","","","","",""
"echo-presentation","8","432060","0.0-8.0","5eb2d3b0d573b507df21626f","5fef55e628823a0076ec12ee","6018d20b0c29361d7daf9e50","Mozilla/5.0 (Windows NT 6.1; Win64; x64) AppleWebKit/537.36 (KHTML, like Gecko) Chrome/88.0.4324.104 Safari/537.36","","","","","","","","-70,-65,-60,-55,-50","media/audio/stims/spherical_300cm_s20_c20_cd-full_matched_a-60.wav","spherical","20","20","full","matched","-60","-70","8390"
"echo-presentation","9","439183","0.0-9.0","5eb2d3b0d573b507df21626f","5fef55e628823a0076ec12ee","6018d20b0c29361d7daf9e50","Mozilla/5.0 (Windows NT 6.1; Win64; x64) AppleWebKit/537.36 (KHTML, like Gecko) Chrome/88.0.4324.104 Safari/537.36","","","","","","","","-70,-65,-60,-55,-50","media/audio/stims/spherical_300cm_s20_c20_cd-full_matched_a-55.wav","spherical","20","20","full","matched","-55","-70","4101"
"echo-presentation","10","447817","0.0-10.0","5eb2d3b0d573b507df21626f","5fef55e628823a0076ec12ee","6018d20b0c29361d7daf9e50","Mozilla/5.0 (Windows NT 6.1; Win64; x64) AppleWebKit/537.36 (KHTML, like Gecko) Chrome/88.0.4324.104 Safari/537.36","","","","","","","","-70,-65,-60,-55,-50","media/audio/stims/spherical_300cm_s20_c20_cd-full_matched_a-60.wav","spherical","20","20","full","matched","-60","-70","5333"
"echo-presentation","11","455380","0.0-11.0","5eb2d3b0d573b507df21626f","5fef55e628823a0076ec12ee","6018d20b0c29361d7daf9e50","Mozilla/5.0 (Windows NT 6.1; Win64; x64) AppleWebKit/537.36 (KHTML, like Gecko) Chrome/88.0.4324.104 Safari/537.36","","","","","","","","-70,-65,-60,-55,-50","media/audio/stims/spherical_300cm_s20_c20_cd-full_matched_a-70.wav","spherical","20","20","full","matched","-70","-70","4862"
"echo-presentation","12","470911","0.0-12.0","5eb2d3b0d573b507df21626f","5fef55e628823a0076ec12ee","6018d20b0c29361d7daf9e50","Mozilla/5.0 (Windows NT 6.1; Win64; x64) AppleWebKit/537.36 (KHTML, like Gecko) Chrome/88.0.4324.104 Safari/537.36","","","","","","","","-70,-65,-60,-55,-50","media/audio/stims/spherical_300cm_s20_c20_cd-full_matched_a-65.wav","spherical","20","20","full","matched","-65","-70","11016"
"echo-presentation","13","479066","0.0-13.0","5eb2d3b0d573b507df21626f","5fef55e628823a0076ec12ee","6018d20b0c29361d7daf9e50","Mozilla/5.0 (Windows NT 6.1; Win64; x64) AppleWebKit/537.36 (KHTML, like Gecko) Chrome/88.0.4324.104 Safari/537.36","","","","","","","","-70,-65,-60,-55,-50","media/audio/stims/spherical_300cm_s20_c20_cd-full_matched_a-65.wav","spherical","20","20","full","matched","-65","-65","5786"
"echo-presentation","14","486268","0.0-14.0","5eb2d3b0d573b507df21626f","5fef55e628823a0076ec12ee","6018d20b0c29361d7daf9e50","Mozilla/5.0 (Windows NT 6.1; Win64; x64) AppleWebKit/537.36 (KHTML, like Gecko) Chrome/88.0.4324.104 Safari/537.36","","","","","","","","-70,-65,-60,-55,-50","media/audio/stims/spherical_300cm_s20_c20_cd-full_matched_a-55.wav","spherical","20","20","full","matched","-55","-65","4741"
"echo-presentation","15","493938","0.0-15.0","5eb2d3b0d573b507df21626f","5fef55e628823a0076ec12ee","6018d20b0c29361d7daf9e50","Mozilla/5.0 (Windows NT 6.1; Win64; x64) AppleWebKit/537.36 (KHTML, like Gecko) Chrome/88.0.4324.104 Safari/537.36","","","","","","","","-70,-65,-60,-55,-50","media/audio/stims/spherical_300cm_s20_c20_cd-full_matched_a-55.wav","spherical","20","20","full","matched","-55","-65","5649"
"echo-presentation","16","498729","0.0-16.0","5eb2d3b0d573b507df21626f","5fef55e628823a0076ec12ee","6018d20b0c29361d7daf9e50","Mozilla/5.0 (Windows NT 6.1; Win64; x64) AppleWebKit/537.36 (KHTML, like Gecko) Chrome/88.0.4324.104 Safari/537.36","","","","","","","","-70,-65,-60,-55,-50","media/audio/stims/spherical_300cm_s20_c20_cd-full_matched_a-65.wav","spherical","20","20","full","matched","-65","-65","3109"
"echo-presentation","17","504838","0.0-17.0","5eb2d3b0d573b507df21626f","5fef55e628823a0076ec12ee","6018d20b0c29361d7daf9e50","Mozilla/5.0 (Windows NT 6.1; Win64; x64) AppleWebKit/537.36 (KHTML, like Gecko) Chrome/88.0.4324.104 Safari/537.36","","","","","","","","-70,-65,-60,-55,-50","media/audio/stims/spherical_300cm_s20_c20_cd-full_matched_a-70.wav","spherical","20","20","full","matched","-70","-70","4220"
"echo-presentation","18","517098","0.0-18.0","5eb2d3b0d573b507df21626f","5fef55e628823a0076ec12ee","6018d20b0c29361d7daf9e50","Mozilla/5.0 (Windows NT 6.1; Win64; x64) AppleWebKit/537.36 (KHTML, like Gecko) Chrome/88.0.4324.104 Safari/537.36","","","","","","","","-70,-65,-60,-55,-50","media/audio/stims/spherical_300cm_s20_c20_cd-full_matched_a-70.wav","spherical","20","20","full","matched","-70","-70","9844"
"echo-presentation","19","523083","0.0-19.0","5eb2d3b0d573b507df21626f","5fef55e628823a0076ec12ee","6018d20b0c29361d7daf9e50","Mozilla/5.0 (Windows NT 6.1; Win64; x64) AppleWebKit/537.36 (KHTML, like Gecko) Chrome/88.0.4324.104 Safari/537.36","","","","","","","","-70,-65,-60,-55,-50","media/audio/stims/spherical_300cm_s20_c20_cd-full_matched_a-50.wav","spherical","20","20","full","matched","-50","-70","4031"
"echo-presentation","20","528687","0.0-20.0","5eb2d3b0d573b507df21626f","5fef55e628823a0076ec12ee","6018d20b0c29361d7daf9e50","Mozilla/5.0 (Windows NT 6.1; Win64; x64) AppleWebKit/537.36 (KHTML, like Gecko) Chrome/88.0.4324.104 Safari/537.36","","","","","","","","-70,-65,-60,-55,-50","media/audio/stims/spherical_300cm_s20_c20_cd-full_matched_a-50.wav","spherical","20","20","full","matched","-50","-70","3733"
"echo-presentation","21","535216","0.0-21.0","5eb2d3b0d573b507df21626f","5fef55e628823a0076ec12ee","6018d20b0c29361d7daf9e50","Mozilla/5.0 (Windows NT 6.1; Win64; x64) AppleWebKit/537.36 (KHTML, like Gecko) Chrome/88.0.4324.104 Safari/537.36","","","","","","","","-70,-65,-60,-55,-50","media/audio/stims/spherical_300cm_s20_c20_cd-full_matched_a-70.wav","spherical","20","20","full","matched","-70","-65","3295"
"echo-presentation","22","542276","0.0-22.0","5eb2d3b0d573b507df21626f","5fef55e628823a0076ec12ee","6018d20b0c29361d7daf9e50","Mozilla/5.0 (Windows NT 6.1; Win64; x64) AppleWebKit/537.36 (KHTML, like Gecko) Chrome/88.0.4324.104 Safari/537.36","","","","","","","","-70,-65,-60,-55,-50","media/audio/stims/spherical_300cm_s20_c20_cd-full_matched_a-50.wav","spherical","20","20","full","matched","-50","-65","4861"
"echo-presentation","23","547932","0.0-23.0","5eb2d3b0d573b507df21626f","5fef55e628823a0076ec12ee","6018d20b0c29361d7daf9e50","Mozilla/5.0 (Windows NT 6.1; Win64; x64) AppleWebKit/537.36 (KHTML, like Gecko) Chrome/88.0.4324.104 Safari/537.36","","","","","","","","-70,-65,-60,-55,-50","media/audio/stims/spherical_300cm_s20_c20_cd-full_matched_a-55.wav","spherical","20","20","full","matched","-55","-70","3500"
"echo-presentation","24","552781","0.0-24.0","5eb2d3b0d573b507df21626f","5fef55e628823a0076ec12ee","6018d20b0c29361d7daf9e50","Mozilla/5.0 (Windows NT 6.1; Win64; x64) AppleWebKit/537.36 (KHTML, like Gecko) Chrome/88.0.4324.104 Safari/537.36","","","","","","","","-70,-65,-60,-55,-50","media/audio/stims/spherical_300cm_s20_c20_cd-full_matched_a-60.wav","spherical","20","20","full","matched","-60","-70","2415"
"echo-presentation","25","558822","0.0-25.0","5eb2d3b0d573b507df21626f","5fef55e628823a0076ec12ee","6018d20b0c29361d7daf9e50","Mozilla/5.0 (Windows NT 6.1; Win64; x64) AppleWebKit/537.36 (KHTML, like Gecko) Chrome/88.0.4324.104 Safari/537.36","","","","","","","","-70,-65,-60,-55,-50","media/audio/stims/spherical_300cm_s20_c20_cd-full_matched_a-60.wav","spherical","20","20","full","matched","-60","-70","4385"
"echo-presentation","26","562430","0.0-26.0","5eb2d3b0d573b507df21626f","5fef55e628823a0076ec12ee","6018d20b0c29361d7daf9e50","Mozilla/5.0 (Windows NT 6.1; Win64; x64) AppleWebKit/537.36 (KHTML, like Gecko) Chrome/88.0.4324.104 Safari/537.36","","","","","","","","-70,-65,-60,-55,-50","media/audio/stims/spherical_300cm_s20_c20_cd-full_matched_a-65.wav","spherical","20","20","full","matched","-65","-70","2204"
"echo-presentation","27","565954","0.0-27.0","5eb2d3b0d573b507df21626f","5fef55e628823a0076ec12ee","6018d20b0c29361d7daf9e50","Mozilla/5.0 (Windows NT 6.1; Win64; x64) AppleWebKit/537.36 (KHTML, like Gecko) Chrome/88.0.4324.104 Safari/537.36","","","","","","","","-70,-65,-60,-55,-50","media/audio/stims/spherical_300cm_s20_c20_cd-full_matched_a-50.wav","spherical","20","20","full","matched","-50","-65","1862"
"block-bookend","28","570184","0.0-28.0","5eb2d3b0d573b507df21626f","5fef55e628823a0076ec12ee","6018d20b0c29361d7daf9e50","Mozilla/5.0 (Windows NT 6.1; Win64; x64) AppleWebKit/537.36 (KHTML, like Gecko) Chrome/88.0.4324.104 Safari/537.36","","","","","","","","","","","","","","","","",""
"block-bookend","29","591540","0.0-29.0","5eb2d3b0d573b507df21626f","5fef55e628823a0076ec12ee","6018d20b0c29361d7daf9e50","Mozilla/5.0 (Windows NT 6.1; Win64; x64) AppleWebKit/537.36 (KHTML, like Gecko) Chrome/88.0.4324.104 Safari/537.36","","","","","","","","","","","","","","","","",""
"echo-presentation","30","600980","0.0-30.0","5eb2d3b0d573b507df21626f","5fef55e628823a0076ec12ee","6018d20b0c29361d7daf9e50","Mozilla/5.0 (Windows NT 6.1; Win64; x64) AppleWebKit/537.36 (KHTML, like Gecko) Chrome/88.0.4324.104 Safari/537.36","","","","","","","","-10,-5,0,5,10","media/audio/stims/spherical_300cm_s20_c20_cd-full_matched_a-10.wav","spherical","20","20","full","matched","-10","-5","5976"
"echo-presentation","31","607308","0.0-31.0","5eb2d3b0d573b507df21626f","5fef55e628823a0076ec12ee","6018d20b0c29361d7daf9e50","Mozilla/5.0 (Windows NT 6.1; Win64; x64) AppleWebKit/537.36 (KHTML, like Gecko) Chrome/88.0.4324.104 Safari/537.36","","","","","","","","-10,-5,0,5,10","media/audio/stims/spherical_300cm_s20_c20_cd-full_matched_a-5.wav","spherical","20","20","full","matched","-5","-5","4224"
"echo-presentation","32","613326","0.0-32.0","5eb2d3b0d573b507df21626f","5fef55e628823a0076ec12ee","6018d20b0c29361d7daf9e50","Mozilla/5.0 (Windows NT 6.1; Win64; x64) AppleWebKit/537.36 (KHTML, like Gecko) Chrome/88.0.4324.104 Safari/537.36","","","","","","","","-10,-5,0,5,10","media/audio/stims/spherical_300cm_s20_c20_cd-full_matched_a5.wav","spherical","20","20","full","matched","5","-5","3206"
"echo-presentation","33","618563","0.0-33.0","5eb2d3b0d573b507df21626f","5fef55e628823a0076ec12ee","6018d20b0c29361d7daf9e50","Mozilla/5.0 (Windows NT 6.1; Win64; x64) AppleWebKit/537.36 (KHTML, like Gecko) Chrome/88.0.4324.104 Safari/537.36","","","","","","","","-10,-5,0,5,10","media/audio/stims/spherical_300cm_s20_c20_cd-full_matched_a-10.wav","spherical","20","20","full","matched","-10","-5","3320"
"echo-presentation","34","625621","0.0-34.0","5eb2d3b0d573b507df21626f","5fef55e628823a0076ec12ee","6018d20b0c29361d7daf9e50","Mozilla/5.0 (Windows NT 6.1; Win64; x64) AppleWebKit/537.36 (KHTML, like Gecko) Chrome/88.0.4324.104 Safari/537.36","","","","","","","","-10,-5,0,5,10","media/audio/stims/spherical_300cm_s20_c20_cd-full_matched_a0.wav","spherical","20","20","full","matched","0","-5","4996"
"echo-presentation","35","630215","0.0-35.0","5eb2d3b0d573b507df21626f","5fef55e628823a0076ec12ee","6018d20b0c29361d7daf9e50","Mozilla/5.0 (Windows NT 6.1; Win64; x64) AppleWebKit/537.36 (KHTML, like Gecko) Chrome/88.0.4324.104 Safari/537.36","","","","","","","","-10,-5,0,5,10","media/audio/stims/spherical_300cm_s20_c20_cd-full_matched_a5.wav","spherical","20","20","full","matched","5","0","2049"
"echo-presentation","36","635546","0.0-36.0","5eb2d3b0d573b507df21626f","5fef55e628823a0076ec12ee","6018d20b0c29361d7daf9e50","Mozilla/5.0 (Windows NT 6.1; Win64; x64) AppleWebKit/537.36 (KHTML, like Gecko) Chrome/88.0.4324.104 Safari/537.36","","","","","","","","-10,-5,0,5,10","media/audio/stims/spherical_300cm_s20_c20_cd-full_matched_a10.wav","spherical","20","20","full","matched","10","0","2878"
"echo-presentation","37","641315","0.0-37.0","5eb2d3b0d573b507df21626f","5fef55e628823a0076ec12ee","6018d20b0c29361d7daf9e50","Mozilla/5.0 (Windows NT 6.1; Win64; x64) AppleWebKit/537.36 (KHTML, like Gecko) Chrome/88.0.4324.104 Safari/537.36","","","","","","","","-10,-5,0,5,10","media/audio/stims/spherical_300cm_s20_c20_cd-full_matched_a0.wav","spherical","20","20","full","matched","0","0","4323"
"echo-presentation","38","646893","0.0-38.0","5eb2d3b0d573b507df21626f","5fef55e628823a0076ec12ee","6018d20b0c29361d7daf9e50","Mozilla/5.0 (Windows NT 6.1; Win64; x64) AppleWebKit/537.36 (KHTML, like Gecko) Chrome/88.0.4324.104 Safari/537.36","","","","","","","","-10,-5,0,5,10","media/audio/stims/spherical_300cm_s20_c20_cd-full_matched_a-5.wav","spherical","20","20","full","matched","-5","-5","3286"
"echo-presentation","39","654500","0.0-39.0","5eb2d3b0d573b507df21626f","5fef55e628823a0076ec12ee","6018d20b0c29361d7daf9e50","Mozilla/5.0 (Windows NT 6.1; Win64; x64) AppleWebKit/537.36 (KHTML, like Gecko) Chrome/88.0.4324.104 Safari/537.36","","","","","","","","-10,-5,0,5,10","media/audio/stims/spherical_300cm_s20_c20_cd-full_matched_a10.wav","spherical","20","20","full","matched","10","-5","5300"
"echo-presentation","40","660527","0.0-40.0","5eb2d3b0d573b507df21626f","5fef55e628823a0076ec12ee","6018d20b0c29361d7daf9e50","Mozilla/5.0 (Windows NT 6.1; Win64; x64) AppleWebKit/537.36 (KHTML, like Gecko) Chrome/88.0.4324.104 Safari/537.36","","","","","","","","-10,-5,0,5,10","media/audio/stims/spherical_300cm_s20_c20_cd-full_matched_a0.wav","spherical","20","20","full","matched","0","0","4349"
"echo-presentation","41","665186","0.0-41.0","5eb2d3b0d573b507df21626f","5fef55e628823a0076ec12ee","6018d20b0c29361d7daf9e50","Mozilla/5.0 (Windows NT 6.1; Win64; x64) AppleWebKit/537.36 (KHTML, like Gecko) Chrome/88.0.4324.104 Safari/537.36","","","","","","","","-10,-5,0,5,10","media/audio/stims/spherical_300cm_s20_c20_cd-full_matched_a-10.wav","spherical","20","20","full","matched","-10","0","2980"
"echo-presentation","42","670416","0.0-42.0","5eb2d3b0d573b507df21626f","5fef55e628823a0076ec12ee","6018d20b0c29361d7daf9e50","Mozilla/5.0 (Windows NT 6.1; Win64; x64) AppleWebKit/537.36 (KHTML, like Gecko) Chrome/88.0.4324.104 Safari/537.36","","","","","","","","-10,-5,0,5,10","media/audio/stims/spherical_300cm_s20_c20_cd-full_matched_a10.wav","spherical","20","20","full","matched","10","-5","2859"
"echo-presentation","43","674606","0.0-43.0","5eb2d3b0d573b507df21626f","5fef55e628823a0076ec12ee","6018d20b0c29361d7daf9e50","Mozilla/5.0 (Windows NT 6.1; Win64; x64) AppleWebKit/537.36 (KHTML, like Gecko) Chrome/88.0.4324.104 Safari/537.36","","","","","","","","-10,-5,0,5,10","media/audio/stims/spherical_300cm_s20_c20_cd-full_matched_a-10.wav","spherical","20","20","full","matched","-10","-5","2416"
"echo-presentation","44","679408","0.0-44.0","5eb2d3b0d573b507df21626f","5fef55e628823a0076ec12ee","6018d20b0c29361d7daf9e50","Mozilla/5.0 (Windows NT 6.1; Win64; x64) AppleWebKit/537.36 (KHTML, like Gecko) Chrome/88.0.4324.104 Safari/537.36","","","","","","","","-10,-5,0,5,10","media/audio/stims/spherical_300cm_s20_c20_cd-full_matched_a10.wav","spherical","20","20","full","matched","10","0","3144"
"echo-presentation","45","686412","0.0-45.0","5eb2d3b0d573b507df21626f","5fef55e628823a0076ec12ee","6018d20b0c29361d7daf9e50","Mozilla/5.0 (Windows NT 6.1; Win64; x64) AppleWebKit/537.36 (KHTML, like Gecko) Chrome/88.0.4324.104 Safari/537.36","","","","","","","","-10,-5,0,5,10","media/audio/stims/spherical_300cm_s20_c20_cd-full_matched_a0.wav","spherical","20","20","full","matched","0","0","4750"
"echo-presentation","46","689998","0.0-46.0","5eb2d3b0d573b507df21626f","5fef55e628823a0076ec12ee","6018d20b0c29361d7daf9e50","Mozilla/5.0 (Windows NT 6.1; Win64; x64) AppleWebKit/537.36 (KHTML, like Gecko) Chrome/88.0.4324.104 Safari/537.36","","","","","","","","-10,-5,0,5,10","media/audio/stims/spherical_300cm_s20_c20_cd-full_matched_a5.wav","spherical","20","20","full","matched","5","0","2353"
"echo-presentation","47","694133","0.0-47.0","5eb2d3b0d573b507df21626f","5fef55e628823a0076ec12ee","6018d20b0c29361d7daf9e50","Mozilla/5.0 (Windows NT 6.1; Win64; x64) AppleWebKit/537.36 (KHTML, like Gecko) Chrome/88.0.4324.104 Safari/537.36","","","","","","","","-10,-5,0,5,10","media/audio/stims/spherical_300cm_s20_c20_cd-full_matched_a5.wav","spherical","20","20","full","matched","5","0","2807"
"echo-presentation","48","698366","0.0-48.0","5eb2d3b0d573b507df21626f","5fef55e628823a0076ec12ee","6018d20b0c29361d7daf9e50","Mozilla/5.0 (Windows NT 6.1; Win64; x64) AppleWebKit/537.36 (KHTML, like Gecko) Chrome/88.0.4324.104 Safari/537.36","","","","","","","","-10,-5,0,5,10","media/audio/stims/spherical_300cm_s20_c20_cd-full_matched_a-5.wav","spherical","20","20","full","matched","-5","-5","1678"
"echo-presentation","49","701825","0.0-49.0","5eb2d3b0d573b507df21626f","5fef55e628823a0076ec12ee","6018d20b0c29361d7daf9e50","Mozilla/5.0 (Windows NT 6.1; Win64; x64) AppleWebKit/537.36 (KHTML, like Gecko) Chrome/88.0.4324.104 Safari/537.36","","","","","","","","-10,-5,0,5,10","media/audio/stims/spherical_300cm_s20_c20_cd-full_matched_a-5.wav","spherical","20","20","full","matched","-5","-5","1797"
"block-bookend","50","706345","0.0-50.0","5eb2d3b0d573b507df21626f","5fef55e628823a0076ec12ee","6018d20b0c29361d7daf9e50","Mozilla/5.0 (Windows NT 6.1; Win64; x64) AppleWebKit/537.36 (KHTML, like Gecko) Chrome/88.0.4324.104 Safari/537.36","","","","","","","","","","","","","","","","",""
"block-bookend","51","717277","0.0-51.0","5eb2d3b0d573b507df21626f","5fef55e628823a0076ec12ee","6018d20b0c29361d7daf9e50","Mozilla/5.0 (Windows NT 6.1; Win64; x64) AppleWebKit/537.36 (KHTML, like Gecko) Chrome/88.0.4324.104 Safari/537.36","","","","","","","","","","","","","","","","",""
"echo-presentation","52","724673","0.0-52.0","5eb2d3b0d573b507df21626f","5fef55e628823a0076ec12ee","6018d20b0c29361d7daf9e50","Mozilla/5.0 (Windows NT 6.1; Win64; x64) AppleWebKit/537.36 (KHTML, like Gecko) Chrome/88.0.4324.104 Safari/537.36","","","","","","","","50,55,60,65,70","media/audio/stims/spherical_300cm_s20_c20_cd-full_matched_a65.wav","spherical","20","20","full","matched","65","50","3692"
"echo-presentation","53","730371","0.0-53.0","5eb2d3b0d573b507df21626f","5fef55e628823a0076ec12ee","6018d20b0c29361d7daf9e50","Mozilla/5.0 (Windows NT 6.1; Win64; x64) AppleWebKit/537.36 (KHTML, like Gecko) Chrome/88.0.4324.104 Safari/537.36","","","","","","","","50,55,60,65,70","media/audio/stims/spherical_300cm_s20_c20_cd-full_matched_a60.wav","spherical","20","20","full","matched","60","50","3568"
"echo-presentation","54","734154","0.0-54.0","5eb2d3b0d573b507df21626f","5fef55e628823a0076ec12ee","6018d20b0c29361d7daf9e50","Mozilla/5.0 (Windows NT 6.1; Win64; x64) AppleWebKit/537.36 (KHTML, like Gecko) Chrome/88.0.4324.104 Safari/537.36","","","","","","","","50,55,60,65,70","media/audio/stims/spherical_300cm_s20_c20_cd-full_matched_a50.wav","spherical","20","20","full","matched","50","55","2126"
"echo-presentation","55","738374","0.0-55.0","5eb2d3b0d573b507df21626f","5fef55e628823a0076ec12ee","6018d20b0c29361d7daf9e50","Mozilla/5.0 (Windows NT 6.1; Win64; x64) AppleWebKit/537.36 (KHTML, like Gecko) Chrome/88.0.4324.104 Safari/537.36","","","","","","","","50,55,60,65,70","media/audio/stims/spherical_300cm_s20_c20_cd-full_matched_a65.wav","spherical","20","20","full","matched","65","55","1749"
"echo-presentation","56","745195","0.0-56.0","5eb2d3b0d573b507df21626f","5fef55e628823a0076ec12ee","6018d20b0c29361d7daf9e50","Mozilla/5.0 (Windows NT 6.1; Win64; x64) AppleWebKit/537.36 (KHTML, like Gecko) Chrome/88.0.4324.104 Safari/537.36","","","","","","","","50,55,60,65,70","media/audio/stims/spherical_300cm_s20_c20_cd-full_matched_a55.wav","spherical","20","20","full","matched","55","55","3890"
"echo-presentation","57","749066","0.0-57.0","5eb2d3b0d573b507df21626f","5fef55e628823a0076ec12ee","6018d20b0c29361d7daf9e50","Mozilla/5.0 (Windows NT 6.1; Win64; x64) AppleWebKit/537.36 (KHTML, like Gecko) Chrome/88.0.4324.104 Safari/537.36","","","","","","","","50,55,60,65,70","media/audio/stims/spherical_300cm_s20_c20_cd-full_matched_a70.wav","spherical","20","20","full","matched","70","55","2348"
"echo-presentation","58","753818","0.0-58.0","5eb2d3b0d573b507df21626f","5fef55e628823a0076ec12ee","6018d20b0c29361d7daf9e50","Mozilla/5.0 (Windows NT 6.1; Win64; x64) AppleWebKit/537.36 (KHTML, like Gecko) Chrome/88.0.4324.104 Safari/537.36","","","","","","","","50,55,60,65,70","media/audio/stims/spherical_300cm_s20_c20_cd-full_matched_a65.wav","spherical","20","20","full","matched","65","60","3514"
"echo-presentation","59","757259","0.0-59.0","5eb2d3b0d573b507df21626f","5fef55e628823a0076ec12ee","6018d20b0c29361d7daf9e50","Mozilla/5.0 (Windows NT 6.1; Win64; x64) AppleWebKit/537.36 (KHTML, like Gecko) Chrome/88.0.4324.104 Safari/537.36","","","","","","","","50,55,60,65,70","media/audio/stims/spherical_300cm_s20_c20_cd-full_matched_a60.wav","spherical","20","20","full","matched","60","60","2146"
"echo-presentation","60","761101","0.0-60.0","5eb2d3b0d573b507df21626f","5fef55e628823a0076ec12ee","6018d20b0c29361d7daf9e50","Mozilla/5.0 (Windows NT 6.1; Win64; x64) AppleWebKit/537.36 (KHTML, like Gecko) Chrome/88.0.4324.104 Safari/537.36","","","","","","","","50,55,60,65,70","media/audio/stims/spherical_300cm_s20_c20_cd-full_matched_a55.wav","spherical","20","20","full","matched","55","55","1976"
"echo-presentation","61","767762","0.0-61.0","5eb2d3b0d573b507df21626f","5fef55e628823a0076ec12ee","6018d20b0c29361d7daf9e50","Mozilla/5.0 (Windows NT 6.1; Win64; x64) AppleWebKit/537.36 (KHTML, like Gecko) Chrome/88.0.4324.104 Safari/537.36","","","","","","","","50,55,60,65,70","media/audio/stims/spherical_300cm_s20_c20_cd-full_matched_a55.wav","spherical","20","20","full","matched","55","55","2977"
"echo-presentation","62","773308","0.0-62.0","5eb2d3b0d573b507df21626f","5fef55e628823a0076ec12ee","6018d20b0c29361d7daf9e50","Mozilla/5.0 (Windows NT 6.1; Win64; x64) AppleWebKit/537.36 (KHTML, like Gecko) Chrome/88.0.4324.104 Safari/537.36","","","","","","","","50,55,60,65,70","media/audio/stims/spherical_300cm_s20_c20_cd-full_matched_a50.wav","spherical","20","20","full","matched","50","60","3288"
"echo-presentation","63","777131","0.0-63.0","5eb2d3b0d573b507df21626f","5fef55e628823a0076ec12ee","6018d20b0c29361d7daf9e50","Mozilla/5.0 (Windows NT 6.1; Win64; x64) AppleWebKit/537.36 (KHTML, like Gecko) Chrome/88.0.4324.104 Safari/537.36","","","","","","","","50,55,60,65,70","media/audio/stims/spherical_300cm_s20_c20_cd-full_matched_a70.wav","spherical","20","20","full","matched","70","60","2337"
"echo-presentation","64","784028","0.0-64.0","5eb2d3b0d573b507df21626f","5fef55e628823a0076ec12ee","6018d20b0c29361d7daf9e50","Mozilla/5.0 (Windows NT 6.1; Win64; x64) AppleWebKit/537.36 (KHTML, like Gecko) Chrome/88.0.4324.104 Safari/537.36","","","","","","","","50,55,60,65,70","media/audio/stims/spherical_300cm_s20_c20_cd-full_matched_a50.wav","spherical","20","20","full","matched","50","60","4616"
"echo-presentation","65","789532","0.0-65.0","5eb2d3b0d573b507df21626f","5fef55e628823a0076ec12ee","6018d20b0c29361d7daf9e50","Mozilla/5.0 (Windows NT 6.1; Win64; x64) AppleWebKit/537.36 (KHTML, like Gecko) Chrome/88.0.4324.104 Safari/537.36","","","","","","","","50,55,60,65,70","media/audio/stims/spherical_300cm_s20_c20_cd-full_matched_a60.wav","spherical","20","20","full","matched","60","60","2472"
"echo-presentation","66","793557","0.0-66.0","5eb2d3b0d573b507df21626f","5fef55e628823a0076ec12ee","6018d20b0c29361d7daf9e50","Mozilla/5.0 (Windows NT 6.1; Win64; x64) AppleWebKit/537.36 (KHTML, like Gecko) Chrome/88.0.4324.104 Safari/537.36","","","","","","","","50,55,60,65,70","media/audio/stims/spherical_300cm_s20_c20_cd-full_matched_a70.wav","spherical","20","20","full","matched","70","60","1935"
"echo-presentation","67","797194","0.0-67.0","5eb2d3b0d573b507df21626f","5fef55e628823a0076ec12ee","6018d20b0c29361d7daf9e50","Mozilla/5.0 (Windows NT 6.1; Win64; x64) AppleWebKit/537.36 (KHTML, like Gecko) Chrome/88.0.4324.104 Safari/537.36","","","","","","","","50,55,60,65,70","media/audio/stims/spherical_300cm_s20_c20_cd-full_matched_a60.wav","spherical","20","20","full","matched","60","60","1879"
"echo-presentation","68","801452","0.0-68.0","5eb2d3b0d573b507df21626f","5fef55e628823a0076ec12ee","6018d20b0c29361d7daf9e50","Mozilla/5.0 (Windows NT 6.1; Win64; x64) AppleWebKit/537.36 (KHTML, like Gecko) Chrome/88.0.4324.104 Safari/537.36","","","","","","","","50,55,60,65,70","media/audio/stims/spherical_300cm_s20_c20_cd-full_matched_a55.wav","spherical","20","20","full","matched","55","60","2755"
"echo-presentation","69","807833","0.0-69.0","5eb2d3b0d573b507df21626f","5fef55e628823a0076ec12ee","6018d20b0c29361d7daf9e50","Mozilla/5.0 (Windows NT 6.1; Win64; x64) AppleWebKit/537.36 (KHTML, like Gecko) Chrome/88.0.4324.104 Safari/537.36","","","","","","","","50,55,60,65,70","media/audio/stims/spherical_300cm_s20_c20_cd-full_matched_a70.wav","spherical","20","20","full","matched","70","60","3903"
"echo-presentation","70","813164","0.0-70.0","5eb2d3b0d573b507df21626f","5fef55e628823a0076ec12ee","6018d20b0c29361d7daf9e50","Mozilla/5.0 (Windows NT 6.1; Win64; x64) AppleWebKit/537.36 (KHTML, like Gecko) Chrome/88.0.4324.104 Safari/537.36","","","","","","","","50,55,60,65,70","media/audio/stims/spherical_300cm_s20_c20_cd-full_matched_a50.wav","spherical","20","20","full","matched","50","60","3839"
"echo-presentation","71","817516","0.0-71.0","5eb2d3b0d573b507df21626f","5fef55e628823a0076ec12ee","6018d20b0c29361d7daf9e50","Mozilla/5.0 (Windows NT 6.1; Win64; x64) AppleWebKit/537.36 (KHTML, like Gecko) Chrome/88.0.4324.104 Safari/537.36","","","","","","","","50,55,60,65,70","media/audio/stims/spherical_300cm_s20_c20_cd-full_matched_a65.wav","spherical","20","20","full","matched","65","60","2521"
"block-bookend","72","825685","0.0-72.0","5eb2d3b0d573b507df21626f","5fef55e628823a0076ec12ee","6018d20b0c29361d7daf9e50","Mozilla/5.0 (Windows NT 6.1; Win64; x64) AppleWebKit/537.36 (KHTML, like Gecko) Chrome/88.0.4324.104 Safari/537.36","","","","","","","","","","","","","","","","",""
"block-bookend","73","840306","0.0-73.0","5eb2d3b0d573b507df21626f","5fef55e628823a0076ec12ee","6018d20b0c29361d7daf9e50","Mozilla/5.0 (Windows NT 6.1; Win64; x64) AppleWebKit/537.36 (KHTML, like Gecko) Chrome/88.0.4324.104 Safari/537.36","","","","","","","","","","","","","","","","",""
"echo-presentation","74","846326","0.0-74.0","5eb2d3b0d573b507df21626f","5fef55e628823a0076ec12ee","6018d20b0c29361d7daf9e50","Mozilla/5.0 (Windows NT 6.1; Win64; x64) AppleWebKit/537.36 (KHTML, like Gecko) Chrome/88.0.4324.104 Safari/537.36","","","","","","","","-10,-5,0,5,10","media/audio/stims/spherical_300cm_s20_c20_cd-full_matched_a5.wav","spherical","20","20","full","matched","5","0","3688"
"echo-presentation","75","850834","0.0-75.0","5eb2d3b0d573b507df21626f","5fef55e628823a0076ec12ee","6018d20b0c29361d7daf9e50","Mozilla/5.0 (Windows NT 6.1; Win64; x64) AppleWebKit/537.36 (KHTML, like Gecko) Chrome/88.0.4324.104 Safari/537.36","","","","","","","","-10,-5,0,5,10","media/audio/stims/spherical_300cm_s20_c20_cd-full_matched_a-10.wav","spherical","20","20","full","matched","-10","0","2570"
"echo-presentation","76","859679","0.0-76.0","5eb2d3b0d573b507df21626f","5fef55e628823a0076ec12ee","6018d20b0c29361d7daf9e50","Mozilla/5.0 (Windows NT 6.1; Win64; x64) AppleWebKit/537.36 (KHTML, like Gecko) Chrome/88.0.4324.104 Safari/537.36","","","","","","","","-10,-5,0,5,10","media/audio/stims/spherical_300cm_s20_c20_cd-full_matched_a-5.wav","spherical","20","20","full","matched","-5","0","6761"
"echo-presentation","77","864341","0.0-77.0","5eb2d3b0d573b507df21626f","5fef55e628823a0076ec12ee","6018d20b0c29361d7daf9e50","Mozilla/5.0 (Windows NT 6.1; Win64; x64) AppleWebKit/537.36 (KHTML, like Gecko) Chrome/88.0.4324.104 Safari/537.36","","","","","","","","-10,-5,0,5,10","media/audio/stims/spherical_300cm_s20_c20_cd-full_matched_a-10.wav","spherical","20","20","full","matched","-10","0","2943"
"echo-presentation","78","869243","0.0-78.0","5eb2d3b0d573b507df21626f","5fef55e628823a0076ec12ee","6018d20b0c29361d7daf9e50","Mozilla/5.0 (Windows NT 6.1; Win64; x64) AppleWebKit/537.36 (KHTML, like Gecko) Chrome/88.0.4324.104 Safari/537.36","","","","","","","","-10,-5,0,5,10","media/audio/stims/spherical_300cm_s20_c20_cd-full_matched_a0.wav","spherical","20","20","full","matched","0","0","3070"
"echo-presentation","79","872861","0.0-79.0","5eb2d3b0d573b507df21626f","5fef55e628823a0076ec12ee","6018d20b0c29361d7daf9e50","Mozilla/5.0 (Windows NT 6.1; Win64; x64) AppleWebKit/537.36 (KHTML, like Gecko) Chrome/88.0.4324.104 Safari/537.36","","","","","","","","-10,-5,0,5,10","media/audio/stims/spherical_300cm_s20_c20_cd-full_matched_a5.wav","spherical","20","20","full","matched","5","-5","1968"
"echo-presentation","80","875857","0.0-80.0","5eb2d3b0d573b507df21626f","5fef55e628823a0076ec12ee","6018d20b0c29361d7daf9e50","Mozilla/5.0 (Windows NT 6.1; Win64; x64) AppleWebKit/537.36 (KHTML, like Gecko) Chrome/88.0.4324.104 Safari/537.36","","","","","","","","-10,-5,0,5,10","media/audio/stims/spherical_300cm_s20_c20_cd-full_matched_a0.wav","spherical","20","20","full","matched","0","0","1626"
"echo-presentation","81","878969","0.0-81.0","5eb2d3b0d573b507df21626f","5fef55e628823a0076ec12ee","6018d20b0c29361d7daf9e50","Mozilla/5.0 (Windows NT 6.1; Win64; x64) AppleWebKit/537.36 (KHTML, like Gecko) Chrome/88.0.4324.104 Safari/537.36","","","","","","","","-10,-5,0,5,10","media/audio/stims/spherical_300cm_s20_c20_cd-full_matched_a0.wav","spherical","20","20","full","matched","0","0","1613"
"echo-presentation","82","885138","0.0-82.0","5eb2d3b0d573b507df21626f","5fef55e628823a0076ec12ee","6018d20b0c29361d7daf9e50","Mozilla/5.0 (Windows NT 6.1; Win64; x64) AppleWebKit/537.36 (KHTML, like Gecko) Chrome/88.0.4324.104 Safari/537.36","","","","","","","","-10,-5,0,5,10","media/audio/stims/spherical_300cm_s20_c20_cd-full_matched_a10.wav","spherical","20","20","full","matched","10","5","4591"
"echo-presentation","83","888866","0.0-83.0","5eb2d3b0d573b507df21626f","5fef55e628823a0076ec12ee","6018d20b0c29361d7daf9e50","Mozilla/5.0 (Windows NT 6.1; Win64; x64) AppleWebKit/537.36 (KHTML, like Gecko) Chrome/88.0.4324.104 Safari/537.36","","","","","","","","-10,-5,0,5,10","media/audio/stims/spherical_300cm_s20_c20_cd-full_matched_a10.wav","spherical","20","20","full","matched","10","0","2400"
"echo-presentation","84","893185","0.0-84.0","5eb2d3b0d573b507df21626f","5fef55e628823a0076ec12ee","6018d20b0c29361d7daf9e50","Mozilla/5.0 (Windows NT 6.1; Win64; x64) AppleWebKit/537.36 (KHTML, like Gecko) Chrome/88.0.4324.104 Safari/537.36","","","","","","","","-10,-5,0,5,10","media/audio/stims/spherical_300cm_s20_c20_cd-full_matched_a-5.wav","spherical","20","20","full","matched","-5","0","2270"
"echo-presentation","85","897542","0.0-85.0","5eb2d3b0d573b507df21626f","5fef55e628823a0076ec12ee","6018d20b0c29361d7daf9e50","Mozilla/5.0 (Windows NT 6.1; Win64; x64) AppleWebKit/537.36 (KHTML, like Gecko) Chrome/88.0.4324.104 Safari/537.36","","","","","","","","-10,-5,0,5,10","media/audio/stims/spherical_300cm_s20_c20_cd-full_matched_a0.wav","spherical","20","20","full","matched","0","0","2144"
"echo-presentation","86","902285","0.0-86.0","5eb2d3b0d573b507df21626f","5fef55e628823a0076ec12ee","6018d20b0c29361d7daf9e50","Mozilla/5.0 (Windows NT 6.1; Win64; x64) AppleWebKit/537.36 (KHTML, like Gecko) Chrome/88.0.4324.104 Safari/537.36","","","","","","","","-10,-5,0,5,10","media/audio/stims/spherical_300cm_s20_c20_cd-full_matched_a10.wav","spherical","20","20","full","matched","10","0","2911"
"echo-presentation","87","906172","0.0-87.0","5eb2d3b0d573b507df21626f","5fef55e628823a0076ec12ee","6018d20b0c29361d7daf9e50","Mozilla/5.0 (Windows NT 6.1; Win64; x64) AppleWebKit/537.36 (KHTML, like Gecko) Chrome/88.0.4324.104 Safari/537.36","","","","","","","","-10,-5,0,5,10","media/audio/stims/spherical_300cm_s20_c20_cd-full_matched_a-5.wav","spherical","20","20","full","matched","-5","0","1741"
"echo-presentation","88","910640","0.0-88.0","5eb2d3b0d573b507df21626f","5fef55e628823a0076ec12ee","6018d20b0c29361d7daf9e50","Mozilla/5.0 (Windows NT 6.1; Win64; x64) AppleWebKit/537.36 (KHTML, like Gecko) Chrome/88.0.4324.104 Safari/537.36","","","","","","","","-10,-5,0,5,10","media/audio/stims/spherical_300cm_s20_c20_cd-full_matched_a-10.wav","spherical","20","20","full","matched","-10","0","2388"
"echo-presentation","89","915965","0.0-89.0","5eb2d3b0d573b507df21626f","5fef55e628823a0076ec12ee","6018d20b0c29361d7daf9e50","Mozilla/5.0 (Windows NT 6.1; Win64; x64) AppleWebKit/537.36 (KHTML, like Gecko) Chrome/88.0.4324.104 Safari/537.36","","","","","","","","-10,-5,0,5,10","media/audio/stims/spherical_300cm_s20_c20_cd-full_matched_a5.wav","spherical","20","20","full","matched","5","-5","3844"
"echo-presentation","90","919304","0.0-90.0","5eb2d3b0d573b507df21626f","5fef55e628823a0076ec12ee","6018d20b0c29361d7daf9e50","Mozilla/5.0 (Windows NT 6.1; Win64; x64) AppleWebKit/537.36 (KHTML, like Gecko) Chrome/88.0.4324.104 Safari/537.36","","","","","","","","-10,-5,0,5,10","media/audio/stims/spherical_300cm_s20_c20_cd-full_matched_a-5.wav","spherical","20","20","full","matched","-5","-5","2219"
"echo-presentation","91","926617","0.0-91.0","5eb2d3b0d573b507df21626f","5fef55e628823a0076ec12ee","6018d20b0c29361d7daf9e50","Mozilla/5.0 (Windows NT 6.1; Win64; x64) AppleWebKit/537.36 (KHTML, like Gecko) Chrome/88.0.4324.104 Safari/537.36","","","","","","","","-10,-5,0,5,10","media/audio/stims/spherical_300cm_s20_c20_cd-full_matched_a10.wav","spherical","20","20","full","matched","10","0","5093"
"echo-presentation","92","930162","0.0-92.0","5eb2d3b0d573b507df21626f","5fef55e628823a0076ec12ee","6018d20b0c29361d7daf9e50","Mozilla/5.0 (Windows NT 6.1; Win64; x64) AppleWebKit/537.36 (KHTML, like Gecko) Chrome/88.0.4324.104 Safari/537.36","","","","","","","","-10,-5,0,5,10","media/audio/stims/spherical_300cm_s20_c20_cd-full_matched_a-10.wav","spherical","20","20","full","matched","-10","0","1980"
"echo-presentation","93","933694","0.0-93.0","5eb2d3b0d573b507df21626f","5fef55e628823a0076ec12ee","6018d20b0c29361d7daf9e50","Mozilla/5.0 (Windows NT 6.1; Win64; x64) AppleWebKit/537.36 (KHTML, like Gecko) Chrome/88.0.4324.104 Safari/537.36","","","","","","","","-10,-5,0,5,10","media/audio/stims/spherical_300cm_s20_c20_cd-full_matched_a5.wav","spherical","20","20","full","matched","5","5","1959"
"block-bookend","94","935915","0.0-94.0","5eb2d3b0d573b507df21626f","5fef55e628823a0076ec12ee","6018d20b0c29361d7daf9e50","Mozilla/5.0 (Windows NT 6.1; Win64; x64) AppleWebKit/537.36 (KHTML, like Gecko) Chrome/88.0.4324.104 Safari/537.36","","","","","","","","","","","","","","","","",""
"block-bookend","95","944356","0.0-95.0","5eb2d3b0d573b507df21626f","5fef55e628823a0076ec12ee","6018d20b0c29361d7daf9e50","Mozilla/5.0 (Windows NT 6.1; Win64; x64) AppleWebKit/537.36 (KHTML, like Gecko) Chrome/88.0.4324.104 Safari/537.36","","","","","","","","","","","","","","","","",""
"echo-presentation","96","954235","0.0-96.0","5eb2d3b0d573b507df21626f","5fef55e628823a0076ec12ee","6018d20b0c29361d7daf9e50","Mozilla/5.0 (Windows NT 6.1; Win64; x64) AppleWebKit/537.36 (KHTML, like Gecko) Chrome/88.0.4324.104 Safari/537.36","","","","","","","","-70,-65,-60,-55,-50","media/audio/stims/spherical_300cm_s20_c20_cd-full_matched_a-65.wav","spherical","20","20","full","matched","-65","-70","4207"
"echo-presentation","97","957707","0.0-97.0","5eb2d3b0d573b507df21626f","5fef55e628823a0076ec12ee","6018d20b0c29361d7daf9e50","Mozilla/5.0 (Windows NT 6.1; Win64; x64) AppleWebKit/537.36 (KHTML, like Gecko) Chrome/88.0.4324.104 Safari/537.36","","","","","","","","-70,-65,-60,-55,-50","media/audio/stims/spherical_300cm_s20_c20_cd-full_matched_a-60.wav","spherical","20","20","full","matched","-60","-65","1949"
"echo-presentation","98","960814","0.0-98.0","5eb2d3b0d573b507df21626f","5fef55e628823a0076ec12ee","6018d20b0c29361d7daf9e50","Mozilla/5.0 (Windows NT 6.1; Win64; x64) AppleWebKit/537.36 (KHTML, like Gecko) Chrome/88.0.4324.104 Safari/537.36","","","","","","","","-70,-65,-60,-55,-50","media/audio/stims/spherical_300cm_s20_c20_cd-full_matched_a-70.wav","spherical","20","20","full","matched","-70","-65","1736"
"echo-presentation","99","965253","0.0-99.0","5eb2d3b0d573b507df21626f","5fef55e628823a0076ec12ee","6018d20b0c29361d7daf9e50","Mozilla/5.0 (Windows NT 6.1; Win64; x64) AppleWebKit/537.36 (KHTML, like Gecko) Chrome/88.0.4324.104 Safari/537.36","","","","","","","","-70,-65,-60,-55,-50","media/audio/stims/spherical_300cm_s20_c20_cd-full_matched_a-55.wav","spherical","20","20","full","matched","-55","-60","3145"
"echo-presentation","100","968867","0.0-100.0","5eb2d3b0d573b507df21626f","5fef55e628823a0076ec12ee","6018d20b0c29361d7daf9e50","Mozilla/5.0 (Windows NT 6.1; Win64; x64) AppleWebKit/537.36 (KHTML, like Gecko) Chrome/88.0.4324.104 Safari/537.36","","","","","","","","-70,-65,-60,-55,-50","media/audio/stims/spherical_300cm_s20_c20_cd-full_matched_a-55.wav","spherical","20","20","full","matched","-55","-60","2194"
"echo-presentation","101","972494","0.0-101.0","5eb2d3b0d573b507df21626f","5fef55e628823a0076ec12ee","6018d20b0c29361d7daf9e50","Mozilla/5.0 (Windows NT 6.1; Win64; x64) AppleWebKit/537.36 (KHTML, like Gecko) Chrome/88.0.4324.104 Safari/537.36","","","","","","","","-70,-65,-60,-55,-50","media/audio/stims/spherical_300cm_s20_c20_cd-full_matched_a-55.wav","spherical","20","20","full","matched","-55","-60","2034"
"echo-presentation","102","976019","0.0-102.0","5eb2d3b0d573b507df21626f","5fef55e628823a0076ec12ee","6018d20b0c29361d7daf9e50","Mozilla/5.0 (Windows NT 6.1; Win64; x64) AppleWebKit/537.36 (KHTML, like Gecko) Chrome/88.0.4324.104 Safari/537.36","","","","","","","","-70,-65,-60,-55,-50","media/audio/stims/spherical_300cm_s20_c20_cd-full_matched_a-60.wav","spherical","20","20","full","matched","-60","-60","2338"
"echo-presentation","103","979433","0.0-103.0","5eb2d3b0d573b507df21626f","5fef55e628823a0076ec12ee","6018d20b0c29361d7daf9e50","Mozilla/5.0 (Windows NT 6.1; Win64; x64) AppleWebKit/537.36 (KHTML, like Gecko) Chrome/88.0.4324.104 Safari/537.36","","","","","","","","-70,-65,-60,-55,-50","media/audio/stims/spherical_300cm_s20_c20_cd-full_matched_a-50.wav","spherical","20","20","full","matched","-50","-55","2336"
"echo-presentation","104","983006","0.0-104.0","5eb2d3b0d573b507df21626f","5fef55e628823a0076ec12ee","6018d20b0c29361d7daf9e50","Mozilla/5.0 (Windows NT 6.1; Win64; x64) AppleWebKit/537.36 (KHTML, like Gecko) Chrome/88.0.4324.104 Safari/537.36","","","","","","","","-70,-65,-60,-55,-50","media/audio/stims/spherical_300cm_s20_c20_cd-full_matched_a-60.wav","spherical","20","20","full","matched","-60","-55","2091"
"echo-presentation","105","986930","0.0-105.0","5eb2d3b0d573b507df21626f","5fef55e628823a0076ec12ee","6018d20b0c29361d7daf9e50","Mozilla/5.0 (Windows NT 6.1; Win64; x64) AppleWebKit/537.36 (KHTML, like Gecko) Chrome/88.0.4324.104 Safari/537.36","","","","","","","","-70,-65,-60,-55,-50","media/audio/stims/spherical_300cm_s20_c20_cd-full_matched_a-60.wav","spherical","20","20","full","matched","-60","-55","2574"
"echo-presentation","106","989848","0.0-106.0","5eb2d3b0d573b507df21626f","5fef55e628823a0076ec12ee","6018d20b0c29361d7daf9e50","Mozilla/5.0 (Windows NT 6.1; Win64; x64) AppleWebKit/537.36 (KHTML, like Gecko) Chrome/88.0.4324.104 Safari/537.36","","","","","","","","-70,-65,-60,-55,-50","media/audio/stims/spherical_300cm_s20_c20_cd-full_matched_a-50.wav","spherical","20","20","full","matched","-50","-55","2027"
"echo-presentation","107","995942","0.0-107.0","5eb2d3b0d573b507df21626f","5fef55e628823a0076ec12ee","6018d20b0c29361d7daf9e50","Mozilla/5.0 (Windows NT 6.1; Win64; x64) AppleWebKit/537.36 (KHTML, like Gecko) Chrome/88.0.4324.104 Safari/537.36","","","","","","","","-70,-65,-60,-55,-50","media/audio/stims/spherical_300cm_s20_c20_cd-full_matched_a-70.wav","spherical","20","20","full","matched","-70","-50","4533"
"echo-presentation","108","1002057","0.0-108.0","5eb2d3b0d573b507df21626f","5fef55e628823a0076ec12ee","6018d20b0c29361d7daf9e50","Mozilla/5.0 (Windows NT 6.1; Win64; x64) AppleWebKit/537.36 (KHTML, like Gecko) Chrome/88.0.4324.104 Safari/537.36","","","","","","","","-70,-65,-60,-55,-50","media/audio/stims/spherical_300cm_s20_c20_cd-full_matched_a-50.wav","spherical","20","20","full","matched","-50","-60","3210"
"echo-presentation","109","1007067","0.0-109.0","5eb2d3b0d573b507df21626f","5fef55e628823a0076ec12ee","6018d20b0c29361d7daf9e50","Mozilla/5.0 (Windows NT 6.1; Win64; x64) AppleWebKit/537.36 (KHTML, like Gecko) Chrome/88.0.4324.104 Safari/537.36","","","","","","","","-70,-65,-60,-55,-50","media/audio/stims/spherical_300cm_s20_c20_cd-full_matched_a-65.wav","spherical","20","20","full","matched","-65","-60","2167"
"echo-presentation","110","1011572","0.0-110.0","5eb2d3b0d573b507df21626f","5fef55e628823a0076ec12ee","6018d20b0c29361d7daf9e50","Mozilla/5.0 (Windows NT 6.1; Win64; x64) AppleWebKit/537.36 (KHTML, like Gecko) Chrome/88.0.4324.104 Safari/537.36","","","","","","","","-70,-65,-60,-55,-50","media/audio/stims/spherical_300cm_s20_c20_cd-full_matched_a-70.wav","spherical","20","20","full","matched","-70","-55","2600"
"echo-presentation","111","1015277","0.0-111.0","5eb2d3b0d573b507df21626f","5fef55e628823a0076ec12ee","6018d20b0c29361d7daf9e50","Mozilla/5.0 (Windows NT 6.1; Win64; x64) AppleWebKit/537.36 (KHTML, like Gecko) Chrome/88.0.4324.104 Safari/537.36","","","","","","","","-70,-65,-60,-55,-50","media/audio/stims/spherical_300cm_s20_c20_cd-full_matched_a-50.wav","spherical","20","20","full","matched","-50","-55","2162"
"echo-presentation","112","1019513","0.0-112.0","5eb2d3b0d573b507df21626f","5fef55e628823a0076ec12ee","6018d20b0c29361d7daf9e50","Mozilla/5.0 (Windows NT 6.1; Win64; x64) AppleWebKit/537.36 (KHTML, like Gecko) Chrome/88.0.4324.104 Safari/537.36","","","","","","","","-70,-65,-60,-55,-50","media/audio/stims/spherical_300cm_s20_c20_cd-full_matched_a-65.wav","spherical","20","20","full","matched","-65","-55","2047"
"echo-presentation","113","1024222","0.0-113.0","5eb2d3b0d573b507df21626f","5fef55e628823a0076ec12ee","6018d20b0c29361d7daf9e50","Mozilla/5.0 (Windows NT 6.1; Win64; x64) AppleWebKit/537.36 (KHTML, like Gecko) Chrome/88.0.4324.104 Safari/537.36","","","","","","","","-70,-65,-60,-55,-50","media/audio/stims/spherical_300cm_s20_c20_cd-full_matched_a-55.wav","spherical","20","20","full","matched","-55","-60","3158"
"echo-presentation","114","1029361","0.0-114.0","5eb2d3b0d573b507df21626f","5fef55e628823a0076ec12ee","6018d20b0c29361d7daf9e50","Mozilla/5.0 (Windows NT 6.1; Win64; x64) AppleWebKit/537.36 (KHTML, like Gecko) Chrome/88.0.4324.104 Safari/537.36","","","","","","","","-70,-65,-60,-55,-50","media/audio/stims/spherical_300cm_s20_c20_cd-full_matched_a-70.wav","spherical","20","20","full","matched","-70","-55","3028"
"echo-presentation","115","1033427","0.0-115.0","5eb2d3b0d573b507df21626f","5fef55e628823a0076ec12ee","6018d20b0c29361d7daf9e50","Mozilla/5.0 (Windows NT 6.1; Win64; x64) AppleWebKit/537.36 (KHTML, like Gecko) Chrome/88.0.4324.104 Safari/537.36","","","","","","","","-70,-65,-60,-55,-50","media/audio/stims/spherical_300cm_s20_c20_cd-full_matched_a-65.wav","spherical","20","20","full","matched","-65","-50","2297"
"block-bookend","116","1035859","0.0-116.0","5eb2d3b0d573b507df21626f","5fef55e628823a0076ec12ee","6018d20b0c29361d7daf9e50","Mozilla/5.0 (Windows NT 6.1; Win64; x64) AppleWebKit/537.36 (KHTML, like Gecko) Chrome/88.0.4324.104 Safari/537.36","","","","","","","","","","","","","","","","",""
"block-bookend","117","1048661","0.0-117.0","5eb2d3b0d573b507df21626f","5fef55e628823a0076ec12ee","6018d20b0c29361d7daf9e50","Mozilla/5.0 (Windows NT 6.1; Win64; x64) AppleWebKit/537.36 (KHTML, like Gecko) Chrome/88.0.4324.104 Safari/537.36","","","","","","","","","","","","","","","","",""
"echo-presentation","118","1053138","0.0-118.0","5eb2d3b0d573b507df21626f","5fef55e628823a0076ec12ee","6018d20b0c29361d7daf9e50","Mozilla/5.0 (Windows NT 6.1; Win64; x64) AppleWebKit/537.36 (KHTML, like Gecko) Chrome/88.0.4324.104 Safari/537.36","","","","","","","","50,55,60,65,70","media/audio/stims/spherical_300cm_s20_c20_cd-full_matched_a65.wav","spherical","20","20","full","matched","65","65","2046"
"echo-presentation","119","1056357","0.0-119.0","5eb2d3b0d573b507df21626f","5fef55e628823a0076ec12ee","6018d20b0c29361d7daf9e50","Mozilla/5.0 (Windows NT 6.1; Win64; x64) AppleWebKit/537.36 (KHTML, like Gecko) Chrome/88.0.4324.104 Safari/537.36","","","","","","","","50,55,60,65,70","media/audio/stims/spherical_300cm_s20_c20_cd-full_matched_a70.wav","spherical","20","20","full","matched","70","65","1684"
"echo-presentation","120","1059454","0.0-120.0","5eb2d3b0d573b507df21626f","5fef55e628823a0076ec12ee","6018d20b0c29361d7daf9e50","Mozilla/5.0 (Windows NT 6.1; Win64; x64) AppleWebKit/537.36 (KHTML, like Gecko) Chrome/88.0.4324.104 Safari/537.36","","","","","","","","50,55,60,65,70","media/audio/stims/spherical_300cm_s20_c20_cd-full_matched_a50.wav","spherical","20","20","full","matched","50","65","1540"
"echo-presentation","121","1063018","0.0-121.0","5eb2d3b0d573b507df21626f","5fef55e628823a0076ec12ee","6018d20b0c29361d7daf9e50","Mozilla/5.0 (Windows NT 6.1; Win64; x64) AppleWebKit/537.36 (KHTML, like Gecko) Chrome/88.0.4324.104 Safari/537.36","","","","","","","","50,55,60,65,70","media/audio/stims/spherical_300cm_s20_c20_cd-full_matched_a50.wav","spherical","20","20","full","matched","50","60","2371"
"echo-presentation","122","1065898","0.0-122.0","5eb2d3b0d573b507df21626f","5fef55e628823a0076ec12ee","6018d20b0c29361d7daf9e50","Mozilla/5.0 (Windows NT 6.1; Win64; x64) AppleWebKit/537.36 (KHTML, like Gecko) Chrome/88.0.4324.104 Safari/537.36","","","","","","","","50,55,60,65,70","media/audio/stims/spherical_300cm_s20_c20_cd-full_matched_a55.wav","spherical","20","20","full","matched","55","65","1747"
"echo-presentation","123","1068735","0.0-123.0","5eb2d3b0d573b507df21626f","5fef55e628823a0076ec12ee","6018d20b0c29361d7daf9e50","Mozilla/5.0 (Windows NT 6.1; Win64; x64) AppleWebKit/537.36 (KHTML, like Gecko) Chrome/88.0.4324.104 Safari/537.36","","","","","","","","50,55,60,65,70","media/audio/stims/spherical_300cm_s20_c20_cd-full_matched_a65.wav","spherical","20","20","full","matched","65","60","1573"
"echo-presentation","124","1071731","0.0-124.0","5eb2d3b0d573b507df21626f","5fef55e628823a0076ec12ee","6018d20b0c29361d7daf9e50","Mozilla/5.0 (Windows NT 6.1; Win64; x64) AppleWebKit/537.36 (KHTML, like Gecko) Chrome/88.0.4324.104 Safari/537.36","","","","","","","","50,55,60,65,70","media/audio/stims/spherical_300cm_s20_c20_cd-full_matched_a70.wav","spherical","20","20","full","matched","70","60","1931"
"echo-presentation","125","1074395","0.0-125.0","5eb2d3b0d573b507df21626f","5fef55e628823a0076ec12ee","6018d20b0c29361d7daf9e50","Mozilla/5.0 (Windows NT 6.1; Win64; x64) AppleWebKit/537.36 (KHTML, like Gecko) Chrome/88.0.4324.104 Safari/537.36","","","","","","","","50,55,60,65,70","media/audio/stims/spherical_300cm_s20_c20_cd-full_matched_a55.wav","spherical","20","20","full","matched","55","65","1677"
"echo-presentation","126","1077051","0.0-126.0","5eb2d3b0d573b507df21626f","5fef55e628823a0076ec12ee","6018d20b0c29361d7daf9e50","Mozilla/5.0 (Windows NT 6.1; Win64; x64) AppleWebKit/537.36 (KHTML, like Gecko) Chrome/88.0.4324.104 Safari/537.36","","","","","","","","50,55,60,65,70","media/audio/stims/spherical_300cm_s20_c20_cd-full_matched_a50.wav","spherical","20","20","full","matched","50","65","1471"
"echo-presentation","127","1081392","0.0-127.0","5eb2d3b0d573b507df21626f","5fef55e628823a0076ec12ee","6018d20b0c29361d7daf9e50","Mozilla/5.0 (Windows NT 6.1; Win64; x64) AppleWebKit/537.36 (KHTML, like Gecko) Chrome/88.0.4324.104 Safari/537.36","","","","","","","","50,55,60,65,70","media/audio/stims/spherical_300cm_s20_c20_cd-full_matched_a70.wav","spherical","20","20","full","matched","70","65","3170"
"echo-presentation","128","1084558","0.0-128.0","5eb2d3b0d573b507df21626f","5fef55e628823a0076ec12ee","6018d20b0c29361d7daf9e50","Mozilla/5.0 (Windows NT 6.1; Win64; x64) AppleWebKit/537.36 (KHTML, like Gecko) Chrome/88.0.4324.104 Safari/537.36","","","","","","","","50,55,60,65,70","media/audio/stims/spherical_300cm_s20_c20_cd-full_matched_a65.wav","spherical","20","20","full","matched","65","65","2225"
"echo-presentation","129","1088093","0.0-129.0","5eb2d3b0d573b507df21626f","5fef55e628823a0076ec12ee","6018d20b0c29361d7daf9e50","Mozilla/5.0 (Windows NT 6.1; Win64; x64) AppleWebKit/537.36 (KHTML, like Gecko) Chrome/88.0.4324.104 Safari/537.36","","","","","","","","50,55,60,65,70","media/audio/stims/spherical_300cm_s20_c20_cd-full_matched_a65.wav","spherical","20","20","full","matched","65","65","2575"
"echo-presentation","130","1091983","0.0-130.0","5eb2d3b0d573b507df21626f","5fef55e628823a0076ec12ee","6018d20b0c29361d7daf9e50","Mozilla/5.0 (Windows NT 6.1; Win64; x64) AppleWebKit/537.36 (KHTML, like Gecko) Chrome/88.0.4324.104 Safari/537.36","","","","","","","","50,55,60,65,70","media/audio/stims/spherical_300cm_s20_c20_cd-full_matched_a60.wav","spherical","20","20","full","matched","60","65","1482"
"echo-presentation","131","1095020","0.0-131.0","5eb2d3b0d573b507df21626f","5fef55e628823a0076ec12ee","6018d20b0c29361d7daf9e50","Mozilla/5.0 (Windows NT 6.1; Win64; x64) AppleWebKit/537.36 (KHTML, like Gecko) Chrome/88.0.4324.104 Safari/537.36","","","","","","","","50,55,60,65,70","media/audio/stims/spherical_300cm_s20_c20_cd-full_matched_a55.wav","spherical","20","20","full","matched","55","65","1826"
"echo-presentation","132","1097871","0.0-132.0","5eb2d3b0d573b507df21626f","5fef55e628823a0076ec12ee","6018d20b0c29361d7daf9e50","Mozilla/5.0 (Windows NT 6.1; Win64; x64) AppleWebKit/537.36 (KHTML, like Gecko) Chrome/88.0.4324.104 Safari/537.36","","","","","","","","50,55,60,65,70","media/audio/stims/spherical_300cm_s20_c20_cd-full_matched_a50.wav","spherical","20","20","full","matched","50","65","1817"
"echo-presentation","133","1102537","0.0-133.0","5eb2d3b0d573b507df21626f","5fef55e628823a0076ec12ee","6018d20b0c29361d7daf9e50","Mozilla/5.0 (Windows NT 6.1; Win64; x64) AppleWebKit/537.36 (KHTML, like Gecko) Chrome/88.0.4324.104 Safari/537.36","","","","","","","","50,55,60,65,70","media/audio/stims/spherical_300cm_s20_c20_cd-full_matched_a60.wav","spherical","20","20","full","matched","60","65","3545"
"echo-presentation","134","1105979","0.0-134.0","5eb2d3b0d573b507df21626f","5fef55e628823a0076ec12ee","6018d20b0c29361d7daf9e50","Mozilla/5.0 (Windows NT 6.1; Win64; x64) AppleWebKit/537.36 (KHTML, like Gecko) Chrome/88.0.4324.104 Safari/537.36","","","","","","","","50,55,60,65,70","media/audio/stims/spherical_300cm_s20_c20_cd-full_matched_a70.wav","spherical","20","20","full","matched","70","60","1574"
"echo-presentation","135","1109080","0.0-135.0","5eb2d3b0d573b507df21626f","5fef55e628823a0076ec12ee","6018d20b0c29361d7daf9e50","Mozilla/5.0 (Windows NT 6.1; Win64; x64) AppleWebKit/537.36 (KHTML, like Gecko) Chrome/88.0.4324.104 Safari/537.36","","","","","","","","50,55,60,65,70","media/audio/stims/spherical_300cm_s20_c20_cd-full_matched_a55.wav","spherical","20","20","full","matched","55","65","1430"
"echo-presentation","136","1113129","0.0-136.0","5eb2d3b0d573b507df21626f","5fef55e628823a0076ec12ee","6018d20b0c29361d7daf9e50","Mozilla/5.0 (Windows NT 6.1; Win64; x64) AppleWebKit/537.36 (KHTML, like Gecko) Chrome/88.0.4324.104 Safari/537.36","","","","","","","","50,55,60,65,70","media/audio/stims/spherical_300cm_s20_c20_cd-full_matched_a60.wav","spherical","20","20","full","matched","60","60","2907"
"echo-presentation","137","1115793","0.0-137.0","5eb2d3b0d573b507df21626f","5fef55e628823a0076ec12ee","6018d20b0c29361d7daf9e50","Mozilla/5.0 (Windows NT 6.1; Win64; x64) AppleWebKit/537.36 (KHTML, like Gecko) Chrome/88.0.4324.104 Safari/537.36","","","","","","","","50,55,60,65,70","media/audio/stims/spherical_300cm_s20_c20_cd-full_matched_a60.wav","spherical","20","20","full","matched","60","65","1354"
"block-bookend","138","1118448","0.0-138.0","5eb2d3b0d573b507df21626f","5fef55e628823a0076ec12ee","6018d20b0c29361d7daf9e50","Mozilla/5.0 (Windows NT 6.1; Win64; x64) AppleWebKit/537.36 (KHTML, like Gecko) Chrome/88.0.4324.104 Safari/537.36","","","","","","","","","","","","","","","","",""
