"trial_type","trial_index","time_elapsed","internal_node_id","prolificPid","studyId","sessionId","userAgent","rt","stimulus","key_press","chosenKeyset","failureCount","testIndex","globalVolume","choices","filename","modelName","slowdown","compensation","compensationDescriptor","receiverOrientationType","azimuth","responseAzimuth","responseDelay"
"pavlovia","0","8","0.0-0.0","5f7f6ea18b9c4a117d887a3f","5fef55e628823a0076ec12ee","6018d21b4578361e1d69030b","Mozilla/5.0 (Windows NT 10.0; Win64; x64) AppleWebKit/537.36 (KHTML, like Gecko) Chrome/88.0.4324.96 Safari/537.36 Edg/88.0.705.56","","","","","","","","","","","","","","","","",""
"html-keyboard-response","1","2048","0.0-1.0","5f7f6ea18b9c4a117d887a3f","5fef55e628823a0076ec12ee","6018d21b4578361e1d69030b","Mozilla/5.0 (Windows NT 10.0; Win64; x64) AppleWebKit/537.36 (KHTML, like Gecko) Chrome/88.0.4324.96 Safari/537.36 Edg/88.0.705.56","2038.0549999972573","<div><h1>Welcome!</h1><p>Press any key to continue.</p></div>","32","","","","","","","","","","","","","",""
"consent-form","2","83947","0.0-2.0","5f7f6ea18b9c4a117d887a3f","5fef55e628823a0076ec12ee","6018d21b4578361e1d69030b","Mozilla/5.0 (Windows NT 10.0; Win64; x64) AppleWebKit/537.36 (KHTML, like Gecko) Chrome/88.0.4324.96 Safari/537.36 Edg/88.0.705.56","","","","","","","","","","","","","","","","",""
"keyset-select","3","133243","0.0-3.0","5f7f6ea18b9c4a117d887a3f","5fef55e628823a0076ec12ee","6018d21b4578361e1d69030b","Mozilla/5.0 (Windows NT 10.0; Win64; x64) AppleWebKit/537.36 (KHTML, like Gecko) Chrome/88.0.4324.96 Safari/537.36 Edg/88.0.705.56","","","","left-hand","","","","","","","","","","","","",""
"headphone-check","4","205771","0.0-4.0","5f7f6ea18b9c4a117d887a3f","5fef55e628823a0076ec12ee","6018d21b4578361e1d69030b","Mozilla/5.0 (Windows NT 10.0; Win64; x64) AppleWebKit/537.36 (KHTML, like Gecko) Chrome/88.0.4324.96 Safari/537.36 Edg/88.0.705.56","","","","","0","6","0.7","","","","","","","","","",""
"headphone-backwards-check","5","215908","0.0-5.0","5f7f6ea18b9c4a117d887a3f","5fef55e628823a0076ec12ee","6018d21b4578361e1d69030b","Mozilla/5.0 (Windows NT 10.0; Win64; x64) AppleWebKit/537.36 (KHTML, like Gecko) Chrome/88.0.4324.96 Safari/537.36 Edg/88.0.705.56","","","","","0","","","","","","","","","","","",""
"training","6","402139","0.0-6.0","5f7f6ea18b9c4a117d887a3f","5fef55e628823a0076ec12ee","6018d21b4578361e1d69030b","Mozilla/5.0 (Windows NT 10.0; Win64; x64) AppleWebKit/537.36 (KHTML, like Gecko) Chrome/88.0.4324.96 Safari/537.36 Edg/88.0.705.56","","","","","","","","","","","","","","","","",""
"block-bookend","7","421387","0.0-7.0","5f7f6ea18b9c4a117d887a3f","5fef55e628823a0076ec12ee","6018d21b4578361e1d69030b","Mozilla/5.0 (Windows NT 10.0; Win64; x64) AppleWebKit/537.36 (KHTML, like Gecko) Chrome/88.0.4324.96 Safari/537.36 Edg/88.0.705.56","","","","","","","","","","","","","","","","",""
"echo-presentation","8","440473","0.0-8.0","5f7f6ea18b9c4a117d887a3f","5fef55e628823a0076ec12ee","6018d21b4578361e1d69030b","Mozilla/5.0 (Windows NT 10.0; Win64; x64) AppleWebKit/537.36 (KHTML, like Gecko) Chrome/88.0.4324.96 Safari/537.36 Edg/88.0.705.56","","","","","","","","50,55,60,65,70","media/audio/stims/spherical_300cm_s20_c20_cd-full_matched_a65.wav","spherical","20","20","full","matched","65","65","15093"
"echo-presentation","9","445725","0.0-9.0","5f7f6ea18b9c4a117d887a3f","5fef55e628823a0076ec12ee","6018d21b4578361e1d69030b","Mozilla/5.0 (Windows NT 10.0; Win64; x64) AppleWebKit/537.36 (KHTML, like Gecko) Chrome/88.0.4324.96 Safari/537.36 Edg/88.0.705.56","","","","","","","","50,55,60,65,70","media/audio/stims/spherical_300cm_s20_c20_cd-full_matched_a50.wav","spherical","20","20","full","matched","50","65","2927"
"echo-presentation","10","452060","0.0-10.0","5f7f6ea18b9c4a117d887a3f","5fef55e628823a0076ec12ee","6018d21b4578361e1d69030b","Mozilla/5.0 (Windows NT 10.0; Win64; x64) AppleWebKit/537.36 (KHTML, like Gecko) Chrome/88.0.4324.96 Safari/537.36 Edg/88.0.705.56","","","","","","","","50,55,60,65,70","media/audio/stims/spherical_300cm_s20_c20_cd-full_matched_a60.wav","spherical","20","20","full","matched","60","65","4205"
"echo-presentation","11","457571","0.0-11.0","5f7f6ea18b9c4a117d887a3f","5fef55e628823a0076ec12ee","6018d21b4578361e1d69030b","Mozilla/5.0 (Windows NT 10.0; Win64; x64) AppleWebKit/537.36 (KHTML, like Gecko) Chrome/88.0.4324.96 Safari/537.36 Edg/88.0.705.56","","","","","","","","50,55,60,65,70","media/audio/stims/spherical_300cm_s20_c20_cd-full_matched_a55.wav","spherical","20","20","full","matched","55","65","3899"
"echo-presentation","12","462631","0.0-12.0","5f7f6ea18b9c4a117d887a3f","5fef55e628823a0076ec12ee","6018d21b4578361e1d69030b","Mozilla/5.0 (Windows NT 10.0; Win64; x64) AppleWebKit/537.36 (KHTML, like Gecko) Chrome/88.0.4324.96 Safari/537.36 Edg/88.0.705.56","","","","","","","","50,55,60,65,70","media/audio/stims/spherical_300cm_s20_c20_cd-full_matched_a70.wav","spherical","20","20","full","matched","70","65","3433"
"echo-presentation","13","467343","0.0-13.0","5f7f6ea18b9c4a117d887a3f","5fef55e628823a0076ec12ee","6018d21b4578361e1d69030b","Mozilla/5.0 (Windows NT 10.0; Win64; x64) AppleWebKit/537.36 (KHTML, like Gecko) Chrome/88.0.4324.96 Safari/537.36 Edg/88.0.705.56","","","","","","","","50,55,60,65,70","media/audio/stims/spherical_300cm_s20_c20_cd-full_matched_a65.wav","spherical","20","20","full","matched","65","65","2881"
"echo-presentation","14","472973","0.0-14.0","5f7f6ea18b9c4a117d887a3f","5fef55e628823a0076ec12ee","6018d21b4578361e1d69030b","Mozilla/5.0 (Windows NT 10.0; Win64; x64) AppleWebKit/537.36 (KHTML, like Gecko) Chrome/88.0.4324.96 Safari/537.36 Edg/88.0.705.56","","","","","","","","50,55,60,65,70","media/audio/stims/spherical_300cm_s20_c20_cd-full_matched_a60.wav","spherical","20","20","full","matched","60","65","2981"
"echo-presentation","15","476833","0.0-15.0","5f7f6ea18b9c4a117d887a3f","5fef55e628823a0076ec12ee","6018d21b4578361e1d69030b","Mozilla/5.0 (Windows NT 10.0; Win64; x64) AppleWebKit/537.36 (KHTML, like Gecko) Chrome/88.0.4324.96 Safari/537.36 Edg/88.0.705.56","","","","","","","","50,55,60,65,70","media/audio/stims/spherical_300cm_s20_c20_cd-full_matched_a70.wav","spherical","20","20","full","matched","70","65","1874"
"echo-presentation","16","486051","0.0-16.0","5f7f6ea18b9c4a117d887a3f","5fef55e628823a0076ec12ee","6018d21b4578361e1d69030b","Mozilla/5.0 (Windows NT 10.0; Win64; x64) AppleWebKit/537.36 (KHTML, like Gecko) Chrome/88.0.4324.96 Safari/537.36 Edg/88.0.705.56","","","","","","","","50,55,60,65,70","media/audio/stims/spherical_300cm_s20_c20_cd-full_matched_a60.wav","spherical","20","20","full","matched","60","65","7552"
"echo-presentation","17","491195","0.0-17.0","5f7f6ea18b9c4a117d887a3f","5fef55e628823a0076ec12ee","6018d21b4578361e1d69030b","Mozilla/5.0 (Windows NT 10.0; Win64; x64) AppleWebKit/537.36 (KHTML, like Gecko) Chrome/88.0.4324.96 Safari/537.36 Edg/88.0.705.56","","","","","","","","50,55,60,65,70","media/audio/stims/spherical_300cm_s20_c20_cd-full_matched_a65.wav","spherical","20","20","full","matched","65","65","3156"
"echo-presentation","18","495056","0.0-18.0","5f7f6ea18b9c4a117d887a3f","5fef55e628823a0076ec12ee","6018d21b4578361e1d69030b","Mozilla/5.0 (Windows NT 10.0; Win64; x64) AppleWebKit/537.36 (KHTML, like Gecko) Chrome/88.0.4324.96 Safari/537.36 Edg/88.0.705.56","","","","","","","","50,55,60,65,70","media/audio/stims/spherical_300cm_s20_c20_cd-full_matched_a50.wav","spherical","20","20","full","matched","50","65","2603"
"echo-presentation","19","499731","0.0-19.0","5f7f6ea18b9c4a117d887a3f","5fef55e628823a0076ec12ee","6018d21b4578361e1d69030b","Mozilla/5.0 (Windows NT 10.0; Win64; x64) AppleWebKit/537.36 (KHTML, like Gecko) Chrome/88.0.4324.96 Safari/537.36 Edg/88.0.705.56","","","","","","","","50,55,60,65,70","media/audio/stims/spherical_300cm_s20_c20_cd-full_matched_a50.wav","spherical","20","20","full","matched","50","65","2983"
"echo-presentation","20","504095","0.0-20.0","5f7f6ea18b9c4a117d887a3f","5fef55e628823a0076ec12ee","6018d21b4578361e1d69030b","Mozilla/5.0 (Windows NT 10.0; Win64; x64) AppleWebKit/537.36 (KHTML, like Gecko) Chrome/88.0.4324.96 Safari/537.36 Edg/88.0.705.56","","","","","","","","50,55,60,65,70","media/audio/stims/spherical_300cm_s20_c20_cd-full_matched_a70.wav","spherical","20","20","full","matched","70","65","3155"
"echo-presentation","21","513417","0.0-21.0","5f7f6ea18b9c4a117d887a3f","5fef55e628823a0076ec12ee","6018d21b4578361e1d69030b","Mozilla/5.0 (Windows NT 10.0; Win64; x64) AppleWebKit/537.36 (KHTML, like Gecko) Chrome/88.0.4324.96 Safari/537.36 Edg/88.0.705.56","","","","","","","","50,55,60,65,70","media/audio/stims/spherical_300cm_s20_c20_cd-full_matched_a70.wav","spherical","20","20","full","matched","70","65","7831"
"echo-presentation","22","516874","0.0-22.0","5f7f6ea18b9c4a117d887a3f","5fef55e628823a0076ec12ee","6018d21b4578361e1d69030b","Mozilla/5.0 (Windows NT 10.0; Win64; x64) AppleWebKit/537.36 (KHTML, like Gecko) Chrome/88.0.4324.96 Safari/537.36 Edg/88.0.705.56","","","","","","","","50,55,60,65,70","media/audio/stims/spherical_300cm_s20_c20_cd-full_matched_a55.wav","spherical","20","20","full","matched","55","70","1956"
"echo-presentation","23","522276","0.0-23.0","5f7f6ea18b9c4a117d887a3f","5fef55e628823a0076ec12ee","6018d21b4578361e1d69030b","Mozilla/5.0 (Windows NT 10.0; Win64; x64) AppleWebKit/537.36 (KHTML, like Gecko) Chrome/88.0.4324.96 Safari/537.36 Edg/88.0.705.56","","","","","","","","50,55,60,65,70","media/audio/stims/spherical_300cm_s20_c20_cd-full_matched_a50.wav","spherical","20","20","full","matched","50","70","2553"
"echo-presentation","24","528859","0.0-24.0","5f7f6ea18b9c4a117d887a3f","5fef55e628823a0076ec12ee","6018d21b4578361e1d69030b","Mozilla/5.0 (Windows NT 10.0; Win64; x64) AppleWebKit/537.36 (KHTML, like Gecko) Chrome/88.0.4324.96 Safari/537.36 Edg/88.0.705.56","","","","","","","","50,55,60,65,70","media/audio/stims/spherical_300cm_s20_c20_cd-full_matched_a65.wav","spherical","20","20","full","matched","65","70","5130"
"echo-presentation","25","536174","0.0-25.0","5f7f6ea18b9c4a117d887a3f","5fef55e628823a0076ec12ee","6018d21b4578361e1d69030b","Mozilla/5.0 (Windows NT 10.0; Win64; x64) AppleWebKit/537.36 (KHTML, like Gecko) Chrome/88.0.4324.96 Safari/537.36 Edg/88.0.705.56","","","","","","","","50,55,60,65,70","media/audio/stims/spherical_300cm_s20_c20_cd-full_matched_a55.wav","spherical","20","20","full","matched","55","65","5616"
"echo-presentation","26","546743","0.0-26.0","5f7f6ea18b9c4a117d887a3f","5fef55e628823a0076ec12ee","6018d21b4578361e1d69030b","Mozilla/5.0 (Windows NT 10.0; Win64; x64) AppleWebKit/537.36 (KHTML, like Gecko) Chrome/88.0.4324.96 Safari/537.36 Edg/88.0.705.56","","","","","","","","50,55,60,65,70","media/audio/stims/spherical_300cm_s20_c20_cd-full_matched_a60.wav","spherical","20","20","full","matched","60","65","8787"
"echo-presentation","27","550960","0.0-27.0","5f7f6ea18b9c4a117d887a3f","5fef55e628823a0076ec12ee","6018d21b4578361e1d69030b","Mozilla/5.0 (Windows NT 10.0; Win64; x64) AppleWebKit/537.36 (KHTML, like Gecko) Chrome/88.0.4324.96 Safari/537.36 Edg/88.0.705.56","","","","","","","","50,55,60,65,70","media/audio/stims/spherical_300cm_s20_c20_cd-full_matched_a55.wav","spherical","20","20","full","matched","55","65","2588"
"block-bookend","28","555588","0.0-28.0","5f7f6ea18b9c4a117d887a3f","5fef55e628823a0076ec12ee","6018d21b4578361e1d69030b","Mozilla/5.0 (Windows NT 10.0; Win64; x64) AppleWebKit/537.36 (KHTML, like Gecko) Chrome/88.0.4324.96 Safari/537.36 Edg/88.0.705.56","","","","","","","","","","","","","","","","",""
"block-bookend","29","590316","0.0-29.0","5f7f6ea18b9c4a117d887a3f","5fef55e628823a0076ec12ee","6018d21b4578361e1d69030b","Mozilla/5.0 (Windows NT 10.0; Win64; x64) AppleWebKit/537.36 (KHTML, like Gecko) Chrome/88.0.4324.96 Safari/537.36 Edg/88.0.705.56","","","","","","","","","","","","","","","","",""
"echo-presentation","30","598660","0.0-30.0","5f7f6ea18b9c4a117d887a3f","5fef55e628823a0076ec12ee","6018d21b4578361e1d69030b","Mozilla/5.0 (Windows NT 10.0; Win64; x64) AppleWebKit/537.36 (KHTML, like Gecko) Chrome/88.0.4324.96 Safari/537.36 Edg/88.0.705.56","","","","","","","","-10,-5,0,5,10","media/audio/stims/spherical_300cm_s20_c20_cd-full_matched_a0.wav","spherical","20","20","full","matched","0","0","5557"
"echo-presentation","31","603534","0.0-31.0","5f7f6ea18b9c4a117d887a3f","5fef55e628823a0076ec12ee","6018d21b4578361e1d69030b","Mozilla/5.0 (Windows NT 10.0; Win64; x64) AppleWebKit/537.36 (KHTML, like Gecko) Chrome/88.0.4324.96 Safari/537.36 Edg/88.0.705.56","","","","","","","","-10,-5,0,5,10","media/audio/stims/spherical_300cm_s20_c20_cd-full_matched_a-5.wav","spherical","20","20","full","matched","-5","0","3111"
"echo-presentation","32","610708","0.0-32.0","5f7f6ea18b9c4a117d887a3f","5fef55e628823a0076ec12ee","6018d21b4578361e1d69030b","Mozilla/5.0 (Windows NT 10.0; Win64; x64) AppleWebKit/537.36 (KHTML, like Gecko) Chrome/88.0.4324.96 Safari/537.36 Edg/88.0.705.56","","","","","","","","-10,-5,0,5,10","media/audio/stims/spherical_300cm_s20_c20_cd-full_matched_a-10.wav","spherical","20","20","full","matched","-10","0","5890"
"echo-presentation","33","619225","0.0-33.0","5f7f6ea18b9c4a117d887a3f","5fef55e628823a0076ec12ee","6018d21b4578361e1d69030b","Mozilla/5.0 (Windows NT 10.0; Win64; x64) AppleWebKit/537.36 (KHTML, like Gecko) Chrome/88.0.4324.96 Safari/537.36 Edg/88.0.705.56","","","","","","","","-10,-5,0,5,10","media/audio/stims/spherical_300cm_s20_c20_cd-full_matched_a-5.wav","spherical","20","20","full","matched","-5","-5","6695"
"echo-presentation","34","622624","0.0-34.0","5f7f6ea18b9c4a117d887a3f","5fef55e628823a0076ec12ee","6018d21b4578361e1d69030b","Mozilla/5.0 (Windows NT 10.0; Win64; x64) AppleWebKit/537.36 (KHTML, like Gecko) Chrome/88.0.4324.96 Safari/537.36 Edg/88.0.705.56","","","","","","","","-10,-5,0,5,10","media/audio/stims/spherical_300cm_s20_c20_cd-full_matched_a0.wav","spherical","20","20","full","matched","0","0","1543"
"echo-presentation","35","627688","0.0-35.0","5f7f6ea18b9c4a117d887a3f","5fef55e628823a0076ec12ee","6018d21b4578361e1d69030b","Mozilla/5.0 (Windows NT 10.0; Win64; x64) AppleWebKit/537.36 (KHTML, like Gecko) Chrome/88.0.4324.96 Safari/537.36 Edg/88.0.705.56","","","","","","","","-10,-5,0,5,10","media/audio/stims/spherical_300cm_s20_c20_cd-full_matched_a-10.wav","spherical","20","20","full","matched","-10","0","3647"
"echo-presentation","36","632971","0.0-36.0","5f7f6ea18b9c4a117d887a3f","5fef55e628823a0076ec12ee","6018d21b4578361e1d69030b","Mozilla/5.0 (Windows NT 10.0; Win64; x64) AppleWebKit/537.36 (KHTML, like Gecko) Chrome/88.0.4324.96 Safari/537.36 Edg/88.0.705.56","","","","","","","","-10,-5,0,5,10","media/audio/stims/spherical_300cm_s20_c20_cd-full_matched_a10.wav","spherical","20","20","full","matched","10","5","3529"
"echo-presentation","37","637076","0.0-37.0","5f7f6ea18b9c4a117d887a3f","5fef55e628823a0076ec12ee","6018d21b4578361e1d69030b","Mozilla/5.0 (Windows NT 10.0; Win64; x64) AppleWebKit/537.36 (KHTML, like Gecko) Chrome/88.0.4324.96 Safari/537.36 Edg/88.0.705.56","","","","","","","","-10,-5,0,5,10","media/audio/stims/spherical_300cm_s20_c20_cd-full_matched_a5.wav","spherical","20","20","full","matched","5","0","2255"
"echo-presentation","38","641169","0.0-38.0","5f7f6ea18b9c4a117d887a3f","5fef55e628823a0076ec12ee","6018d21b4578361e1d69030b","Mozilla/5.0 (Windows NT 10.0; Win64; x64) AppleWebKit/537.36 (KHTML, like Gecko) Chrome/88.0.4324.96 Safari/537.36 Edg/88.0.705.56","","","","","","","","-10,-5,0,5,10","media/audio/stims/spherical_300cm_s20_c20_cd-full_matched_a-10.wav","spherical","20","20","full","matched","-10","0","2106"
"echo-presentation","39","644083","0.0-39.0","5f7f6ea18b9c4a117d887a3f","5fef55e628823a0076ec12ee","6018d21b4578361e1d69030b","Mozilla/5.0 (Windows NT 10.0; Win64; x64) AppleWebKit/537.36 (KHTML, like Gecko) Chrome/88.0.4324.96 Safari/537.36 Edg/88.0.705.56","","","","","","","","-10,-5,0,5,10","media/audio/stims/spherical_300cm_s20_c20_cd-full_matched_a-5.wav","spherical","20","20","full","matched","-5","0","1415"
"echo-presentation","40","648029","0.0-40.0","5f7f6ea18b9c4a117d887a3f","5fef55e628823a0076ec12ee","6018d21b4578361e1d69030b","Mozilla/5.0 (Windows NT 10.0; Win64; x64) AppleWebKit/537.36 (KHTML, like Gecko) Chrome/88.0.4324.96 Safari/537.36 Edg/88.0.705.56","","","","","","","","-10,-5,0,5,10","media/audio/stims/spherical_300cm_s20_c20_cd-full_matched_a10.wav","spherical","20","20","full","matched","10","0","2160"
"echo-presentation","41","651372","0.0-41.0","5f7f6ea18b9c4a117d887a3f","5fef55e628823a0076ec12ee","6018d21b4578361e1d69030b","Mozilla/5.0 (Windows NT 10.0; Win64; x64) AppleWebKit/537.36 (KHTML, like Gecko) Chrome/88.0.4324.96 Safari/537.36 Edg/88.0.705.56","","","","","","","","-10,-5,0,5,10","media/audio/stims/spherical_300cm_s20_c20_cd-full_matched_a5.wav","spherical","20","20","full","matched","5","0","1590"
"echo-presentation","42","657314","0.0-42.0","5f7f6ea18b9c4a117d887a3f","5fef55e628823a0076ec12ee","6018d21b4578361e1d69030b","Mozilla/5.0 (Windows NT 10.0; Win64; x64) AppleWebKit/537.36 (KHTML, like Gecko) Chrome/88.0.4324.96 Safari/537.36 Edg/88.0.705.56","","","","","","","","-10,-5,0,5,10","media/audio/stims/spherical_300cm_s20_c20_cd-full_matched_a10.wav","spherical","20","20","full","matched","10","5","4089"
"echo-presentation","43","662003","0.0-43.0","5f7f6ea18b9c4a117d887a3f","5fef55e628823a0076ec12ee","6018d21b4578361e1d69030b","Mozilla/5.0 (Windows NT 10.0; Win64; x64) AppleWebKit/537.36 (KHTML, like Gecko) Chrome/88.0.4324.96 Safari/537.36 Edg/88.0.705.56","","","","","","","","-10,-5,0,5,10","media/audio/stims/spherical_300cm_s20_c20_cd-full_matched_a-10.wav","spherical","20","20","full","matched","-10","5","3062"
"echo-presentation","44","664655","0.0-44.0","5f7f6ea18b9c4a117d887a3f","5fef55e628823a0076ec12ee","6018d21b4578361e1d69030b","Mozilla/5.0 (Windows NT 10.0; Win64; x64) AppleWebKit/537.36 (KHTML, like Gecko) Chrome/88.0.4324.96 Safari/537.36 Edg/88.0.705.56","","","","","","","","-10,-5,0,5,10","media/audio/stims/spherical_300cm_s20_c20_cd-full_matched_a10.wav","spherical","20","20","full","matched","10","0","1344"
"echo-presentation","45","667350","0.0-45.0","5f7f6ea18b9c4a117d887a3f","5fef55e628823a0076ec12ee","6018d21b4578361e1d69030b","Mozilla/5.0 (Windows NT 10.0; Win64; x64) AppleWebKit/537.36 (KHTML, like Gecko) Chrome/88.0.4324.96 Safari/537.36 Edg/88.0.705.56","","","","","","","","-10,-5,0,5,10","media/audio/stims/spherical_300cm_s20_c20_cd-full_matched_a-5.wav","spherical","20","20","full","matched","-5","0","1351"
"echo-presentation","46","670498","0.0-46.0","5f7f6ea18b9c4a117d887a3f","5fef55e628823a0076ec12ee","6018d21b4578361e1d69030b","Mozilla/5.0 (Windows NT 10.0; Win64; x64) AppleWebKit/537.36 (KHTML, like Gecko) Chrome/88.0.4324.96 Safari/537.36 Edg/88.0.705.56","","","","","","","","-10,-5,0,5,10","media/audio/stims/spherical_300cm_s20_c20_cd-full_matched_a5.wav","spherical","20","20","full","matched","5","0","1657"
"echo-presentation","47","673194","0.0-47.0","5f7f6ea18b9c4a117d887a3f","5fef55e628823a0076ec12ee","6018d21b4578361e1d69030b","Mozilla/5.0 (Windows NT 10.0; Win64; x64) AppleWebKit/537.36 (KHTML, like Gecko) Chrome/88.0.4324.96 Safari/537.36 Edg/88.0.705.56","","","","","","","","-10,-5,0,5,10","media/audio/stims/spherical_300cm_s20_c20_cd-full_matched_a0.wav","spherical","20","20","full","matched","0","0","1461"
"echo-presentation","48","675873","0.0-48.0","5f7f6ea18b9c4a117d887a3f","5fef55e628823a0076ec12ee","6018d21b4578361e1d69030b","Mozilla/5.0 (Windows NT 10.0; Win64; x64) AppleWebKit/537.36 (KHTML, like Gecko) Chrome/88.0.4324.96 Safari/537.36 Edg/88.0.705.56","","","","","","","","-10,-5,0,5,10","media/audio/stims/spherical_300cm_s20_c20_cd-full_matched_a5.wav","spherical","20","20","full","matched","5","0","1372"
"echo-presentation","49","679000","0.0-49.0","5f7f6ea18b9c4a117d887a3f","5fef55e628823a0076ec12ee","6018d21b4578361e1d69030b","Mozilla/5.0 (Windows NT 10.0; Win64; x64) AppleWebKit/537.36 (KHTML, like Gecko) Chrome/88.0.4324.96 Safari/537.36 Edg/88.0.705.56","","","","","","","","-10,-5,0,5,10","media/audio/stims/spherical_300cm_s20_c20_cd-full_matched_a0.wav","spherical","20","20","full","matched","0","0","1817"
"block-bookend","50","681696","0.0-50.0","5f7f6ea18b9c4a117d887a3f","5fef55e628823a0076ec12ee","6018d21b4578361e1d69030b","Mozilla/5.0 (Windows NT 10.0; Win64; x64) AppleWebKit/537.36 (KHTML, like Gecko) Chrome/88.0.4324.96 Safari/537.36 Edg/88.0.705.56","","","","","","","","","","","","","","","","",""
"block-bookend","51","703625","0.0-51.0","5f7f6ea18b9c4a117d887a3f","5fef55e628823a0076ec12ee","6018d21b4578361e1d69030b","Mozilla/5.0 (Windows NT 10.0; Win64; x64) AppleWebKit/537.36 (KHTML, like Gecko) Chrome/88.0.4324.96 Safari/537.36 Edg/88.0.705.56","","","","","","","","","","","","","","","","",""
"echo-presentation","52","713152","0.0-52.0","5f7f6ea18b9c4a117d887a3f","5fef55e628823a0076ec12ee","6018d21b4578361e1d69030b","Mozilla/5.0 (Windows NT 10.0; Win64; x64) AppleWebKit/537.36 (KHTML, like Gecko) Chrome/88.0.4324.96 Safari/537.36 Edg/88.0.705.56","","","","","","","","-70,-65,-60,-55,-50","media/audio/stims/spherical_300cm_s20_c20_cd-full_matched_a-70.wav","spherical","20","20","full","matched","-70","-65","7479"
"echo-presentation","53","718915","0.0-53.0","5f7f6ea18b9c4a117d887a3f","5fef55e628823a0076ec12ee","6018d21b4578361e1d69030b","Mozilla/5.0 (Windows NT 10.0; Win64; x64) AppleWebKit/537.36 (KHTML, like Gecko) Chrome/88.0.4324.96 Safari/537.36 Edg/88.0.705.56","","","","","","","","-70,-65,-60,-55,-50","media/audio/stims/spherical_300cm_s20_c20_cd-full_matched_a-70.wav","spherical","20","20","full","matched","-70","-65","4457"
"echo-presentation","54","727515","0.0-54.0","5f7f6ea18b9c4a117d887a3f","5fef55e628823a0076ec12ee","6018d21b4578361e1d69030b","Mozilla/5.0 (Windows NT 10.0; Win64; x64) AppleWebKit/537.36 (KHTML, like Gecko) Chrome/88.0.4324.96 Safari/537.36 Edg/88.0.705.56","","","","","","","","-70,-65,-60,-55,-50","media/audio/stims/spherical_300cm_s20_c20_cd-full_matched_a-70.wav","spherical","20","20","full","matched","-70","-65","6851"
"echo-presentation","55","735823","0.0-55.0","5f7f6ea18b9c4a117d887a3f","5fef55e628823a0076ec12ee","6018d21b4578361e1d69030b","Mozilla/5.0 (Windows NT 10.0; Win64; x64) AppleWebKit/537.36 (KHTML, like Gecko) Chrome/88.0.4324.96 Safari/537.36 Edg/88.0.705.56","","","","","","","","-70,-65,-60,-55,-50","media/audio/stims/spherical_300cm_s20_c20_cd-full_matched_a-65.wav","spherical","20","20","full","matched","-65","-60","6688"
"echo-presentation","56","740512","0.0-56.0","5f7f6ea18b9c4a117d887a3f","5fef55e628823a0076ec12ee","6018d21b4578361e1d69030b","Mozilla/5.0 (Windows NT 10.0; Win64; x64) AppleWebKit/537.36 (KHTML, like Gecko) Chrome/88.0.4324.96 Safari/537.36 Edg/88.0.705.56","","","","","","","","-70,-65,-60,-55,-50","media/audio/stims/spherical_300cm_s20_c20_cd-full_matched_a-60.wav","spherical","20","20","full","matched","-60","-50","3017"
"echo-presentation","57","744357","0.0-57.0","5f7f6ea18b9c4a117d887a3f","5fef55e628823a0076ec12ee","6018d21b4578361e1d69030b","Mozilla/5.0 (Windows NT 10.0; Win64; x64) AppleWebKit/537.36 (KHTML, like Gecko) Chrome/88.0.4324.96 Safari/537.36 Edg/88.0.705.56","","","","","","","","-70,-65,-60,-55,-50","media/audio/stims/spherical_300cm_s20_c20_cd-full_matched_a-55.wav","spherical","20","20","full","matched","-55","-50","2624"
"echo-presentation","58","748518","0.0-58.0","5f7f6ea18b9c4a117d887a3f","5fef55e628823a0076ec12ee","6018d21b4578361e1d69030b","Mozilla/5.0 (Windows NT 10.0; Win64; x64) AppleWebKit/537.36 (KHTML, like Gecko) Chrome/88.0.4324.96 Safari/537.36 Edg/88.0.705.56","","","","","","","","-70,-65,-60,-55,-50","media/audio/stims/spherical_300cm_s20_c20_cd-full_matched_a-55.wav","spherical","20","20","full","matched","-55","-50","2342"
"echo-presentation","59","753299","0.0-59.0","5f7f6ea18b9c4a117d887a3f","5fef55e628823a0076ec12ee","6018d21b4578361e1d69030b","Mozilla/5.0 (Windows NT 10.0; Win64; x64) AppleWebKit/537.36 (KHTML, like Gecko) Chrome/88.0.4324.96 Safari/537.36 Edg/88.0.705.56","","","","","","","","-70,-65,-60,-55,-50","media/audio/stims/spherical_300cm_s20_c20_cd-full_matched_a-60.wav","spherical","20","20","full","matched","-60","-50","3604"
"echo-presentation","60","759376","0.0-60.0","5f7f6ea18b9c4a117d887a3f","5fef55e628823a0076ec12ee","6018d21b4578361e1d69030b","Mozilla/5.0 (Windows NT 10.0; Win64; x64) AppleWebKit/537.36 (KHTML, like Gecko) Chrome/88.0.4324.96 Safari/537.36 Edg/88.0.705.56","","","","","","","","-70,-65,-60,-55,-50","media/audio/stims/spherical_300cm_s20_c20_cd-full_matched_a-65.wav","spherical","20","20","full","matched","-65","-65","4942"
"echo-presentation","61","765452","0.0-61.0","5f7f6ea18b9c4a117d887a3f","5fef55e628823a0076ec12ee","6018d21b4578361e1d69030b","Mozilla/5.0 (Windows NT 10.0; Win64; x64) AppleWebKit/537.36 (KHTML, like Gecko) Chrome/88.0.4324.96 Safari/537.36 Edg/88.0.705.56","","","","","","","","-70,-65,-60,-55,-50","media/audio/stims/spherical_300cm_s20_c20_cd-full_matched_a-50.wav","spherical","20","20","full","matched","-50","-65","4613"
"echo-presentation","62","768774","0.0-62.0","5f7f6ea18b9c4a117d887a3f","5fef55e628823a0076ec12ee","6018d21b4578361e1d69030b","Mozilla/5.0 (Windows NT 10.0; Win64; x64) AppleWebKit/537.36 (KHTML, like Gecko) Chrome/88.0.4324.96 Safari/537.36 Edg/88.0.705.56","","","","","","","","-70,-65,-60,-55,-50","media/audio/stims/spherical_300cm_s20_c20_cd-full_matched_a-70.wav","spherical","20","20","full","matched","-70","-70","1989"
"echo-presentation","63","771408","0.0-63.0","5f7f6ea18b9c4a117d887a3f","5fef55e628823a0076ec12ee","6018d21b4578361e1d69030b","Mozilla/5.0 (Windows NT 10.0; Win64; x64) AppleWebKit/537.36 (KHTML, like Gecko) Chrome/88.0.4324.96 Safari/537.36 Edg/88.0.705.56","","","","","","","","-70,-65,-60,-55,-50","media/audio/stims/spherical_300cm_s20_c20_cd-full_matched_a-65.wav","spherical","20","20","full","matched","-65","-65","1612"
"echo-presentation","64","774994","0.0-64.0","5f7f6ea18b9c4a117d887a3f","5fef55e628823a0076ec12ee","6018d21b4578361e1d69030b","Mozilla/5.0 (Windows NT 10.0; Win64; x64) AppleWebKit/537.36 (KHTML, like Gecko) Chrome/88.0.4324.96 Safari/537.36 Edg/88.0.705.56","","","","","","","","-70,-65,-60,-55,-50","media/audio/stims/spherical_300cm_s20_c20_cd-full_matched_a-55.wav","spherical","20","20","full","matched","-55","-65","2495"
"echo-presentation","65","777216","0.0-65.0","5f7f6ea18b9c4a117d887a3f","5fef55e628823a0076ec12ee","6018d21b4578361e1d69030b","Mozilla/5.0 (Windows NT 10.0; Win64; x64) AppleWebKit/537.36 (KHTML, like Gecko) Chrome/88.0.4324.96 Safari/537.36 Edg/88.0.705.56","","","","","","","","-70,-65,-60,-55,-50","media/audio/stims/spherical_300cm_s20_c20_cd-full_matched_a-50.wav","spherical","20","20","full","matched","-50","-60","1124"
"echo-presentation","66","779582","0.0-66.0","5f7f6ea18b9c4a117d887a3f","5fef55e628823a0076ec12ee","6018d21b4578361e1d69030b","Mozilla/5.0 (Windows NT 10.0; Win64; x64) AppleWebKit/537.36 (KHTML, like Gecko) Chrome/88.0.4324.96 Safari/537.36 Edg/88.0.705.56","","","","","","","","-70,-65,-60,-55,-50","media/audio/stims/spherical_300cm_s20_c20_cd-full_matched_a-50.wav","spherical","20","20","full","matched","-50","-65","1162"
"echo-presentation","67","783574","0.0-67.0","5f7f6ea18b9c4a117d887a3f","5fef55e628823a0076ec12ee","6018d21b4578361e1d69030b","Mozilla/5.0 (Windows NT 10.0; Win64; x64) AppleWebKit/537.36 (KHTML, like Gecko) Chrome/88.0.4324.96 Safari/537.36 Edg/88.0.705.56","","","","","","","","-70,-65,-60,-55,-50","media/audio/stims/spherical_300cm_s20_c20_cd-full_matched_a-55.wav","spherical","20","20","full","matched","-55","-65","1325"
"echo-presentation","68","786649","0.0-68.0","5f7f6ea18b9c4a117d887a3f","5fef55e628823a0076ec12ee","6018d21b4578361e1d69030b","Mozilla/5.0 (Windows NT 10.0; Win64; x64) AppleWebKit/537.36 (KHTML, like Gecko) Chrome/88.0.4324.96 Safari/537.36 Edg/88.0.705.56","","","","","","","","-70,-65,-60,-55,-50","media/audio/stims/spherical_300cm_s20_c20_cd-full_matched_a-60.wav","spherical","20","20","full","matched","-60","-65","1182"
"echo-presentation","69","790303","0.0-69.0","5f7f6ea18b9c4a117d887a3f","5fef55e628823a0076ec12ee","6018d21b4578361e1d69030b","Mozilla/5.0 (Windows NT 10.0; Win64; x64) AppleWebKit/537.36 (KHTML, like Gecko) Chrome/88.0.4324.96 Safari/537.36 Edg/88.0.705.56","","","","","","","","-70,-65,-60,-55,-50","media/audio/stims/spherical_300cm_s20_c20_cd-full_matched_a-65.wav","spherical","20","20","full","matched","-65","-65","2483"
"echo-presentation","70","793213","0.0-70.0","5f7f6ea18b9c4a117d887a3f","5fef55e628823a0076ec12ee","6018d21b4578361e1d69030b","Mozilla/5.0 (Windows NT 10.0; Win64; x64) AppleWebKit/537.36 (KHTML, like Gecko) Chrome/88.0.4324.96 Safari/537.36 Edg/88.0.705.56","","","","","","","","-70,-65,-60,-55,-50","media/audio/stims/spherical_300cm_s20_c20_cd-full_matched_a-60.wav","spherical","20","20","full","matched","-60","-65","1654"
"echo-presentation","71","796164","0.0-71.0","5f7f6ea18b9c4a117d887a3f","5fef55e628823a0076ec12ee","6018d21b4578361e1d69030b","Mozilla/5.0 (Windows NT 10.0; Win64; x64) AppleWebKit/537.36 (KHTML, like Gecko) Chrome/88.0.4324.96 Safari/537.36 Edg/88.0.705.56","","","","","","","","-70,-65,-60,-55,-50","media/audio/stims/spherical_300cm_s20_c20_cd-full_matched_a-50.wav","spherical","20","20","full","matched","-50","-65","1709"
"block-bookend","72","798574","0.0-72.0","5f7f6ea18b9c4a117d887a3f","5fef55e628823a0076ec12ee","6018d21b4578361e1d69030b","Mozilla/5.0 (Windows NT 10.0; Win64; x64) AppleWebKit/537.36 (KHTML, like Gecko) Chrome/88.0.4324.96 Safari/537.36 Edg/88.0.705.56","","","","","","","","","","","","","","","","",""
"block-bookend","73","811767","0.0-73.0","5f7f6ea18b9c4a117d887a3f","5fef55e628823a0076ec12ee","6018d21b4578361e1d69030b","Mozilla/5.0 (Windows NT 10.0; Win64; x64) AppleWebKit/537.36 (KHTML, like Gecko) Chrome/88.0.4324.96 Safari/537.36 Edg/88.0.705.56","","","","","","","","","","","","","","","","",""
"echo-presentation","74","817166","0.0-74.0","5f7f6ea18b9c4a117d887a3f","5fef55e628823a0076ec12ee","6018d21b4578361e1d69030b","Mozilla/5.0 (Windows NT 10.0; Win64; x64) AppleWebKit/537.36 (KHTML, like Gecko) Chrome/88.0.4324.96 Safari/537.36 Edg/88.0.705.56","","","","","","","","-70,-65,-60,-55,-50","media/audio/stims/spherical_300cm_s20_c20_cd-full_matched_a-60.wav","spherical","20","20","full","matched","-60","-60","3290"
"echo-presentation","75","832612","0.0-75.0","5f7f6ea18b9c4a117d887a3f","5fef55e628823a0076ec12ee","6018d21b4578361e1d69030b","Mozilla/5.0 (Windows NT 10.0; Win64; x64) AppleWebKit/537.36 (KHTML, like Gecko) Chrome/88.0.4324.96 Safari/537.36 Edg/88.0.705.56","","","","","","","","-70,-65,-60,-55,-50","media/audio/stims/spherical_300cm_s20_c20_cd-full_matched_a-65.wav","spherical","20","20","full","matched","-65","-65","13941"
"echo-presentation","76","836636","0.0-76.0","5f7f6ea18b9c4a117d887a3f","5fef55e628823a0076ec12ee","6018d21b4578361e1d69030b","Mozilla/5.0 (Windows NT 10.0; Win64; x64) AppleWebKit/537.36 (KHTML, like Gecko) Chrome/88.0.4324.96 Safari/537.36 Edg/88.0.705.56","","","","","","","","-70,-65,-60,-55,-50","media/audio/stims/spherical_300cm_s20_c20_cd-full_matched_a-65.wav","spherical","20","20","full","matched","-65","-65","2477"
"echo-presentation","77","842421","0.0-77.0","5f7f6ea18b9c4a117d887a3f","5fef55e628823a0076ec12ee","6018d21b4578361e1d69030b","Mozilla/5.0 (Windows NT 10.0; Win64; x64) AppleWebKit/537.36 (KHTML, like Gecko) Chrome/88.0.4324.96 Safari/537.36 Edg/88.0.705.56","","","","","","","","-70,-65,-60,-55,-50","media/audio/stims/spherical_300cm_s20_c20_cd-full_matched_a-70.wav","spherical","20","20","full","matched","-70","-70","3641"
"echo-presentation","78","845465","0.0-78.0","5f7f6ea18b9c4a117d887a3f","5fef55e628823a0076ec12ee","6018d21b4578361e1d69030b","Mozilla/5.0 (Windows NT 10.0; Win64; x64) AppleWebKit/537.36 (KHTML, like Gecko) Chrome/88.0.4324.96 Safari/537.36 Edg/88.0.705.56","","","","","","","","-70,-65,-60,-55,-50","media/audio/stims/spherical_300cm_s20_c20_cd-full_matched_a-55.wav","spherical","20","20","full","matched","-55","-70","1873"
"echo-presentation","79","848586","0.0-79.0","5f7f6ea18b9c4a117d887a3f","5fef55e628823a0076ec12ee","6018d21b4578361e1d69030b","Mozilla/5.0 (Windows NT 10.0; Win64; x64) AppleWebKit/537.36 (KHTML, like Gecko) Chrome/88.0.4324.96 Safari/537.36 Edg/88.0.705.56","","","","","","","","-70,-65,-60,-55,-50","media/audio/stims/spherical_300cm_s20_c20_cd-full_matched_a-60.wav","spherical","20","20","full","matched","-60","-65","1807"
"echo-presentation","80","851437","0.0-80.0","5f7f6ea18b9c4a117d887a3f","5fef55e628823a0076ec12ee","6018d21b4578361e1d69030b","Mozilla/5.0 (Windows NT 10.0; Win64; x64) AppleWebKit/537.36 (KHTML, like Gecko) Chrome/88.0.4324.96 Safari/537.36 Edg/88.0.705.56","","","","","","","","-70,-65,-60,-55,-50","media/audio/stims/spherical_300cm_s20_c20_cd-full_matched_a-70.wav","spherical","20","20","full","matched","-70","-70","1615"
"echo-presentation","81","855388","0.0-81.0","5f7f6ea18b9c4a117d887a3f","5fef55e628823a0076ec12ee","6018d21b4578361e1d69030b","Mozilla/5.0 (Windows NT 10.0; Win64; x64) AppleWebKit/537.36 (KHTML, like Gecko) Chrome/88.0.4324.96 Safari/537.36 Edg/88.0.705.56","","","","","","","","-70,-65,-60,-55,-50","media/audio/stims/spherical_300cm_s20_c20_cd-full_matched_a-50.wav","spherical","20","20","full","matched","-50","-60","2740"
"echo-presentation","82","858078","0.0-82.0","5f7f6ea18b9c4a117d887a3f","5fef55e628823a0076ec12ee","6018d21b4578361e1d69030b","Mozilla/5.0 (Windows NT 10.0; Win64; x64) AppleWebKit/537.36 (KHTML, like Gecko) Chrome/88.0.4324.96 Safari/537.36 Edg/88.0.705.56","","","","","","","","-70,-65,-60,-55,-50","media/audio/stims/spherical_300cm_s20_c20_cd-full_matched_a-55.wav","spherical","20","20","full","matched","-55","-65","1544"
"echo-presentation","83","863496","0.0-83.0","5f7f6ea18b9c4a117d887a3f","5fef55e628823a0076ec12ee","6018d21b4578361e1d69030b","Mozilla/5.0 (Windows NT 10.0; Win64; x64) AppleWebKit/537.36 (KHTML, like Gecko) Chrome/88.0.4324.96 Safari/537.36 Edg/88.0.705.56","","","","","","","","-70,-65,-60,-55,-50","media/audio/stims/spherical_300cm_s20_c20_cd-full_matched_a-50.wav","spherical","20","20","full","matched","-50","-65","3288"
"echo-presentation","84","867197","0.0-84.0","5f7f6ea18b9c4a117d887a3f","5fef55e628823a0076ec12ee","6018d21b4578361e1d69030b","Mozilla/5.0 (Windows NT 10.0; Win64; x64) AppleWebKit/537.36 (KHTML, like Gecko) Chrome/88.0.4324.96 Safari/537.36 Edg/88.0.705.56","","","","","","","","-70,-65,-60,-55,-50","media/audio/stims/spherical_300cm_s20_c20_cd-full_matched_a-60.wav","spherical","20","20","full","matched","-60","-60","2297"
"echo-presentation","85","876791","0.0-85.0","5f7f6ea18b9c4a117d887a3f","5fef55e628823a0076ec12ee","6018d21b4578361e1d69030b","Mozilla/5.0 (Windows NT 10.0; Win64; x64) AppleWebKit/537.36 (KHTML, like Gecko) Chrome/88.0.4324.96 Safari/537.36 Edg/88.0.705.56","","","","","","","","-70,-65,-60,-55,-50","media/audio/stims/spherical_300cm_s20_c20_cd-full_matched_a-65.wav","spherical","20","20","full","matched","-65","-60","8447"
"echo-presentation","86","880869","0.0-86.0","5f7f6ea18b9c4a117d887a3f","5fef55e628823a0076ec12ee","6018d21b4578361e1d69030b","Mozilla/5.0 (Windows NT 10.0; Win64; x64) AppleWebKit/537.36 (KHTML, like Gecko) Chrome/88.0.4324.96 Safari/537.36 Edg/88.0.705.56","","","","","","","","-70,-65,-60,-55,-50","media/audio/stims/spherical_300cm_s20_c20_cd-full_matched_a-70.wav","spherical","20","20","full","matched","-70","-70","3007"
"echo-presentation","87","883494","0.0-87.0","5f7f6ea18b9c4a117d887a3f","5fef55e628823a0076ec12ee","6018d21b4578361e1d69030b","Mozilla/5.0 (Windows NT 10.0; Win64; x64) AppleWebKit/537.36 (KHTML, like Gecko) Chrome/88.0.4324.96 Safari/537.36 Edg/88.0.705.56","","","","","","","","-70,-65,-60,-55,-50","media/audio/stims/spherical_300cm_s20_c20_cd-full_matched_a-60.wav","spherical","20","20","full","matched","-60","-65","1477"
"echo-presentation","88","886174","0.0-88.0","5f7f6ea18b9c4a117d887a3f","5fef55e628823a0076ec12ee","6018d21b4578361e1d69030b","Mozilla/5.0 (Windows NT 10.0; Win64; x64) AppleWebKit/537.36 (KHTML, like Gecko) Chrome/88.0.4324.96 Safari/537.36 Edg/88.0.705.56","","","","","","","","-70,-65,-60,-55,-50","media/audio/stims/spherical_300cm_s20_c20_cd-full_matched_a-55.wav","spherical","20","20","full","matched","-55","-65","1496"
"echo-presentation","89","888849","0.0-89.0","5f7f6ea18b9c4a117d887a3f","5fef55e628823a0076ec12ee","6018d21b4578361e1d69030b","Mozilla/5.0 (Windows NT 10.0; Win64; x64) AppleWebKit/537.36 (KHTML, like Gecko) Chrome/88.0.4324.96 Safari/537.36 Edg/88.0.705.56","","","","","","","","-70,-65,-60,-55,-50","media/audio/stims/spherical_300cm_s20_c20_cd-full_matched_a-70.wav","spherical","20","20","full","matched","-70","-70","1522"
"echo-presentation","90","892944","0.0-90.0","5f7f6ea18b9c4a117d887a3f","5fef55e628823a0076ec12ee","6018d21b4578361e1d69030b","Mozilla/5.0 (Windows NT 10.0; Win64; x64) AppleWebKit/537.36 (KHTML, like Gecko) Chrome/88.0.4324.96 Safari/537.36 Edg/88.0.705.56","","","","","","","","-70,-65,-60,-55,-50","media/audio/stims/spherical_300cm_s20_c20_cd-full_matched_a-50.wav","spherical","20","20","full","matched","-50","-70","2752"
"echo-presentation","91","896673","0.0-91.0","5f7f6ea18b9c4a117d887a3f","5fef55e628823a0076ec12ee","6018d21b4578361e1d69030b","Mozilla/5.0 (Windows NT 10.0; Win64; x64) AppleWebKit/537.36 (KHTML, like Gecko) Chrome/88.0.4324.96 Safari/537.36 Edg/88.0.705.56","","","","","","","","-70,-65,-60,-55,-50","media/audio/stims/spherical_300cm_s20_c20_cd-full_matched_a-55.wav","spherical","20","20","full","matched","-55","-70","2521"
"echo-presentation","92","899907","0.0-92.0","5f7f6ea18b9c4a117d887a3f","5fef55e628823a0076ec12ee","6018d21b4578361e1d69030b","Mozilla/5.0 (Windows NT 10.0; Win64; x64) AppleWebKit/537.36 (KHTML, like Gecko) Chrome/88.0.4324.96 Safari/537.36 Edg/88.0.705.56","","","","","","","","-70,-65,-60,-55,-50","media/audio/stims/spherical_300cm_s20_c20_cd-full_matched_a-65.wav","spherical","20","20","full","matched","-65","-65","1961"
"echo-presentation","93","902826","0.0-93.0","5f7f6ea18b9c4a117d887a3f","5fef55e628823a0076ec12ee","6018d21b4578361e1d69030b","Mozilla/5.0 (Windows NT 10.0; Win64; x64) AppleWebKit/537.36 (KHTML, like Gecko) Chrome/88.0.4324.96 Safari/537.36 Edg/88.0.705.56","","","","","","","","-70,-65,-60,-55,-50","media/audio/stims/spherical_300cm_s20_c20_cd-full_matched_a-50.wav","spherical","20","20","full","matched","-50","-65","1617"
"block-bookend","94","905178","0.0-94.0","5f7f6ea18b9c4a117d887a3f","5fef55e628823a0076ec12ee","6018d21b4578361e1d69030b","Mozilla/5.0 (Windows NT 10.0; Win64; x64) AppleWebKit/537.36 (KHTML, like Gecko) Chrome/88.0.4324.96 Safari/537.36 Edg/88.0.705.56","","","","","","","","","","","","","","","","",""
"block-bookend","95","930437","0.0-95.0","5f7f6ea18b9c4a117d887a3f","5fef55e628823a0076ec12ee","6018d21b4578361e1d69030b","Mozilla/5.0 (Windows NT 10.0; Win64; x64) AppleWebKit/537.36 (KHTML, like Gecko) Chrome/88.0.4324.96 Safari/537.36 Edg/88.0.705.56","","","","","","","","","","","","","","","","",""
"echo-presentation","96","934531","0.0-96.0","5f7f6ea18b9c4a117d887a3f","5fef55e628823a0076ec12ee","6018d21b4578361e1d69030b","Mozilla/5.0 (Windows NT 10.0; Win64; x64) AppleWebKit/537.36 (KHTML, like Gecko) Chrome/88.0.4324.96 Safari/537.36 Edg/88.0.705.56","","","","","","","","-10,-5,0,5,10","media/audio/stims/spherical_300cm_s20_c20_cd-full_matched_a5.wav","spherical","20","20","full","matched","5","0","2372"
"echo-presentation","97","939158","0.0-97.0","5f7f6ea18b9c4a117d887a3f","5fef55e628823a0076ec12ee","6018d21b4578361e1d69030b","Mozilla/5.0 (Windows NT 10.0; Win64; x64) AppleWebKit/537.36 (KHTML, like Gecko) Chrome/88.0.4324.96 Safari/537.36 Edg/88.0.705.56","","","","","","","","-10,-5,0,5,10","media/audio/stims/spherical_300cm_s20_c20_cd-full_matched_a10.wav","spherical","20","20","full","matched","10","0","2879"
"echo-presentation","98","942964","0.0-98.0","5f7f6ea18b9c4a117d887a3f","5fef55e628823a0076ec12ee","6018d21b4578361e1d69030b","Mozilla/5.0 (Windows NT 10.0; Win64; x64) AppleWebKit/537.36 (KHTML, like Gecko) Chrome/88.0.4324.96 Safari/537.36 Edg/88.0.705.56","","","","","","","","-10,-5,0,5,10","media/audio/stims/spherical_300cm_s20_c20_cd-full_matched_a10.wav","spherical","20","20","full","matched","10","0","2418"
"echo-presentation","99","946586","0.0-99.0","5f7f6ea18b9c4a117d887a3f","5fef55e628823a0076ec12ee","6018d21b4578361e1d69030b","Mozilla/5.0 (Windows NT 10.0; Win64; x64) AppleWebKit/537.36 (KHTML, like Gecko) Chrome/88.0.4324.96 Safari/537.36 Edg/88.0.705.56","","","","","","","","-10,-5,0,5,10","media/audio/stims/spherical_300cm_s20_c20_cd-full_matched_a-10.wav","spherical","20","20","full","matched","-10","0","2164"
"echo-presentation","100","949933","0.0-100.0","5f7f6ea18b9c4a117d887a3f","5fef55e628823a0076ec12ee","6018d21b4578361e1d69030b","Mozilla/5.0 (Windows NT 10.0; Win64; x64) AppleWebKit/537.36 (KHTML, like Gecko) Chrome/88.0.4324.96 Safari/537.36 Edg/88.0.705.56","","","","","","","","-10,-5,0,5,10","media/audio/stims/spherical_300cm_s20_c20_cd-full_matched_a5.wav","spherical","20","20","full","matched","5","5","2357"
"echo-presentation","101","954387","0.0-101.0","5f7f6ea18b9c4a117d887a3f","5fef55e628823a0076ec12ee","6018d21b4578361e1d69030b","Mozilla/5.0 (Windows NT 10.0; Win64; x64) AppleWebKit/537.36 (KHTML, like Gecko) Chrome/88.0.4324.96 Safari/537.36 Edg/88.0.705.56","","","","","","","","-10,-5,0,5,10","media/audio/stims/spherical_300cm_s20_c20_cd-full_matched_a-5.wav","spherical","20","20","full","matched","-5","0","3151"
"echo-presentation","102","958331","0.0-102.0","5f7f6ea18b9c4a117d887a3f","5fef55e628823a0076ec12ee","6018d21b4578361e1d69030b","Mozilla/5.0 (Windows NT 10.0; Win64; x64) AppleWebKit/537.36 (KHTML, like Gecko) Chrome/88.0.4324.96 Safari/537.36 Edg/88.0.705.56","","","","","","","","-10,-5,0,5,10","media/audio/stims/spherical_300cm_s20_c20_cd-full_matched_a0.wav","spherical","20","20","full","matched","0","0","2927"
"echo-presentation","103","961391","0.0-103.0","5f7f6ea18b9c4a117d887a3f","5fef55e628823a0076ec12ee","6018d21b4578361e1d69030b","Mozilla/5.0 (Windows NT 10.0; Win64; x64) AppleWebKit/537.36 (KHTML, like Gecko) Chrome/88.0.4324.96 Safari/537.36 Edg/88.0.705.56","","","","","","","","-10,-5,0,5,10","media/audio/stims/spherical_300cm_s20_c20_cd-full_matched_a0.wav","spherical","20","20","full","matched","0","0","1469"
"echo-presentation","104","964189","0.0-104.0","5f7f6ea18b9c4a117d887a3f","5fef55e628823a0076ec12ee","6018d21b4578361e1d69030b","Mozilla/5.0 (Windows NT 10.0; Win64; x64) AppleWebKit/537.36 (KHTML, like Gecko) Chrome/88.0.4324.96 Safari/537.36 Edg/88.0.705.56","","","","","","","","-10,-5,0,5,10","media/audio/stims/spherical_300cm_s20_c20_cd-full_matched_a5.wav","spherical","20","20","full","matched","5","0","1436"
"echo-presentation","105","966440","0.0-105.0","5f7f6ea18b9c4a117d887a3f","5fef55e628823a0076ec12ee","6018d21b4578361e1d69030b","Mozilla/5.0 (Windows NT 10.0; Win64; x64) AppleWebKit/537.36 (KHTML, like Gecko) Chrome/88.0.4324.96 Safari/537.36 Edg/88.0.705.56","","","","","","","","-10,-5,0,5,10","media/audio/stims/spherical_300cm_s20_c20_cd-full_matched_a10.wav","spherical","20","20","full","matched","10","0","1114"
"echo-presentation","106","970121","0.0-106.0","5f7f6ea18b9c4a117d887a3f","5fef55e628823a0076ec12ee","6018d21b4578361e1d69030b","Mozilla/5.0 (Windows NT 10.0; Win64; x64) AppleWebKit/537.36 (KHTML, like Gecko) Chrome/88.0.4324.96 Safari/537.36 Edg/88.0.705.56","","","","","","","","-10,-5,0,5,10","media/audio/stims/spherical_300cm_s20_c20_cd-full_matched_a0.wav","spherical","20","20","full","matched","0","0","2021"
"echo-presentation","107","973892","0.0-107.0","5f7f6ea18b9c4a117d887a3f","5fef55e628823a0076ec12ee","6018d21b4578361e1d69030b","Mozilla/5.0 (Windows NT 10.0; Win64; x64) AppleWebKit/537.36 (KHTML, like Gecko) Chrome/88.0.4324.96 Safari/537.36 Edg/88.0.705.56","","","","","","","","-10,-5,0,5,10","media/audio/stims/spherical_300cm_s20_c20_cd-full_matched_a-10.wav","spherical","20","20","full","matched","-10","0","1701"
"echo-presentation","108","976751","0.0-108.0","5f7f6ea18b9c4a117d887a3f","5fef55e628823a0076ec12ee","6018d21b4578361e1d69030b","Mozilla/5.0 (Windows NT 10.0; Win64; x64) AppleWebKit/537.36 (KHTML, like Gecko) Chrome/88.0.4324.96 Safari/537.36 Edg/88.0.705.56","","","","","","","","-10,-5,0,5,10","media/audio/stims/spherical_300cm_s20_c20_cd-full_matched_a0.wav","spherical","20","20","full","matched","0","0","1547"
"echo-presentation","109","980716","0.0-109.0","5f7f6ea18b9c4a117d887a3f","5fef55e628823a0076ec12ee","6018d21b4578361e1d69030b","Mozilla/5.0 (Windows NT 10.0; Win64; x64) AppleWebKit/537.36 (KHTML, like Gecko) Chrome/88.0.4324.96 Safari/537.36 Edg/88.0.705.56","","","","","","","","-10,-5,0,5,10","media/audio/stims/spherical_300cm_s20_c20_cd-full_matched_a10.wav","spherical","20","20","full","matched","10","0","1494"
"echo-presentation","110","983530","0.0-110.0","5f7f6ea18b9c4a117d887a3f","5fef55e628823a0076ec12ee","6018d21b4578361e1d69030b","Mozilla/5.0 (Windows NT 10.0; Win64; x64) AppleWebKit/537.36 (KHTML, like Gecko) Chrome/88.0.4324.96 Safari/537.36 Edg/88.0.705.56","","","","","","","","-10,-5,0,5,10","media/audio/stims/spherical_300cm_s20_c20_cd-full_matched_a5.wav","spherical","20","20","full","matched","5","0","1395"
"echo-presentation","111","987038","0.0-111.0","5f7f6ea18b9c4a117d887a3f","5fef55e628823a0076ec12ee","6018d21b4578361e1d69030b","Mozilla/5.0 (Windows NT 10.0; Win64; x64) AppleWebKit/537.36 (KHTML, like Gecko) Chrome/88.0.4324.96 Safari/537.36 Edg/88.0.705.56","","","","","","","","-10,-5,0,5,10","media/audio/stims/spherical_300cm_s20_c20_cd-full_matched_a-10.wav","spherical","20","20","full","matched","-10","0","1751"
"echo-presentation","112","989748","0.0-112.0","5f7f6ea18b9c4a117d887a3f","5fef55e628823a0076ec12ee","6018d21b4578361e1d69030b","Mozilla/5.0 (Windows NT 10.0; Win64; x64) AppleWebKit/537.36 (KHTML, like Gecko) Chrome/88.0.4324.96 Safari/537.36 Edg/88.0.705.56","","","","","","","","-10,-5,0,5,10","media/audio/stims/spherical_300cm_s20_c20_cd-full_matched_a-5.wav","spherical","20","20","full","matched","-5","0","1734"
"echo-presentation","113","992794","0.0-113.0","5f7f6ea18b9c4a117d887a3f","5fef55e628823a0076ec12ee","6018d21b4578361e1d69030b","Mozilla/5.0 (Windows NT 10.0; Win64; x64) AppleWebKit/537.36 (KHTML, like Gecko) Chrome/88.0.4324.96 Safari/537.36 Edg/88.0.705.56","","","","","","","","-10,-5,0,5,10","media/audio/stims/spherical_300cm_s20_c20_cd-full_matched_a-5.wav","spherical","20","20","full","matched","-5","0","1796"
"echo-presentation","114","997982","0.0-114.0","5f7f6ea18b9c4a117d887a3f","5fef55e628823a0076ec12ee","6018d21b4578361e1d69030b","Mozilla/5.0 (Windows NT 10.0; Win64; x64) AppleWebKit/537.36 (KHTML, like Gecko) Chrome/88.0.4324.96 Safari/537.36 Edg/88.0.705.56","","","","","","","","-10,-5,0,5,10","media/audio/stims/spherical_300cm_s20_c20_cd-full_matched_a-5.wav","spherical","20","20","full","matched","-5","0","3992"
"echo-presentation","115","1000831","0.0-115.0","5f7f6ea18b9c4a117d887a3f","5fef55e628823a0076ec12ee","6018d21b4578361e1d69030b","Mozilla/5.0 (Windows NT 10.0; Win64; x64) AppleWebKit/537.36 (KHTML, like Gecko) Chrome/88.0.4324.96 Safari/537.36 Edg/88.0.705.56","","","","","","","","-10,-5,0,5,10","media/audio/stims/spherical_300cm_s20_c20_cd-full_matched_a-10.wav","spherical","20","20","full","matched","-10","0","1353"
"block-bookend","116","1004097","0.0-116.0","5f7f6ea18b9c4a117d887a3f","5fef55e628823a0076ec12ee","6018d21b4578361e1d69030b","Mozilla/5.0 (Windows NT 10.0; Win64; x64) AppleWebKit/537.36 (KHTML, like Gecko) Chrome/88.0.4324.96 Safari/537.36 Edg/88.0.705.56","","","","","","","","","","","","","","","","",""
"block-bookend","117","1016669","0.0-117.0","5f7f6ea18b9c4a117d887a3f","5fef55e628823a0076ec12ee","6018d21b4578361e1d69030b","Mozilla/5.0 (Windows NT 10.0; Win64; x64) AppleWebKit/537.36 (KHTML, like Gecko) Chrome/88.0.4324.96 Safari/537.36 Edg/88.0.705.56","","","","","","","","","","","","","","","","",""
"echo-presentation","118","1027446","0.0-118.0","5f7f6ea18b9c4a117d887a3f","5fef55e628823a0076ec12ee","6018d21b4578361e1d69030b","Mozilla/5.0 (Windows NT 10.0; Win64; x64) AppleWebKit/537.36 (KHTML, like Gecko) Chrome/88.0.4324.96 Safari/537.36 Edg/88.0.705.56","","","","","","","","50,55,60,65,70","media/audio/stims/spherical_300cm_s20_c20_cd-full_matched_a65.wav","spherical","20","20","full","matched","65","55","8078"
"echo-presentation","119","1031292","0.0-119.0","5f7f6ea18b9c4a117d887a3f","5fef55e628823a0076ec12ee","6018d21b4578361e1d69030b","Mozilla/5.0 (Windows NT 10.0; Win64; x64) AppleWebKit/537.36 (KHTML, like Gecko) Chrome/88.0.4324.96 Safari/537.36 Edg/88.0.705.56","","","","","","","","50,55,60,65,70","media/audio/stims/spherical_300cm_s20_c20_cd-full_matched_a55.wav","spherical","20","20","full","matched","55","55","2805"
"echo-presentation","120","1036090","0.0-120.0","5f7f6ea18b9c4a117d887a3f","5fef55e628823a0076ec12ee","6018d21b4578361e1d69030b","Mozilla/5.0 (Windows NT 10.0; Win64; x64) AppleWebKit/537.36 (KHTML, like Gecko) Chrome/88.0.4324.96 Safari/537.36 Edg/88.0.705.56","","","","","","","","50,55,60,65,70","media/audio/stims/spherical_300cm_s20_c20_cd-full_matched_a65.wav","spherical","20","20","full","matched","65","65","3608"
"echo-presentation","121","1040686","0.0-121.0","5f7f6ea18b9c4a117d887a3f","5fef55e628823a0076ec12ee","6018d21b4578361e1d69030b","Mozilla/5.0 (Windows NT 10.0; Win64; x64) AppleWebKit/537.36 (KHTML, like Gecko) Chrome/88.0.4324.96 Safari/537.36 Edg/88.0.705.56","","","","","","","","50,55,60,65,70","media/audio/stims/spherical_300cm_s20_c20_cd-full_matched_a55.wav","spherical","20","20","full","matched","55","60","3268"
"echo-presentation","122","1043675","0.0-122.0","5f7f6ea18b9c4a117d887a3f","5fef55e628823a0076ec12ee","6018d21b4578361e1d69030b","Mozilla/5.0 (Windows NT 10.0; Win64; x64) AppleWebKit/537.36 (KHTML, like Gecko) Chrome/88.0.4324.96 Safari/537.36 Edg/88.0.705.56","","","","","","","","50,55,60,65,70","media/audio/stims/spherical_300cm_s20_c20_cd-full_matched_a65.wav","spherical","20","20","full","matched","65","60","1940"
"echo-presentation","123","1049410","0.0-123.0","5f7f6ea18b9c4a117d887a3f","5fef55e628823a0076ec12ee","6018d21b4578361e1d69030b","Mozilla/5.0 (Windows NT 10.0; Win64; x64) AppleWebKit/537.36 (KHTML, like Gecko) Chrome/88.0.4324.96 Safari/537.36 Edg/88.0.705.56","","","","","","","","50,55,60,65,70","media/audio/stims/spherical_300cm_s20_c20_cd-full_matched_a50.wav","spherical","20","20","full","matched","50","50","4177"
"echo-presentation","124","1052383","0.0-124.0","5f7f6ea18b9c4a117d887a3f","5fef55e628823a0076ec12ee","6018d21b4578361e1d69030b","Mozilla/5.0 (Windows NT 10.0; Win64; x64) AppleWebKit/537.36 (KHTML, like Gecko) Chrome/88.0.4324.96 Safari/537.36 Edg/88.0.705.56","","","","","","","","50,55,60,65,70","media/audio/stims/spherical_300cm_s20_c20_cd-full_matched_a60.wav","spherical","20","20","full","matched","60","55","1761"
"echo-presentation","125","1056531","0.0-125.0","5f7f6ea18b9c4a117d887a3f","5fef55e628823a0076ec12ee","6018d21b4578361e1d69030b","Mozilla/5.0 (Windows NT 10.0; Win64; x64) AppleWebKit/537.36 (KHTML, like Gecko) Chrome/88.0.4324.96 Safari/537.36 Edg/88.0.705.56","","","","","","","","50,55,60,65,70","media/audio/stims/spherical_300cm_s20_c20_cd-full_matched_a70.wav","spherical","20","20","full","matched","70","65","2874"
"echo-presentation","126","1059288","0.0-126.0","5f7f6ea18b9c4a117d887a3f","5fef55e628823a0076ec12ee","6018d21b4578361e1d69030b","Mozilla/5.0 (Windows NT 10.0; Win64; x64) AppleWebKit/537.36 (KHTML, like Gecko) Chrome/88.0.4324.96 Safari/537.36 Edg/88.0.705.56","","","","","","","","50,55,60,65,70","media/audio/stims/spherical_300cm_s20_c20_cd-full_matched_a50.wav","spherical","20","20","full","matched","50","65","1731"
"echo-presentation","127","1062572","0.0-127.0","5f7f6ea18b9c4a117d887a3f","5fef55e628823a0076ec12ee","6018d21b4578361e1d69030b","Mozilla/5.0 (Windows NT 10.0; Win64; x64) AppleWebKit/537.36 (KHTML, like Gecko) Chrome/88.0.4324.96 Safari/537.36 Edg/88.0.705.56","","","","","","","","50,55,60,65,70","media/audio/stims/spherical_300cm_s20_c20_cd-full_matched_a70.wav","spherical","20","20","full","matched","70","65","2106"
"echo-presentation","128","1065679","0.0-128.0","5f7f6ea18b9c4a117d887a3f","5fef55e628823a0076ec12ee","6018d21b4578361e1d69030b","Mozilla/5.0 (Windows NT 10.0; Win64; x64) AppleWebKit/537.36 (KHTML, like Gecko) Chrome/88.0.4324.96 Safari/537.36 Edg/88.0.705.56","","","","","","","","50,55,60,65,70","media/audio/stims/spherical_300cm_s20_c20_cd-full_matched_a50.wav","spherical","20","20","full","matched","50","65","1994"
"echo-presentation","129","1068774","0.0-129.0","5f7f6ea18b9c4a117d887a3f","5fef55e628823a0076ec12ee","6018d21b4578361e1d69030b","Mozilla/5.0 (Windows NT 10.0; Win64; x64) AppleWebKit/537.36 (KHTML, like Gecko) Chrome/88.0.4324.96 Safari/537.36 Edg/88.0.705.56","","","","","","","","50,55,60,65,70","media/audio/stims/spherical_300cm_s20_c20_cd-full_matched_a55.wav","spherical","20","20","full","matched","55","70","2053"
"echo-presentation","130","1072329","0.0-130.0","5f7f6ea18b9c4a117d887a3f","5fef55e628823a0076ec12ee","6018d21b4578361e1d69030b","Mozilla/5.0 (Windows NT 10.0; Win64; x64) AppleWebKit/537.36 (KHTML, like Gecko) Chrome/88.0.4324.96 Safari/537.36 Edg/88.0.705.56","","","","","","","","50,55,60,65,70","media/audio/stims/spherical_300cm_s20_c20_cd-full_matched_a55.wav","spherical","20","20","full","matched","55","70","2365"
"echo-presentation","131","1075194","0.0-131.0","5f7f6ea18b9c4a117d887a3f","5fef55e628823a0076ec12ee","6018d21b4578361e1d69030b","Mozilla/5.0 (Windows NT 10.0; Win64; x64) AppleWebKit/537.36 (KHTML, like Gecko) Chrome/88.0.4324.96 Safari/537.36 Edg/88.0.705.56","","","","","","","","50,55,60,65,70","media/audio/stims/spherical_300cm_s20_c20_cd-full_matched_a60.wav","spherical","20","20","full","matched","60","65","1726"
"echo-presentation","132","1079952","0.0-132.0","5f7f6ea18b9c4a117d887a3f","5fef55e628823a0076ec12ee","6018d21b4578361e1d69030b","Mozilla/5.0 (Windows NT 10.0; Win64; x64) AppleWebKit/537.36 (KHTML, like Gecko) Chrome/88.0.4324.96 Safari/537.36 Edg/88.0.705.56","","","","","","","","50,55,60,65,70","media/audio/stims/spherical_300cm_s20_c20_cd-full_matched_a70.wav","spherical","20","20","full","matched","70","60","3373"
"echo-presentation","133","1082901","0.0-133.0","5f7f6ea18b9c4a117d887a3f","5fef55e628823a0076ec12ee","6018d21b4578361e1d69030b","Mozilla/5.0 (Windows NT 10.0; Win64; x64) AppleWebKit/537.36 (KHTML, like Gecko) Chrome/88.0.4324.96 Safari/537.36 Edg/88.0.705.56","","","","","","","","50,55,60,65,70","media/audio/stims/spherical_300cm_s20_c20_cd-full_matched_a70.wav","spherical","20","20","full","matched","70","60","1866"
"echo-presentation","134","1086619","0.0-134.0","5f7f6ea18b9c4a117d887a3f","5fef55e628823a0076ec12ee","6018d21b4578361e1d69030b","Mozilla/5.0 (Windows NT 10.0; Win64; x64) AppleWebKit/537.36 (KHTML, like Gecko) Chrome/88.0.4324.96 Safari/537.36 Edg/88.0.705.56","","","","","","","","50,55,60,65,70","media/audio/stims/spherical_300cm_s20_c20_cd-full_matched_a60.wav","spherical","20","20","full","matched","60","60","2627"
"echo-presentation","135","1094218","0.0-135.0","5f7f6ea18b9c4a117d887a3f","5fef55e628823a0076ec12ee","6018d21b4578361e1d69030b","Mozilla/5.0 (Windows NT 10.0; Win64; x64) AppleWebKit/537.36 (KHTML, like Gecko) Chrome/88.0.4324.96 Safari/537.36 Edg/88.0.705.56","","","","","","","","50,55,60,65,70","media/audio/stims/spherical_300cm_s20_c20_cd-full_matched_a50.wav","spherical","20","20","full","matched","50","55","6519"
"echo-presentation","136","1097695","0.0-136.0","5f7f6ea18b9c4a117d887a3f","5fef55e628823a0076ec12ee","6018d21b4578361e1d69030b","Mozilla/5.0 (Windows NT 10.0; Win64; x64) AppleWebKit/537.36 (KHTML, like Gecko) Chrome/88.0.4324.96 Safari/537.36 Edg/88.0.705.56","","","","","","","","50,55,60,65,70","media/audio/stims/spherical_300cm_s20_c20_cd-full_matched_a65.wav","spherical","20","20","full","matched","65","65","2566"
"echo-presentation","137","1100378","0.0-137.0","5f7f6ea18b9c4a117d887a3f","5fef55e628823a0076ec12ee","6018d21b4578361e1d69030b","Mozilla/5.0 (Windows NT 10.0; Win64; x64) AppleWebKit/537.36 (KHTML, like Gecko) Chrome/88.0.4324.96 Safari/537.36 Edg/88.0.705.56","","","","","","","","50,55,60,65,70","media/audio/stims/spherical_300cm_s20_c20_cd-full_matched_a60.wav","spherical","20","20","full","matched","60","65","1596"
"block-bookend","138","1103043","0.0-138.0","5f7f6ea18b9c4a117d887a3f","5fef55e628823a0076ec12ee","6018d21b4578361e1d69030b","Mozilla/5.0 (Windows NT 10.0; Win64; x64) AppleWebKit/537.36 (KHTML, like Gecko) Chrome/88.0.4324.96 Safari/537.36 Edg/88.0.705.56","","","","","","","","","","","","","","","","",""
