"trial_type","trial_index","time_elapsed","internal_node_id","prolificPid","studyId","sessionId","userAgent","rt","stimulus","key_press","chosenKeyset","failureCount","testIndex","globalVolume","choices","filename","modelName","slowdown","compensation","compensationDescriptor","receiverOrientationType","azimuth","responseAzimuth","responseDelay"
"pavlovia","0","3","0.0-0.0","5ffb5b3dc598145ab98eeea5","5fef55e628823a0076ec12ee","6018cad49b77d51cc391d407","Mozilla/5.0 (Windows NT 10.0; Win64; x64) AppleWebKit/537.36 (KHTML, like Gecko) Chrome/88.0.4324.104 Safari/537.36","","","","","","","","","","","","","","","","",""
"html-keyboard-response","1","41319","0.0-1.0","5ffb5b3dc598145ab98eeea5","5fef55e628823a0076ec12ee","6018cad49b77d51cc391d407","Mozilla/5.0 (Windows NT 10.0; Win64; x64) AppleWebKit/537.36 (KHTML, like Gecko) Chrome/88.0.4324.104 Safari/537.36","41315.4499999946","<div><h1>Welcome!</h1><p>Press any key to continue.</p></div>","32","","","","","","","","","","","","","",""
"consent-form","2","55979","0.0-2.0","5ffb5b3dc598145ab98eeea5","5fef55e628823a0076ec12ee","6018cad49b77d51cc391d407","Mozilla/5.0 (Windows NT 10.0; Win64; x64) AppleWebKit/537.36 (KHTML, like Gecko) Chrome/88.0.4324.104 Safari/537.36","","","","","","","","","","","","","","","","",""
"keyset-select","3","98696","0.0-3.0","5ffb5b3dc598145ab98eeea5","5fef55e628823a0076ec12ee","6018cad49b77d51cc391d407","Mozilla/5.0 (Windows NT 10.0; Win64; x64) AppleWebKit/537.36 (KHTML, like Gecko) Chrome/88.0.4324.104 Safari/537.36","","","","right-hand","","","","","","","","","","","","",""
"headphone-check","4","155109","0.0-4.0","5ffb5b3dc598145ab98eeea5","5fef55e628823a0076ec12ee","6018cad49b77d51cc391d407","Mozilla/5.0 (Windows NT 10.0; Win64; x64) AppleWebKit/537.36 (KHTML, like Gecko) Chrome/88.0.4324.104 Safari/537.36","","","","","1","6","0.3","","","","","","","","","",""
"headphone-backwards-check","5","162518","0.0-5.0","5ffb5b3dc598145ab98eeea5","5fef55e628823a0076ec12ee","6018cad49b77d51cc391d407","Mozilla/5.0 (Windows NT 10.0; Win64; x64) AppleWebKit/537.36 (KHTML, like Gecko) Chrome/88.0.4324.104 Safari/537.36","","","","","0","","","","","","","","","","","",""
"training","6","232752","0.0-6.0","5ffb5b3dc598145ab98eeea5","5fef55e628823a0076ec12ee","6018cad49b77d51cc391d407","Mozilla/5.0 (Windows NT 10.0; Win64; x64) AppleWebKit/537.36 (KHTML, like Gecko) Chrome/88.0.4324.104 Safari/537.36","","","","","","","","","","","","","","","","",""
"block-bookend","7","251770","0.0-7.0","5ffb5b3dc598145ab98eeea5","5fef55e628823a0076ec12ee","6018cad49b77d51cc391d407","Mozilla/5.0 (Windows NT 10.0; Win64; x64) AppleWebKit/537.36 (KHTML, like Gecko) Chrome/88.0.4324.104 Safari/537.36","","","","","","","","","","","","","","","","",""
"echo-presentation","8","262148","0.0-8.0","5ffb5b3dc598145ab98eeea5","5fef55e628823a0076ec12ee","6018cad49b77d51cc391d407","Mozilla/5.0 (Windows NT 10.0; Win64; x64) AppleWebKit/537.36 (KHTML, like Gecko) Chrome/88.0.4324.104 Safari/537.36","","","","","","","","-70,-65,-60,-55,-50","media/audio/stims/spherical_300cm_s20_c20_cd-full_matched_a-65.wav","spherical","20","20","full","matched","-65","-55","6817"
"echo-presentation","9","270666","0.0-9.0","5ffb5b3dc598145ab98eeea5","5fef55e628823a0076ec12ee","6018cad49b77d51cc391d407","Mozilla/5.0 (Windows NT 10.0; Win64; x64) AppleWebKit/537.36 (KHTML, like Gecko) Chrome/88.0.4324.104 Safari/537.36","","","","","","","","-70,-65,-60,-55,-50","media/audio/stims/spherical_300cm_s20_c20_cd-full_matched_a-70.wav","spherical","20","20","full","matched","-70","-60","7057"
"echo-presentation","10","275406","0.0-10.0","5ffb5b3dc598145ab98eeea5","5fef55e628823a0076ec12ee","6018cad49b77d51cc391d407","Mozilla/5.0 (Windows NT 10.0; Win64; x64) AppleWebKit/537.36 (KHTML, like Gecko) Chrome/88.0.4324.104 Safari/537.36","","","","","","","","-70,-65,-60,-55,-50","media/audio/stims/spherical_300cm_s20_c20_cd-full_matched_a-50.wav","spherical","20","20","full","matched","-50","-65","3168"
"echo-presentation","11","279236","0.0-11.0","5ffb5b3dc598145ab98eeea5","5fef55e628823a0076ec12ee","6018cad49b77d51cc391d407","Mozilla/5.0 (Windows NT 10.0; Win64; x64) AppleWebKit/537.36 (KHTML, like Gecko) Chrome/88.0.4324.104 Safari/537.36","","","","","","","","-70,-65,-60,-55,-50","media/audio/stims/spherical_300cm_s20_c20_cd-full_matched_a-65.wav","spherical","20","20","full","matched","-65","-60","2500"
"echo-presentation","12","283952","0.0-12.0","5ffb5b3dc598145ab98eeea5","5fef55e628823a0076ec12ee","6018cad49b77d51cc391d407","Mozilla/5.0 (Windows NT 10.0; Win64; x64) AppleWebKit/537.36 (KHTML, like Gecko) Chrome/88.0.4324.104 Safari/537.36","","","","","","","","-70,-65,-60,-55,-50","media/audio/stims/spherical_300cm_s20_c20_cd-full_matched_a-65.wav","spherical","20","20","full","matched","-65","-60","2759"
"echo-presentation","13","287954","0.0-13.0","5ffb5b3dc598145ab98eeea5","5fef55e628823a0076ec12ee","6018cad49b77d51cc391d407","Mozilla/5.0 (Windows NT 10.0; Win64; x64) AppleWebKit/537.36 (KHTML, like Gecko) Chrome/88.0.4324.104 Safari/537.36","","","","","","","","-70,-65,-60,-55,-50","media/audio/stims/spherical_300cm_s20_c20_cd-full_matched_a-55.wav","spherical","20","20","full","matched","-55","-60","2042"
"echo-presentation","14","291292","0.0-14.0","5ffb5b3dc598145ab98eeea5","5fef55e628823a0076ec12ee","6018cad49b77d51cc391d407","Mozilla/5.0 (Windows NT 10.0; Win64; x64) AppleWebKit/537.36 (KHTML, like Gecko) Chrome/88.0.4324.104 Safari/537.36","","","","","","","","-70,-65,-60,-55,-50","media/audio/stims/spherical_300cm_s20_c20_cd-full_matched_a-55.wav","spherical","20","20","full","matched","-55","-55","2047"
"echo-presentation","15","294918","0.0-15.0","5ffb5b3dc598145ab98eeea5","5fef55e628823a0076ec12ee","6018cad49b77d51cc391d407","Mozilla/5.0 (Windows NT 10.0; Win64; x64) AppleWebKit/537.36 (KHTML, like Gecko) Chrome/88.0.4324.104 Safari/537.36","","","","","","","","-70,-65,-60,-55,-50","media/audio/stims/spherical_300cm_s20_c20_cd-full_matched_a-50.wav","spherical","20","20","full","matched","-50","-70","1818"
"echo-presentation","16","302896","0.0-16.0","5ffb5b3dc598145ab98eeea5","5fef55e628823a0076ec12ee","6018cad49b77d51cc391d407","Mozilla/5.0 (Windows NT 10.0; Win64; x64) AppleWebKit/537.36 (KHTML, like Gecko) Chrome/88.0.4324.104 Safari/537.36","","","","","","","","-70,-65,-60,-55,-50","media/audio/stims/spherical_300cm_s20_c20_cd-full_matched_a-60.wav","spherical","20","20","full","matched","-60","-50","6807"
"echo-presentation","17","307426","0.0-17.0","5ffb5b3dc598145ab98eeea5","5fef55e628823a0076ec12ee","6018cad49b77d51cc391d407","Mozilla/5.0 (Windows NT 10.0; Win64; x64) AppleWebKit/537.36 (KHTML, like Gecko) Chrome/88.0.4324.104 Safari/537.36","","","","","","","","-70,-65,-60,-55,-50","media/audio/stims/spherical_300cm_s20_c20_cd-full_matched_a-55.wav","spherical","20","20","full","matched","-55","-65","2770"
"echo-presentation","18","311011","0.0-18.0","5ffb5b3dc598145ab98eeea5","5fef55e628823a0076ec12ee","6018cad49b77d51cc391d407","Mozilla/5.0 (Windows NT 10.0; Win64; x64) AppleWebKit/537.36 (KHTML, like Gecko) Chrome/88.0.4324.104 Safari/537.36","","","","","","","","-70,-65,-60,-55,-50","media/audio/stims/spherical_300cm_s20_c20_cd-full_matched_a-60.wav","spherical","20","20","full","matched","-60","-60","2047"
"echo-presentation","19","314759","0.0-19.0","5ffb5b3dc598145ab98eeea5","5fef55e628823a0076ec12ee","6018cad49b77d51cc391d407","Mozilla/5.0 (Windows NT 10.0; Win64; x64) AppleWebKit/537.36 (KHTML, like Gecko) Chrome/88.0.4324.104 Safari/537.36","","","","","","","","-70,-65,-60,-55,-50","media/audio/stims/spherical_300cm_s20_c20_cd-full_matched_a-60.wav","spherical","20","20","full","matched","-60","-70","2588"
"echo-presentation","20","317671","0.0-20.0","5ffb5b3dc598145ab98eeea5","5fef55e628823a0076ec12ee","6018cad49b77d51cc391d407","Mozilla/5.0 (Windows NT 10.0; Win64; x64) AppleWebKit/537.36 (KHTML, like Gecko) Chrome/88.0.4324.104 Safari/537.36","","","","","","","","-70,-65,-60,-55,-50","media/audio/stims/spherical_300cm_s20_c20_cd-full_matched_a-60.wav","spherical","20","20","full","matched","-60","-55","1882"
"echo-presentation","21","321180","0.0-21.0","5ffb5b3dc598145ab98eeea5","5fef55e628823a0076ec12ee","6018cad49b77d51cc391d407","Mozilla/5.0 (Windows NT 10.0; Win64; x64) AppleWebKit/537.36 (KHTML, like Gecko) Chrome/88.0.4324.104 Safari/537.36","","","","","","","","-70,-65,-60,-55,-50","media/audio/stims/spherical_300cm_s20_c20_cd-full_matched_a-50.wav","spherical","20","20","full","matched","-50","-65","1833"
"echo-presentation","22","324280","0.0-22.0","5ffb5b3dc598145ab98eeea5","5fef55e628823a0076ec12ee","6018cad49b77d51cc391d407","Mozilla/5.0 (Windows NT 10.0; Win64; x64) AppleWebKit/537.36 (KHTML, like Gecko) Chrome/88.0.4324.104 Safari/537.36","","","","","","","","-70,-65,-60,-55,-50","media/audio/stims/spherical_300cm_s20_c20_cd-full_matched_a-70.wav","spherical","20","20","full","matched","-70","-60","1802"
"echo-presentation","23","326922","0.0-23.0","5ffb5b3dc598145ab98eeea5","5fef55e628823a0076ec12ee","6018cad49b77d51cc391d407","Mozilla/5.0 (Windows NT 10.0; Win64; x64) AppleWebKit/537.36 (KHTML, like Gecko) Chrome/88.0.4324.104 Safari/537.36","","","","","","","","-70,-65,-60,-55,-50","media/audio/stims/spherical_300cm_s20_c20_cd-full_matched_a-65.wav","spherical","20","20","full","matched","-65","-55","1463"
"echo-presentation","24","329464","0.0-24.0","5ffb5b3dc598145ab98eeea5","5fef55e628823a0076ec12ee","6018cad49b77d51cc391d407","Mozilla/5.0 (Windows NT 10.0; Win64; x64) AppleWebKit/537.36 (KHTML, like Gecko) Chrome/88.0.4324.104 Safari/537.36","","","","","","","","-70,-65,-60,-55,-50","media/audio/stims/spherical_300cm_s20_c20_cd-full_matched_a-70.wav","spherical","20","20","full","matched","-70","-55","1339"
"echo-presentation","25","333077","0.0-25.0","5ffb5b3dc598145ab98eeea5","5fef55e628823a0076ec12ee","6018cad49b77d51cc391d407","Mozilla/5.0 (Windows NT 10.0; Win64; x64) AppleWebKit/537.36 (KHTML, like Gecko) Chrome/88.0.4324.104 Safari/537.36","","","","","","","","-70,-65,-60,-55,-50","media/audio/stims/spherical_300cm_s20_c20_cd-full_matched_a-50.wav","spherical","20","20","full","matched","-50","-50","2699"
"echo-presentation","26","336014","0.0-26.0","5ffb5b3dc598145ab98eeea5","5fef55e628823a0076ec12ee","6018cad49b77d51cc391d407","Mozilla/5.0 (Windows NT 10.0; Win64; x64) AppleWebKit/537.36 (KHTML, like Gecko) Chrome/88.0.4324.104 Safari/537.36","","","","","","","","-70,-65,-60,-55,-50","media/audio/stims/spherical_300cm_s20_c20_cd-full_matched_a-55.wav","spherical","20","20","full","matched","-55","-70","1792"
"echo-presentation","27","339968","0.0-27.0","5ffb5b3dc598145ab98eeea5","5fef55e628823a0076ec12ee","6018cad49b77d51cc391d407","Mozilla/5.0 (Windows NT 10.0; Win64; x64) AppleWebKit/537.36 (KHTML, like Gecko) Chrome/88.0.4324.104 Safari/537.36","","","","","","","","-70,-65,-60,-55,-50","media/audio/stims/spherical_300cm_s20_c20_cd-full_matched_a-70.wav","spherical","20","20","full","matched","-70","-65","2127"
"block-bookend","28","344194","0.0-28.0","5ffb5b3dc598145ab98eeea5","5fef55e628823a0076ec12ee","6018cad49b77d51cc391d407","Mozilla/5.0 (Windows NT 10.0; Win64; x64) AppleWebKit/537.36 (KHTML, like Gecko) Chrome/88.0.4324.104 Safari/537.36","","","","","","","","","","","","","","","","",""
"block-bookend","29","354950","0.0-29.0","5ffb5b3dc598145ab98eeea5","5fef55e628823a0076ec12ee","6018cad49b77d51cc391d407","Mozilla/5.0 (Windows NT 10.0; Win64; x64) AppleWebKit/537.36 (KHTML, like Gecko) Chrome/88.0.4324.104 Safari/537.36","","","","","","","","","","","","","","","","",""
"echo-presentation","30","360492","0.0-30.0","5ffb5b3dc598145ab98eeea5","5fef55e628823a0076ec12ee","6018cad49b77d51cc391d407","Mozilla/5.0 (Windows NT 10.0; Win64; x64) AppleWebKit/537.36 (KHTML, like Gecko) Chrome/88.0.4324.104 Safari/537.36","","","","","","","","50,55,60,65,70","media/audio/stims/spherical_300cm_s20_c20_cd-full_matched_a65.wav","spherical","20","20","full","matched","65","60","3975"
"echo-presentation","31","363313","0.0-31.0","5ffb5b3dc598145ab98eeea5","5fef55e628823a0076ec12ee","6018cad49b77d51cc391d407","Mozilla/5.0 (Windows NT 10.0; Win64; x64) AppleWebKit/537.36 (KHTML, like Gecko) Chrome/88.0.4324.104 Safari/537.36","","","","","","","","50,55,60,65,70","media/audio/stims/spherical_300cm_s20_c20_cd-full_matched_a70.wav","spherical","20","20","full","matched","70","65","1379"
"echo-presentation","32","368949","0.0-32.0","5ffb5b3dc598145ab98eeea5","5fef55e628823a0076ec12ee","6018cad49b77d51cc391d407","Mozilla/5.0 (Windows NT 10.0; Win64; x64) AppleWebKit/537.36 (KHTML, like Gecko) Chrome/88.0.4324.104 Safari/537.36","","","","","","","","50,55,60,65,70","media/audio/stims/spherical_300cm_s20_c20_cd-full_matched_a65.wav","spherical","20","20","full","matched","65","70","4230"
"echo-presentation","33","372569","0.0-33.0","5ffb5b3dc598145ab98eeea5","5fef55e628823a0076ec12ee","6018cad49b77d51cc391d407","Mozilla/5.0 (Windows NT 10.0; Win64; x64) AppleWebKit/537.36 (KHTML, like Gecko) Chrome/88.0.4324.104 Safari/537.36","","","","","","","","50,55,60,65,70","media/audio/stims/spherical_300cm_s20_c20_cd-full_matched_a60.wav","spherical","20","20","full","matched","60","65","2615"
"echo-presentation","34","375500","0.0-34.0","5ffb5b3dc598145ab98eeea5","5fef55e628823a0076ec12ee","6018cad49b77d51cc391d407","Mozilla/5.0 (Windows NT 10.0; Win64; x64) AppleWebKit/537.36 (KHTML, like Gecko) Chrome/88.0.4324.104 Safari/537.36","","","","","","","","50,55,60,65,70","media/audio/stims/spherical_300cm_s20_c20_cd-full_matched_a65.wav","spherical","20","20","full","matched","65","65","2132"
"echo-presentation","35","378133","0.0-35.0","5ffb5b3dc598145ab98eeea5","5fef55e628823a0076ec12ee","6018cad49b77d51cc391d407","Mozilla/5.0 (Windows NT 10.0; Win64; x64) AppleWebKit/537.36 (KHTML, like Gecko) Chrome/88.0.4324.104 Safari/537.36","","","","","","","","50,55,60,65,70","media/audio/stims/spherical_300cm_s20_c20_cd-full_matched_a50.wav","spherical","20","20","full","matched","50","60","1883"
"echo-presentation","36","380696","0.0-36.0","5ffb5b3dc598145ab98eeea5","5fef55e628823a0076ec12ee","6018cad49b77d51cc391d407","Mozilla/5.0 (Windows NT 10.0; Win64; x64) AppleWebKit/537.36 (KHTML, like Gecko) Chrome/88.0.4324.104 Safari/537.36","","","","","","","","50,55,60,65,70","media/audio/stims/spherical_300cm_s20_c20_cd-full_matched_a70.wav","spherical","20","20","full","matched","70","50","1783"
"echo-presentation","37","384196","0.0-37.0","5ffb5b3dc598145ab98eeea5","5fef55e628823a0076ec12ee","6018cad49b77d51cc391d407","Mozilla/5.0 (Windows NT 10.0; Win64; x64) AppleWebKit/537.36 (KHTML, like Gecko) Chrome/88.0.4324.104 Safari/537.36","","","","","","","","50,55,60,65,70","media/audio/stims/spherical_300cm_s20_c20_cd-full_matched_a50.wav","spherical","20","20","full","matched","50","60","2551"
"echo-presentation","38","387226","0.0-38.0","5ffb5b3dc598145ab98eeea5","5fef55e628823a0076ec12ee","6018cad49b77d51cc391d407","Mozilla/5.0 (Windows NT 10.0; Win64; x64) AppleWebKit/537.36 (KHTML, like Gecko) Chrome/88.0.4324.104 Safari/537.36","","","","","","","","50,55,60,65,70","media/audio/stims/spherical_300cm_s20_c20_cd-full_matched_a60.wav","spherical","20","20","full","matched","60","55","1971"
"echo-presentation","39","391343","0.0-39.0","5ffb5b3dc598145ab98eeea5","5fef55e628823a0076ec12ee","6018cad49b77d51cc391d407","Mozilla/5.0 (Windows NT 10.0; Win64; x64) AppleWebKit/537.36 (KHTML, like Gecko) Chrome/88.0.4324.104 Safari/537.36","","","","","","","","50,55,60,65,70","media/audio/stims/spherical_300cm_s20_c20_cd-full_matched_a50.wav","spherical","20","20","full","matched","50","65","2735"
"echo-presentation","40","393625","0.0-40.0","5ffb5b3dc598145ab98eeea5","5fef55e628823a0076ec12ee","6018cad49b77d51cc391d407","Mozilla/5.0 (Windows NT 10.0; Win64; x64) AppleWebKit/537.36 (KHTML, like Gecko) Chrome/88.0.4324.104 Safari/537.36","","","","","","","","50,55,60,65,70","media/audio/stims/spherical_300cm_s20_c20_cd-full_matched_a65.wav","spherical","20","20","full","matched","65","65","1364"
"echo-presentation","41","396816","0.0-41.0","5ffb5b3dc598145ab98eeea5","5fef55e628823a0076ec12ee","6018cad49b77d51cc391d407","Mozilla/5.0 (Windows NT 10.0; Win64; x64) AppleWebKit/537.36 (KHTML, like Gecko) Chrome/88.0.4324.104 Safari/537.36","","","","","","","","50,55,60,65,70","media/audio/stims/spherical_300cm_s20_c20_cd-full_matched_a55.wav","spherical","20","20","full","matched","55","60","1856"
"echo-presentation","42","400051","0.0-42.0","5ffb5b3dc598145ab98eeea5","5fef55e628823a0076ec12ee","6018cad49b77d51cc391d407","Mozilla/5.0 (Windows NT 10.0; Win64; x64) AppleWebKit/537.36 (KHTML, like Gecko) Chrome/88.0.4324.104 Safari/537.36","","","","","","","","50,55,60,65,70","media/audio/stims/spherical_300cm_s20_c20_cd-full_matched_a70.wav","spherical","20","20","full","matched","70","65","2037"
"echo-presentation","43","406741","0.0-43.0","5ffb5b3dc598145ab98eeea5","5fef55e628823a0076ec12ee","6018cad49b77d51cc391d407","Mozilla/5.0 (Windows NT 10.0; Win64; x64) AppleWebKit/537.36 (KHTML, like Gecko) Chrome/88.0.4324.104 Safari/537.36","","","","","","","","50,55,60,65,70","media/audio/stims/spherical_300cm_s20_c20_cd-full_matched_a55.wav","spherical","20","20","full","matched","55","55","5779"
"echo-presentation","44","409644","0.0-44.0","5ffb5b3dc598145ab98eeea5","5fef55e628823a0076ec12ee","6018cad49b77d51cc391d407","Mozilla/5.0 (Windows NT 10.0; Win64; x64) AppleWebKit/537.36 (KHTML, like Gecko) Chrome/88.0.4324.104 Safari/537.36","","","","","","","","50,55,60,65,70","media/audio/stims/spherical_300cm_s20_c20_cd-full_matched_a55.wav","spherical","20","20","full","matched","55","60","1668"
"echo-presentation","45","411716","0.0-45.0","5ffb5b3dc598145ab98eeea5","5fef55e628823a0076ec12ee","6018cad49b77d51cc391d407","Mozilla/5.0 (Windows NT 10.0; Win64; x64) AppleWebKit/537.36 (KHTML, like Gecko) Chrome/88.0.4324.104 Safari/537.36","","","","","","","","50,55,60,65,70","media/audio/stims/spherical_300cm_s20_c20_cd-full_matched_a70.wav","spherical","20","20","full","matched","70","65","1080"
"echo-presentation","46","413691","0.0-46.0","5ffb5b3dc598145ab98eeea5","5fef55e628823a0076ec12ee","6018cad49b77d51cc391d407","Mozilla/5.0 (Windows NT 10.0; Win64; x64) AppleWebKit/537.36 (KHTML, like Gecko) Chrome/88.0.4324.104 Safari/537.36","","","","","","","","50,55,60,65,70","media/audio/stims/spherical_300cm_s20_c20_cd-full_matched_a60.wav","spherical","20","20","full","matched","60","60","970"
"echo-presentation","47","416178","0.0-47.0","5ffb5b3dc598145ab98eeea5","5fef55e628823a0076ec12ee","6018cad49b77d51cc391d407","Mozilla/5.0 (Windows NT 10.0; Win64; x64) AppleWebKit/537.36 (KHTML, like Gecko) Chrome/88.0.4324.104 Safari/537.36","","","","","","","","50,55,60,65,70","media/audio/stims/spherical_300cm_s20_c20_cd-full_matched_a50.wav","spherical","20","20","full","matched","50","60","1454"
"echo-presentation","48","418492","0.0-48.0","5ffb5b3dc598145ab98eeea5","5fef55e628823a0076ec12ee","6018cad49b77d51cc391d407","Mozilla/5.0 (Windows NT 10.0; Win64; x64) AppleWebKit/537.36 (KHTML, like Gecko) Chrome/88.0.4324.104 Safari/537.36","","","","","","","","50,55,60,65,70","media/audio/stims/spherical_300cm_s20_c20_cd-full_matched_a60.wav","spherical","20","20","full","matched","60","55","1000"
"echo-presentation","49","421661","0.0-49.0","5ffb5b3dc598145ab98eeea5","5fef55e628823a0076ec12ee","6018cad49b77d51cc391d407","Mozilla/5.0 (Windows NT 10.0; Win64; x64) AppleWebKit/537.36 (KHTML, like Gecko) Chrome/88.0.4324.104 Safari/537.36","","","","","","","","50,55,60,65,70","media/audio/stims/spherical_300cm_s20_c20_cd-full_matched_a55.wav","spherical","20","20","full","matched","55","65","1419"
"block-bookend","50","424146","0.0-50.0","5ffb5b3dc598145ab98eeea5","5fef55e628823a0076ec12ee","6018cad49b77d51cc391d407","Mozilla/5.0 (Windows NT 10.0; Win64; x64) AppleWebKit/537.36 (KHTML, like Gecko) Chrome/88.0.4324.104 Safari/537.36","","","","","","","","","","","","","","","","",""
"block-bookend","51","433519","0.0-51.0","5ffb5b3dc598145ab98eeea5","5fef55e628823a0076ec12ee","6018cad49b77d51cc391d407","Mozilla/5.0 (Windows NT 10.0; Win64; x64) AppleWebKit/537.36 (KHTML, like Gecko) Chrome/88.0.4324.104 Safari/537.36","","","","","","","","","","","","","","","","",""
"echo-presentation","52","436805","0.0-52.0","5ffb5b3dc598145ab98eeea5","5fef55e628823a0076ec12ee","6018cad49b77d51cc391d407","Mozilla/5.0 (Windows NT 10.0; Win64; x64) AppleWebKit/537.36 (KHTML, like Gecko) Chrome/88.0.4324.104 Safari/537.36","","","","","","","","-10,-5,0,5,10","media/audio/stims/spherical_300cm_s20_c20_cd-full_matched_a5.wav","spherical","20","20","full","matched","5","5","1797"
"echo-presentation","53","439594","0.0-53.0","5ffb5b3dc598145ab98eeea5","5fef55e628823a0076ec12ee","6018cad49b77d51cc391d407","Mozilla/5.0 (Windows NT 10.0; Win64; x64) AppleWebKit/537.36 (KHTML, like Gecko) Chrome/88.0.4324.104 Safari/537.36","","","","","","","","-10,-5,0,5,10","media/audio/stims/spherical_300cm_s20_c20_cd-full_matched_a0.wav","spherical","20","20","full","matched","0","5","1494"
"echo-presentation","54","441792","0.0-54.0","5ffb5b3dc598145ab98eeea5","5fef55e628823a0076ec12ee","6018cad49b77d51cc391d407","Mozilla/5.0 (Windows NT 10.0; Win64; x64) AppleWebKit/537.36 (KHTML, like Gecko) Chrome/88.0.4324.104 Safari/537.36","","","","","","","","-10,-5,0,5,10","media/audio/stims/spherical_300cm_s20_c20_cd-full_matched_a-5.wav","spherical","20","20","full","matched","-5","5","1095"
"echo-presentation","55","444589","0.0-55.0","5ffb5b3dc598145ab98eeea5","5fef55e628823a0076ec12ee","6018cad49b77d51cc391d407","Mozilla/5.0 (Windows NT 10.0; Win64; x64) AppleWebKit/537.36 (KHTML, like Gecko) Chrome/88.0.4324.104 Safari/537.36","","","","","","","","-10,-5,0,5,10","media/audio/stims/spherical_300cm_s20_c20_cd-full_matched_a-10.wav","spherical","20","20","full","matched","-10","0","1662"
"echo-presentation","56","446538","0.0-56.0","5ffb5b3dc598145ab98eeea5","5fef55e628823a0076ec12ee","6018cad49b77d51cc391d407","Mozilla/5.0 (Windows NT 10.0; Win64; x64) AppleWebKit/537.36 (KHTML, like Gecko) Chrome/88.0.4324.104 Safari/537.36","","","","","","","","-10,-5,0,5,10","media/audio/stims/spherical_300cm_s20_c20_cd-full_matched_a10.wav","spherical","20","20","full","matched","10","5","1110"
"echo-presentation","57","449135","0.0-57.0","5ffb5b3dc598145ab98eeea5","5fef55e628823a0076ec12ee","6018cad49b77d51cc391d407","Mozilla/5.0 (Windows NT 10.0; Win64; x64) AppleWebKit/537.36 (KHTML, like Gecko) Chrome/88.0.4324.104 Safari/537.36","","","","","","","","-10,-5,0,5,10","media/audio/stims/spherical_300cm_s20_c20_cd-full_matched_a-10.wav","spherical","20","20","full","matched","-10","5","1652"
"echo-presentation","58","451130","0.0-58.0","5ffb5b3dc598145ab98eeea5","5fef55e628823a0076ec12ee","6018cad49b77d51cc391d407","Mozilla/5.0 (Windows NT 10.0; Win64; x64) AppleWebKit/537.36 (KHTML, like Gecko) Chrome/88.0.4324.104 Safari/537.36","","","","","","","","-10,-5,0,5,10","media/audio/stims/spherical_300cm_s20_c20_cd-full_matched_a10.wav","spherical","20","20","full","matched","10","5","1075"
"echo-presentation","59","454410","0.0-59.0","5ffb5b3dc598145ab98eeea5","5fef55e628823a0076ec12ee","6018cad49b77d51cc391d407","Mozilla/5.0 (Windows NT 10.0; Win64; x64) AppleWebKit/537.36 (KHTML, like Gecko) Chrome/88.0.4324.104 Safari/537.36","","","","","","","","-10,-5,0,5,10","media/audio/stims/spherical_300cm_s20_c20_cd-full_matched_a-10.wav","spherical","20","20","full","matched","-10","10","2321"
"echo-presentation","60","457260","0.0-60.0","5ffb5b3dc598145ab98eeea5","5fef55e628823a0076ec12ee","6018cad49b77d51cc391d407","Mozilla/5.0 (Windows NT 10.0; Win64; x64) AppleWebKit/537.36 (KHTML, like Gecko) Chrome/88.0.4324.104 Safari/537.36","","","","","","","","-10,-5,0,5,10","media/audio/stims/spherical_300cm_s20_c20_cd-full_matched_a10.wav","spherical","20","20","full","matched","10","5","1462"
"echo-presentation","61","459518","0.0-61.0","5ffb5b3dc598145ab98eeea5","5fef55e628823a0076ec12ee","6018cad49b77d51cc391d407","Mozilla/5.0 (Windows NT 10.0; Win64; x64) AppleWebKit/537.36 (KHTML, like Gecko) Chrome/88.0.4324.104 Safari/537.36","","","","","","","","-10,-5,0,5,10","media/audio/stims/spherical_300cm_s20_c20_cd-full_matched_a5.wav","spherical","20","20","full","matched","5","5","1074"
"echo-presentation","62","462161","0.0-62.0","5ffb5b3dc598145ab98eeea5","5fef55e628823a0076ec12ee","6018cad49b77d51cc391d407","Mozilla/5.0 (Windows NT 10.0; Win64; x64) AppleWebKit/537.36 (KHTML, like Gecko) Chrome/88.0.4324.104 Safari/537.36","","","","","","","","-10,-5,0,5,10","media/audio/stims/spherical_300cm_s20_c20_cd-full_matched_a0.wav","spherical","20","20","full","matched","0","0","1462"
"echo-presentation","63","464698","0.0-63.0","5ffb5b3dc598145ab98eeea5","5fef55e628823a0076ec12ee","6018cad49b77d51cc391d407","Mozilla/5.0 (Windows NT 10.0; Win64; x64) AppleWebKit/537.36 (KHTML, like Gecko) Chrome/88.0.4324.104 Safari/537.36","","","","","","","","-10,-5,0,5,10","media/audio/stims/spherical_300cm_s20_c20_cd-full_matched_a10.wav","spherical","20","20","full","matched","10","-5","1544"
"echo-presentation","64","466787","0.0-64.0","5ffb5b3dc598145ab98eeea5","5fef55e628823a0076ec12ee","6018cad49b77d51cc391d407","Mozilla/5.0 (Windows NT 10.0; Win64; x64) AppleWebKit/537.36 (KHTML, like Gecko) Chrome/88.0.4324.104 Safari/537.36","","","","","","","","-10,-5,0,5,10","media/audio/stims/spherical_300cm_s20_c20_cd-full_matched_a-5.wav","spherical","20","20","full","matched","-5","-5","1175"
"echo-presentation","65","469355","0.0-65.0","5ffb5b3dc598145ab98eeea5","5fef55e628823a0076ec12ee","6018cad49b77d51cc391d407","Mozilla/5.0 (Windows NT 10.0; Win64; x64) AppleWebKit/537.36 (KHTML, like Gecko) Chrome/88.0.4324.104 Safari/537.36","","","","","","","","-10,-5,0,5,10","media/audio/stims/spherical_300cm_s20_c20_cd-full_matched_a-5.wav","spherical","20","20","full","matched","-5","-10","1673"
"echo-presentation","66","471475","0.0-66.0","5ffb5b3dc598145ab98eeea5","5fef55e628823a0076ec12ee","6018cad49b77d51cc391d407","Mozilla/5.0 (Windows NT 10.0; Win64; x64) AppleWebKit/537.36 (KHTML, like Gecko) Chrome/88.0.4324.104 Safari/537.36","","","","","","","","-10,-5,0,5,10","media/audio/stims/spherical_300cm_s20_c20_cd-full_matched_a-5.wav","spherical","20","20","full","matched","-5","-5","1324"
"echo-presentation","67","473676","0.0-67.0","5ffb5b3dc598145ab98eeea5","5fef55e628823a0076ec12ee","6018cad49b77d51cc391d407","Mozilla/5.0 (Windows NT 10.0; Win64; x64) AppleWebKit/537.36 (KHTML, like Gecko) Chrome/88.0.4324.104 Safari/537.36","","","","","","","","-10,-5,0,5,10","media/audio/stims/spherical_300cm_s20_c20_cd-full_matched_a0.wav","spherical","20","20","full","matched","0","-5","1219"
"echo-presentation","68","476040","0.0-68.0","5ffb5b3dc598145ab98eeea5","5fef55e628823a0076ec12ee","6018cad49b77d51cc391d407","Mozilla/5.0 (Windows NT 10.0; Win64; x64) AppleWebKit/537.36 (KHTML, like Gecko) Chrome/88.0.4324.104 Safari/537.36","","","","","","","","-10,-5,0,5,10","media/audio/stims/spherical_300cm_s20_c20_cd-full_matched_a0.wav","spherical","20","20","full","matched","0","5","1343"
"echo-presentation","69","478194","0.0-69.0","5ffb5b3dc598145ab98eeea5","5fef55e628823a0076ec12ee","6018cad49b77d51cc391d407","Mozilla/5.0 (Windows NT 10.0; Win64; x64) AppleWebKit/537.36 (KHTML, like Gecko) Chrome/88.0.4324.104 Safari/537.36","","","","","","","","-10,-5,0,5,10","media/audio/stims/spherical_300cm_s20_c20_cd-full_matched_a5.wav","spherical","20","20","full","matched","5","5","1194"
"echo-presentation","70","480208","0.0-70.0","5ffb5b3dc598145ab98eeea5","5fef55e628823a0076ec12ee","6018cad49b77d51cc391d407","Mozilla/5.0 (Windows NT 10.0; Win64; x64) AppleWebKit/537.36 (KHTML, like Gecko) Chrome/88.0.4324.104 Safari/537.36","","","","","","","","-10,-5,0,5,10","media/audio/stims/spherical_300cm_s20_c20_cd-full_matched_a-10.wav","spherical","20","20","full","matched","-10","5","1084"
"echo-presentation","71","483339","0.0-71.0","5ffb5b3dc598145ab98eeea5","5fef55e628823a0076ec12ee","6018cad49b77d51cc391d407","Mozilla/5.0 (Windows NT 10.0; Win64; x64) AppleWebKit/537.36 (KHTML, like Gecko) Chrome/88.0.4324.104 Safari/537.36","","","","","","","","-10,-5,0,5,10","media/audio/stims/spherical_300cm_s20_c20_cd-full_matched_a5.wav","spherical","20","20","full","matched","5","10","2062"
"block-bookend","72","483999","0.0-72.0","5ffb5b3dc598145ab98eeea5","5fef55e628823a0076ec12ee","6018cad49b77d51cc391d407","Mozilla/5.0 (Windows NT 10.0; Win64; x64) AppleWebKit/537.36 (KHTML, like Gecko) Chrome/88.0.4324.104 Safari/537.36","","","","","","","","","","","","","","","","",""
"block-bookend","73","499402","0.0-73.0","5ffb5b3dc598145ab98eeea5","5fef55e628823a0076ec12ee","6018cad49b77d51cc391d407","Mozilla/5.0 (Windows NT 10.0; Win64; x64) AppleWebKit/537.36 (KHTML, like Gecko) Chrome/88.0.4324.104 Safari/537.36","","","","","","","","","","","","","","","","",""
"echo-presentation","74","502352","0.0-74.0","5ffb5b3dc598145ab98eeea5","5fef55e628823a0076ec12ee","6018cad49b77d51cc391d407","Mozilla/5.0 (Windows NT 10.0; Win64; x64) AppleWebKit/537.36 (KHTML, like Gecko) Chrome/88.0.4324.104 Safari/537.36","","","","","","","","50,55,60,65,70","media/audio/stims/spherical_300cm_s20_c20_cd-full_matched_a70.wav","spherical","20","20","full","matched","70","65","1558"
"echo-presentation","75","505238","0.0-75.0","5ffb5b3dc598145ab98eeea5","5fef55e628823a0076ec12ee","6018cad49b77d51cc391d407","Mozilla/5.0 (Windows NT 10.0; Win64; x64) AppleWebKit/537.36 (KHTML, like Gecko) Chrome/88.0.4324.104 Safari/537.36","","","","","","","","50,55,60,65,70","media/audio/stims/spherical_300cm_s20_c20_cd-full_matched_a50.wav","spherical","20","20","full","matched","50","60","1711"
"echo-presentation","76","507067","0.0-76.0","5ffb5b3dc598145ab98eeea5","5fef55e628823a0076ec12ee","6018cad49b77d51cc391d407","Mozilla/5.0 (Windows NT 10.0; Win64; x64) AppleWebKit/537.36 (KHTML, like Gecko) Chrome/88.0.4324.104 Safari/537.36","","","","","","","","50,55,60,65,70","media/audio/stims/spherical_300cm_s20_c20_cd-full_matched_a55.wav","spherical","20","20","full","matched","55","65","1025"
"echo-presentation","77","510522","0.0-77.0","5ffb5b3dc598145ab98eeea5","5fef55e628823a0076ec12ee","6018cad49b77d51cc391d407","Mozilla/5.0 (Windows NT 10.0; Win64; x64) AppleWebKit/537.36 (KHTML, like Gecko) Chrome/88.0.4324.104 Safari/537.36","","","","","","","","50,55,60,65,70","media/audio/stims/spherical_300cm_s20_c20_cd-full_matched_a65.wav","spherical","20","20","full","matched","65","70","2674"
"echo-presentation","78","513018","0.0-78.0","5ffb5b3dc598145ab98eeea5","5fef55e628823a0076ec12ee","6018cad49b77d51cc391d407","Mozilla/5.0 (Windows NT 10.0; Win64; x64) AppleWebKit/537.36 (KHTML, like Gecko) Chrome/88.0.4324.104 Safari/537.36","","","","","","","","50,55,60,65,70","media/audio/stims/spherical_300cm_s20_c20_cd-full_matched_a50.wav","spherical","20","20","full","matched","50","65","1163"
"echo-presentation","79","516468","0.0-79.0","5ffb5b3dc598145ab98eeea5","5fef55e628823a0076ec12ee","6018cad49b77d51cc391d407","Mozilla/5.0 (Windows NT 10.0; Win64; x64) AppleWebKit/537.36 (KHTML, like Gecko) Chrome/88.0.4324.104 Safari/537.36","","","","","","","","50,55,60,65,70","media/audio/stims/spherical_300cm_s20_c20_cd-full_matched_a50.wav","spherical","20","20","full","matched","50","65","1627"
"echo-presentation","80","519474","0.0-80.0","5ffb5b3dc598145ab98eeea5","5fef55e628823a0076ec12ee","6018cad49b77d51cc391d407","Mozilla/5.0 (Windows NT 10.0; Win64; x64) AppleWebKit/537.36 (KHTML, like Gecko) Chrome/88.0.4324.104 Safari/537.36","","","","","","","","50,55,60,65,70","media/audio/stims/spherical_300cm_s20_c20_cd-full_matched_a65.wav","spherical","20","20","full","matched","65","70","1782"
"echo-presentation","81","520926","0.0-81.0","5ffb5b3dc598145ab98eeea5","5fef55e628823a0076ec12ee","6018cad49b77d51cc391d407","Mozilla/5.0 (Windows NT 10.0; Win64; x64) AppleWebKit/537.36 (KHTML, like Gecko) Chrome/88.0.4324.104 Safari/537.36","","","","","","","","50,55,60,65,70","media/audio/stims/spherical_300cm_s20_c20_cd-full_matched_a70.wav","spherical","20","20","full","matched","70","70","866"
"echo-presentation","82","524025","0.0-82.0","5ffb5b3dc598145ab98eeea5","5fef55e628823a0076ec12ee","6018cad49b77d51cc391d407","Mozilla/5.0 (Windows NT 10.0; Win64; x64) AppleWebKit/537.36 (KHTML, like Gecko) Chrome/88.0.4324.104 Safari/537.36","","","","","","","","50,55,60,65,70","media/audio/stims/spherical_300cm_s20_c20_cd-full_matched_a55.wav","spherical","20","20","full","matched","55","60","1787"
"echo-presentation","83","527729","0.0-83.0","5ffb5b3dc598145ab98eeea5","5fef55e628823a0076ec12ee","6018cad49b77d51cc391d407","Mozilla/5.0 (Windows NT 10.0; Win64; x64) AppleWebKit/537.36 (KHTML, like Gecko) Chrome/88.0.4324.104 Safari/537.36","","","","","","","","50,55,60,65,70","media/audio/stims/spherical_300cm_s20_c20_cd-full_matched_a50.wav","spherical","20","20","full","matched","50","50","1748"
"echo-presentation","84","530431","0.0-84.0","5ffb5b3dc598145ab98eeea5","5fef55e628823a0076ec12ee","6018cad49b77d51cc391d407","Mozilla/5.0 (Windows NT 10.0; Win64; x64) AppleWebKit/537.36 (KHTML, like Gecko) Chrome/88.0.4324.104 Safari/537.36","","","","","","","","50,55,60,65,70","media/audio/stims/spherical_300cm_s20_c20_cd-full_matched_a60.wav","spherical","20","20","full","matched","60","60","1562"
"echo-presentation","85","532536","0.0-85.0","5ffb5b3dc598145ab98eeea5","5fef55e628823a0076ec12ee","6018cad49b77d51cc391d407","Mozilla/5.0 (Windows NT 10.0; Win64; x64) AppleWebKit/537.36 (KHTML, like Gecko) Chrome/88.0.4324.104 Safari/537.36","","","","","","","","50,55,60,65,70","media/audio/stims/spherical_300cm_s20_c20_cd-full_matched_a65.wav","spherical","20","20","full","matched","65","55","847"
"echo-presentation","86","535242","0.0-86.0","5ffb5b3dc598145ab98eeea5","5fef55e628823a0076ec12ee","6018cad49b77d51cc391d407","Mozilla/5.0 (Windows NT 10.0; Win64; x64) AppleWebKit/537.36 (KHTML, like Gecko) Chrome/88.0.4324.104 Safari/537.36","","","","","","","","50,55,60,65,70","media/audio/stims/spherical_300cm_s20_c20_cd-full_matched_a60.wav","spherical","20","20","full","matched","60","60","1723"
"echo-presentation","87","537518","0.0-87.0","5ffb5b3dc598145ab98eeea5","5fef55e628823a0076ec12ee","6018cad49b77d51cc391d407","Mozilla/5.0 (Windows NT 10.0; Win64; x64) AppleWebKit/537.36 (KHTML, like Gecko) Chrome/88.0.4324.104 Safari/537.36","","","","","","","","50,55,60,65,70","media/audio/stims/spherical_300cm_s20_c20_cd-full_matched_a55.wav","spherical","20","20","full","matched","55","55","1362"
"echo-presentation","88","539425","0.0-88.0","5ffb5b3dc598145ab98eeea5","5fef55e628823a0076ec12ee","6018cad49b77d51cc391d407","Mozilla/5.0 (Windows NT 10.0; Win64; x64) AppleWebKit/537.36 (KHTML, like Gecko) Chrome/88.0.4324.104 Safari/537.36","","","","","","","","50,55,60,65,70","media/audio/stims/spherical_300cm_s20_c20_cd-full_matched_a55.wav","spherical","20","20","full","matched","55","55","1163"
"echo-presentation","89","541334","0.0-89.0","5ffb5b3dc598145ab98eeea5","5fef55e628823a0076ec12ee","6018cad49b77d51cc391d407","Mozilla/5.0 (Windows NT 10.0; Win64; x64) AppleWebKit/537.36 (KHTML, like Gecko) Chrome/88.0.4324.104 Safari/537.36","","","","","","","","50,55,60,65,70","media/audio/stims/spherical_300cm_s20_c20_cd-full_matched_a65.wav","spherical","20","20","full","matched","65","55","1078"
"echo-presentation","90","543298","0.0-90.0","5ffb5b3dc598145ab98eeea5","5fef55e628823a0076ec12ee","6018cad49b77d51cc391d407","Mozilla/5.0 (Windows NT 10.0; Win64; x64) AppleWebKit/537.36 (KHTML, like Gecko) Chrome/88.0.4324.104 Safari/537.36","","","","","","","","50,55,60,65,70","media/audio/stims/spherical_300cm_s20_c20_cd-full_matched_a60.wav","spherical","20","20","full","matched","60","50","1200"
"echo-presentation","91","545043","0.0-91.0","5ffb5b3dc598145ab98eeea5","5fef55e628823a0076ec12ee","6018cad49b77d51cc391d407","Mozilla/5.0 (Windows NT 10.0; Win64; x64) AppleWebKit/537.36 (KHTML, like Gecko) Chrome/88.0.4324.104 Safari/537.36","","","","","","","","50,55,60,65,70","media/audio/stims/spherical_300cm_s20_c20_cd-full_matched_a60.wav","spherical","20","20","full","matched","60","50","941"
"echo-presentation","92","547032","0.0-92.0","5ffb5b3dc598145ab98eeea5","5fef55e628823a0076ec12ee","6018cad49b77d51cc391d407","Mozilla/5.0 (Windows NT 10.0; Win64; x64) AppleWebKit/537.36 (KHTML, like Gecko) Chrome/88.0.4324.104 Safari/537.36","","","","","","","","50,55,60,65,70","media/audio/stims/spherical_300cm_s20_c20_cd-full_matched_a70.wav","spherical","20","20","full","matched","70","55","1179"
"echo-presentation","93","549536","0.0-93.0","5ffb5b3dc598145ab98eeea5","5fef55e628823a0076ec12ee","6018cad49b77d51cc391d407","Mozilla/5.0 (Windows NT 10.0; Win64; x64) AppleWebKit/537.36 (KHTML, like Gecko) Chrome/88.0.4324.104 Safari/537.36","","","","","","","","50,55,60,65,70","media/audio/stims/spherical_300cm_s20_c20_cd-full_matched_a70.wav","spherical","20","20","full","matched","70","50","1400"
"block-bookend","94","550912","0.0-94.0","5ffb5b3dc598145ab98eeea5","5fef55e628823a0076ec12ee","6018cad49b77d51cc391d407","Mozilla/5.0 (Windows NT 10.0; Win64; x64) AppleWebKit/537.36 (KHTML, like Gecko) Chrome/88.0.4324.104 Safari/537.36","","","","","","","","","","","","","","","","",""
"block-bookend","95","556078","0.0-95.0","5ffb5b3dc598145ab98eeea5","5fef55e628823a0076ec12ee","6018cad49b77d51cc391d407","Mozilla/5.0 (Windows NT 10.0; Win64; x64) AppleWebKit/537.36 (KHTML, like Gecko) Chrome/88.0.4324.104 Safari/537.36","","","","","","","","","","","","","","","","",""
"echo-presentation","96","562858","0.0-96.0","5ffb5b3dc598145ab98eeea5","5fef55e628823a0076ec12ee","6018cad49b77d51cc391d407","Mozilla/5.0 (Windows NT 10.0; Win64; x64) AppleWebKit/537.36 (KHTML, like Gecko) Chrome/88.0.4324.104 Safari/537.36","","","","","","","","-10,-5,0,5,10","media/audio/stims/spherical_300cm_s20_c20_cd-full_matched_a-10.wav","spherical","20","20","full","matched","-10","5","3721"
"echo-presentation","97","565825","0.0-97.0","5ffb5b3dc598145ab98eeea5","5fef55e628823a0076ec12ee","6018cad49b77d51cc391d407","Mozilla/5.0 (Windows NT 10.0; Win64; x64) AppleWebKit/537.36 (KHTML, like Gecko) Chrome/88.0.4324.104 Safari/537.36","","","","","","","","-10,-5,0,5,10","media/audio/stims/spherical_300cm_s20_c20_cd-full_matched_a10.wav","spherical","20","20","full","matched","10","5","1573"
"echo-presentation","98","568548","0.0-98.0","5ffb5b3dc598145ab98eeea5","5fef55e628823a0076ec12ee","6018cad49b77d51cc391d407","Mozilla/5.0 (Windows NT 10.0; Win64; x64) AppleWebKit/537.36 (KHTML, like Gecko) Chrome/88.0.4324.104 Safari/537.36","","","","","","","","-10,-5,0,5,10","media/audio/stims/spherical_300cm_s20_c20_cd-full_matched_a0.wav","spherical","20","20","full","matched","0","10","1663"
"echo-presentation","99","570809","0.0-99.0","5ffb5b3dc598145ab98eeea5","5fef55e628823a0076ec12ee","6018cad49b77d51cc391d407","Mozilla/5.0 (Windows NT 10.0; Win64; x64) AppleWebKit/537.36 (KHTML, like Gecko) Chrome/88.0.4324.104 Safari/537.36","","","","","","","","-10,-5,0,5,10","media/audio/stims/spherical_300cm_s20_c20_cd-full_matched_a-5.wav","spherical","20","20","full","matched","-5","10","1159"
"echo-presentation","100","572858","0.0-100.0","5ffb5b3dc598145ab98eeea5","5fef55e628823a0076ec12ee","6018cad49b77d51cc391d407","Mozilla/5.0 (Windows NT 10.0; Win64; x64) AppleWebKit/537.36 (KHTML, like Gecko) Chrome/88.0.4324.104 Safari/537.36","","","","","","","","-10,-5,0,5,10","media/audio/stims/spherical_300cm_s20_c20_cd-full_matched_a0.wav","spherical","20","20","full","matched","0","10","1154"
"echo-presentation","101","574903","0.0-101.0","5ffb5b3dc598145ab98eeea5","5fef55e628823a0076ec12ee","6018cad49b77d51cc391d407","Mozilla/5.0 (Windows NT 10.0; Win64; x64) AppleWebKit/537.36 (KHTML, like Gecko) Chrome/88.0.4324.104 Safari/537.36","","","","","","","","-10,-5,0,5,10","media/audio/stims/spherical_300cm_s20_c20_cd-full_matched_a10.wav","spherical","20","20","full","matched","10","0","1200"
"echo-presentation","102","577438","0.0-102.0","5ffb5b3dc598145ab98eeea5","5fef55e628823a0076ec12ee","6018cad49b77d51cc391d407","Mozilla/5.0 (Windows NT 10.0; Win64; x64) AppleWebKit/537.36 (KHTML, like Gecko) Chrome/88.0.4324.104 Safari/537.36","","","","","","","","-10,-5,0,5,10","media/audio/stims/spherical_300cm_s20_c20_cd-full_matched_a0.wav","spherical","20","20","full","matched","0","5","887"
"echo-presentation","103","579358","0.0-103.0","5ffb5b3dc598145ab98eeea5","5fef55e628823a0076ec12ee","6018cad49b77d51cc391d407","Mozilla/5.0 (Windows NT 10.0; Win64; x64) AppleWebKit/537.36 (KHTML, like Gecko) Chrome/88.0.4324.104 Safari/537.36","","","","","","","","-10,-5,0,5,10","media/audio/stims/spherical_300cm_s20_c20_cd-full_matched_a-10.wav","spherical","20","20","full","matched","-10","5","947"
"echo-presentation","104","581247","0.0-104.0","5ffb5b3dc598145ab98eeea5","5fef55e628823a0076ec12ee","6018cad49b77d51cc391d407","Mozilla/5.0 (Windows NT 10.0; Win64; x64) AppleWebKit/537.36 (KHTML, like Gecko) Chrome/88.0.4324.104 Safari/537.36","","","","","","","","-10,-5,0,5,10","media/audio/stims/spherical_300cm_s20_c20_cd-full_matched_a5.wav","spherical","20","20","full","matched","5","5","1089"
"echo-presentation","105","583237","0.0-105.0","5ffb5b3dc598145ab98eeea5","5fef55e628823a0076ec12ee","6018cad49b77d51cc391d407","Mozilla/5.0 (Windows NT 10.0; Win64; x64) AppleWebKit/537.36 (KHTML, like Gecko) Chrome/88.0.4324.104 Safari/537.36","","","","","","","","-10,-5,0,5,10","media/audio/stims/spherical_300cm_s20_c20_cd-full_matched_a-10.wav","spherical","20","20","full","matched","-10","5","886"
"echo-presentation","106","585031","0.0-106.0","5ffb5b3dc598145ab98eeea5","5fef55e628823a0076ec12ee","6018cad49b77d51cc391d407","Mozilla/5.0 (Windows NT 10.0; Win64; x64) AppleWebKit/537.36 (KHTML, like Gecko) Chrome/88.0.4324.104 Safari/537.36","","","","","","","","-10,-5,0,5,10","media/audio/stims/spherical_300cm_s20_c20_cd-full_matched_a-5.wav","spherical","20","20","full","matched","-5","5","939"
"echo-presentation","107","586871","0.0-107.0","5ffb5b3dc598145ab98eeea5","5fef55e628823a0076ec12ee","6018cad49b77d51cc391d407","Mozilla/5.0 (Windows NT 10.0; Win64; x64) AppleWebKit/537.36 (KHTML, like Gecko) Chrome/88.0.4324.104 Safari/537.36","","","","","","","","-10,-5,0,5,10","media/audio/stims/spherical_300cm_s20_c20_cd-full_matched_a10.wav","spherical","20","20","full","matched","10","5","895"
"echo-presentation","108","588766","0.0-108.0","5ffb5b3dc598145ab98eeea5","5fef55e628823a0076ec12ee","6018cad49b77d51cc391d407","Mozilla/5.0 (Windows NT 10.0; Win64; x64) AppleWebKit/537.36 (KHTML, like Gecko) Chrome/88.0.4324.104 Safari/537.36","","","","","","","","-10,-5,0,5,10","media/audio/stims/spherical_300cm_s20_c20_cd-full_matched_a-5.wav","spherical","20","20","full","matched","-5","5","879"
"echo-presentation","109","590491","0.0-109.0","5ffb5b3dc598145ab98eeea5","5fef55e628823a0076ec12ee","6018cad49b77d51cc391d407","Mozilla/5.0 (Windows NT 10.0; Win64; x64) AppleWebKit/537.36 (KHTML, like Gecko) Chrome/88.0.4324.104 Safari/537.36","","","","","","","","-10,-5,0,5,10","media/audio/stims/spherical_300cm_s20_c20_cd-full_matched_a-10.wav","spherical","20","20","full","matched","-10","0","894"
"echo-presentation","110","592256","0.0-110.0","5ffb5b3dc598145ab98eeea5","5fef55e628823a0076ec12ee","6018cad49b77d51cc391d407","Mozilla/5.0 (Windows NT 10.0; Win64; x64) AppleWebKit/537.36 (KHTML, like Gecko) Chrome/88.0.4324.104 Safari/537.36","","","","","","","","-10,-5,0,5,10","media/audio/stims/spherical_300cm_s20_c20_cd-full_matched_a-5.wav","spherical","20","20","full","matched","-5","0","931"
"echo-presentation","111","594385","0.0-111.0","5ffb5b3dc598145ab98eeea5","5fef55e628823a0076ec12ee","6018cad49b77d51cc391d407","Mozilla/5.0 (Windows NT 10.0; Win64; x64) AppleWebKit/537.36 (KHTML, like Gecko) Chrome/88.0.4324.104 Safari/537.36","","","","","","","","-10,-5,0,5,10","media/audio/stims/spherical_300cm_s20_c20_cd-full_matched_a10.wav","spherical","20","20","full","matched","10","5","1277"
"echo-presentation","112","596070","0.0-112.0","5ffb5b3dc598145ab98eeea5","5fef55e628823a0076ec12ee","6018cad49b77d51cc391d407","Mozilla/5.0 (Windows NT 10.0; Win64; x64) AppleWebKit/537.36 (KHTML, like Gecko) Chrome/88.0.4324.104 Safari/537.36","","","","","","","","-10,-5,0,5,10","media/audio/stims/spherical_300cm_s20_c20_cd-full_matched_a5.wav","spherical","20","20","full","matched","5","5","930"
"echo-presentation","113","599211","0.0-113.0","5ffb5b3dc598145ab98eeea5","5fef55e628823a0076ec12ee","6018cad49b77d51cc391d407","Mozilla/5.0 (Windows NT 10.0; Win64; x64) AppleWebKit/537.36 (KHTML, like Gecko) Chrome/88.0.4324.104 Safari/537.36","","","","","","","","-10,-5,0,5,10","media/audio/stims/spherical_300cm_s20_c20_cd-full_matched_a5.wav","spherical","20","20","full","matched","5","5","843"
"echo-presentation","114","601718","0.0-114.0","5ffb5b3dc598145ab98eeea5","5fef55e628823a0076ec12ee","6018cad49b77d51cc391d407","Mozilla/5.0 (Windows NT 10.0; Win64; x64) AppleWebKit/537.36 (KHTML, like Gecko) Chrome/88.0.4324.104 Safari/537.36","","","","","","","","-10,-5,0,5,10","media/audio/stims/spherical_300cm_s20_c20_cd-full_matched_a5.wav","spherical","20","20","full","matched","5","0","1347"
"echo-presentation","115","603482","0.0-115.0","5ffb5b3dc598145ab98eeea5","5fef55e628823a0076ec12ee","6018cad49b77d51cc391d407","Mozilla/5.0 (Windows NT 10.0; Win64; x64) AppleWebKit/537.36 (KHTML, like Gecko) Chrome/88.0.4324.104 Safari/537.36","","","","","","","","-10,-5,0,5,10","media/audio/stims/spherical_300cm_s20_c20_cd-full_matched_a0.wav","spherical","20","20","full","matched","0","0","1010"
"block-bookend","116","604601","0.0-116.0","5ffb5b3dc598145ab98eeea5","5fef55e628823a0076ec12ee","6018cad49b77d51cc391d407","Mozilla/5.0 (Windows NT 10.0; Win64; x64) AppleWebKit/537.36 (KHTML, like Gecko) Chrome/88.0.4324.104 Safari/537.36","","","","","","","","","","","","","","","","",""
"block-bookend","117","610982","0.0-117.0","5ffb5b3dc598145ab98eeea5","5fef55e628823a0076ec12ee","6018cad49b77d51cc391d407","Mozilla/5.0 (Windows NT 10.0; Win64; x64) AppleWebKit/537.36 (KHTML, like Gecko) Chrome/88.0.4324.104 Safari/537.36","","","","","","","","","","","","","","","","",""
"echo-presentation","118","614779","0.0-118.0","5ffb5b3dc598145ab98eeea5","5fef55e628823a0076ec12ee","6018cad49b77d51cc391d407","Mozilla/5.0 (Windows NT 10.0; Win64; x64) AppleWebKit/537.36 (KHTML, like Gecko) Chrome/88.0.4324.104 Safari/537.36","","","","","","","","-70,-65,-60,-55,-50","media/audio/stims/spherical_300cm_s20_c20_cd-full_matched_a-70.wav","spherical","20","20","full","matched","-70","-55","2211"
"echo-presentation","119","618477","0.0-119.0","5ffb5b3dc598145ab98eeea5","5fef55e628823a0076ec12ee","6018cad49b77d51cc391d407","Mozilla/5.0 (Windows NT 10.0; Win64; x64) AppleWebKit/537.36 (KHTML, like Gecko) Chrome/88.0.4324.104 Safari/537.36","","","","","","","","-70,-65,-60,-55,-50","media/audio/stims/spherical_300cm_s20_c20_cd-full_matched_a-50.wav","spherical","20","20","full","matched","-50","-70","2859"
"echo-presentation","120","622092","0.0-120.0","5ffb5b3dc598145ab98eeea5","5fef55e628823a0076ec12ee","6018cad49b77d51cc391d407","Mozilla/5.0 (Windows NT 10.0; Win64; x64) AppleWebKit/537.36 (KHTML, like Gecko) Chrome/88.0.4324.104 Safari/537.36","","","","","","","","-70,-65,-60,-55,-50","media/audio/stims/spherical_300cm_s20_c20_cd-full_matched_a-50.wav","spherical","20","20","full","matched","-50","-55","1633"
"echo-presentation","121","624899","0.0-121.0","5ffb5b3dc598145ab98eeea5","5fef55e628823a0076ec12ee","6018cad49b77d51cc391d407","Mozilla/5.0 (Windows NT 10.0; Win64; x64) AppleWebKit/537.36 (KHTML, like Gecko) Chrome/88.0.4324.104 Safari/537.36","","","","","","","","-70,-65,-60,-55,-50","media/audio/stims/spherical_300cm_s20_c20_cd-full_matched_a-65.wav","spherical","20","20","full","matched","-65","-60","1986"
"echo-presentation","122","627366","0.0-122.0","5ffb5b3dc598145ab98eeea5","5fef55e628823a0076ec12ee","6018cad49b77d51cc391d407","Mozilla/5.0 (Windows NT 10.0; Win64; x64) AppleWebKit/537.36 (KHTML, like Gecko) Chrome/88.0.4324.104 Safari/537.36","","","","","","","","-70,-65,-60,-55,-50","media/audio/stims/spherical_300cm_s20_c20_cd-full_matched_a-65.wav","spherical","20","20","full","matched","-65","-60","1688"
"echo-presentation","123","629550","0.0-123.0","5ffb5b3dc598145ab98eeea5","5fef55e628823a0076ec12ee","6018cad49b77d51cc391d407","Mozilla/5.0 (Windows NT 10.0; Win64; x64) AppleWebKit/537.36 (KHTML, like Gecko) Chrome/88.0.4324.104 Safari/537.36","","","","","","","","-70,-65,-60,-55,-50","media/audio/stims/spherical_300cm_s20_c20_cd-full_matched_a-65.wav","spherical","20","20","full","matched","-65","-55","1229"
"echo-presentation","124","631380","0.0-124.0","5ffb5b3dc598145ab98eeea5","5fef55e628823a0076ec12ee","6018cad49b77d51cc391d407","Mozilla/5.0 (Windows NT 10.0; Win64; x64) AppleWebKit/537.36 (KHTML, like Gecko) Chrome/88.0.4324.104 Safari/537.36","","","","","","","","-70,-65,-60,-55,-50","media/audio/stims/spherical_300cm_s20_c20_cd-full_matched_a-55.wav","spherical","20","20","full","matched","-55","-55","990"
"echo-presentation","125","633113","0.0-125.0","5ffb5b3dc598145ab98eeea5","5fef55e628823a0076ec12ee","6018cad49b77d51cc391d407","Mozilla/5.0 (Windows NT 10.0; Win64; x64) AppleWebKit/537.36 (KHTML, like Gecko) Chrome/88.0.4324.104 Safari/537.36","","","","","","","","-70,-65,-60,-55,-50","media/audio/stims/spherical_300cm_s20_c20_cd-full_matched_a-70.wav","spherical","20","20","full","matched","-70","-55","843"
"echo-presentation","126","634746","0.0-126.0","5ffb5b3dc598145ab98eeea5","5fef55e628823a0076ec12ee","6018cad49b77d51cc391d407","Mozilla/5.0 (Windows NT 10.0; Win64; x64) AppleWebKit/537.36 (KHTML, like Gecko) Chrome/88.0.4324.104 Safari/537.36","","","","","","","","-70,-65,-60,-55,-50","media/audio/stims/spherical_300cm_s20_c20_cd-full_matched_a-60.wav","spherical","20","20","full","matched","-60","-55","805"
"echo-presentation","127","636828","0.0-127.0","5ffb5b3dc598145ab98eeea5","5fef55e628823a0076ec12ee","6018cad49b77d51cc391d407","Mozilla/5.0 (Windows NT 10.0; Win64; x64) AppleWebKit/537.36 (KHTML, like Gecko) Chrome/88.0.4324.104 Safari/537.36","","","","","","","","-70,-65,-60,-55,-50","media/audio/stims/spherical_300cm_s20_c20_cd-full_matched_a-70.wav","spherical","20","20","full","matched","-70","-60","1268"
"echo-presentation","128","639166","0.0-128.0","5ffb5b3dc598145ab98eeea5","5fef55e628823a0076ec12ee","6018cad49b77d51cc391d407","Mozilla/5.0 (Windows NT 10.0; Win64; x64) AppleWebKit/537.36 (KHTML, like Gecko) Chrome/88.0.4324.104 Safari/537.36","","","","","","","","-70,-65,-60,-55,-50","media/audio/stims/spherical_300cm_s20_c20_cd-full_matched_a-65.wav","spherical","20","20","full","matched","-65","-60","1484"
"echo-presentation","129","640936","0.0-129.0","5ffb5b3dc598145ab98eeea5","5fef55e628823a0076ec12ee","6018cad49b77d51cc391d407","Mozilla/5.0 (Windows NT 10.0; Win64; x64) AppleWebKit/537.36 (KHTML, like Gecko) Chrome/88.0.4324.104 Safari/537.36","","","","","","","","-70,-65,-60,-55,-50","media/audio/stims/spherical_300cm_s20_c20_cd-full_matched_a-50.wav","spherical","20","20","full","matched","-50","-60","1053"
"echo-presentation","130","642651","0.0-130.0","5ffb5b3dc598145ab98eeea5","5fef55e628823a0076ec12ee","6018cad49b77d51cc391d407","Mozilla/5.0 (Windows NT 10.0; Win64; x64) AppleWebKit/537.36 (KHTML, like Gecko) Chrome/88.0.4324.104 Safari/537.36","","","","","","","","-70,-65,-60,-55,-50","media/audio/stims/spherical_300cm_s20_c20_cd-full_matched_a-60.wav","spherical","20","20","full","matched","-60","-65","930"
"echo-presentation","131","644604","0.0-131.0","5ffb5b3dc598145ab98eeea5","5fef55e628823a0076ec12ee","6018cad49b77d51cc391d407","Mozilla/5.0 (Windows NT 10.0; Win64; x64) AppleWebKit/537.36 (KHTML, like Gecko) Chrome/88.0.4324.104 Safari/537.36","","","","","","","","-70,-65,-60,-55,-50","media/audio/stims/spherical_300cm_s20_c20_cd-full_matched_a-60.wav","spherical","20","20","full","matched","-60","-65","1163"
"echo-presentation","132","646478","0.0-132.0","5ffb5b3dc598145ab98eeea5","5fef55e628823a0076ec12ee","6018cad49b77d51cc391d407","Mozilla/5.0 (Windows NT 10.0; Win64; x64) AppleWebKit/537.36 (KHTML, like Gecko) Chrome/88.0.4324.104 Safari/537.36","","","","","","","","-70,-65,-60,-55,-50","media/audio/stims/spherical_300cm_s20_c20_cd-full_matched_a-55.wav","spherical","20","20","full","matched","-55","-65","999"
"echo-presentation","133","648453","0.0-133.0","5ffb5b3dc598145ab98eeea5","5fef55e628823a0076ec12ee","6018cad49b77d51cc391d407","Mozilla/5.0 (Windows NT 10.0; Win64; x64) AppleWebKit/537.36 (KHTML, like Gecko) Chrome/88.0.4324.104 Safari/537.36","","","","","","","","-70,-65,-60,-55,-50","media/audio/stims/spherical_300cm_s20_c20_cd-full_matched_a-55.wav","spherical","20","20","full","matched","-55","-65","1010"
"echo-presentation","134","650736","0.0-134.0","5ffb5b3dc598145ab98eeea5","5fef55e628823a0076ec12ee","6018cad49b77d51cc391d407","Mozilla/5.0 (Windows NT 10.0; Win64; x64) AppleWebKit/537.36 (KHTML, like Gecko) Chrome/88.0.4324.104 Safari/537.36","","","","","","","","-70,-65,-60,-55,-50","media/audio/stims/spherical_300cm_s20_c20_cd-full_matched_a-60.wav","spherical","20","20","full","matched","-60","-70","1403"
"echo-presentation","135","652461","0.0-135.0","5ffb5b3dc598145ab98eeea5","5fef55e628823a0076ec12ee","6018cad49b77d51cc391d407","Mozilla/5.0 (Windows NT 10.0; Win64; x64) AppleWebKit/537.36 (KHTML, like Gecko) Chrome/88.0.4324.104 Safari/537.36","","","","","","","","-70,-65,-60,-55,-50","media/audio/stims/spherical_300cm_s20_c20_cd-full_matched_a-50.wav","spherical","20","20","full","matched","-50","-70","984"
"echo-presentation","136","654386","0.0-136.0","5ffb5b3dc598145ab98eeea5","5fef55e628823a0076ec12ee","6018cad49b77d51cc391d407","Mozilla/5.0 (Windows NT 10.0; Win64; x64) AppleWebKit/537.36 (KHTML, like Gecko) Chrome/88.0.4324.104 Safari/537.36","","","","","","","","-70,-65,-60,-55,-50","media/audio/stims/spherical_300cm_s20_c20_cd-full_matched_a-70.wav","spherical","20","20","full","matched","-70","-70","959"
"echo-presentation","137","656260","0.0-137.0","5ffb5b3dc598145ab98eeea5","5fef55e628823a0076ec12ee","6018cad49b77d51cc391d407","Mozilla/5.0 (Windows NT 10.0; Win64; x64) AppleWebKit/537.36 (KHTML, like Gecko) Chrome/88.0.4324.104 Safari/537.36","","","","","","","","-70,-65,-60,-55,-50","media/audio/stims/spherical_300cm_s20_c20_cd-full_matched_a-55.wav","spherical","20","20","full","matched","-55","-70","1044"
"block-bookend","138","658052","0.0-138.0","5ffb5b3dc598145ab98eeea5","5fef55e628823a0076ec12ee","6018cad49b77d51cc391d407","Mozilla/5.0 (Windows NT 10.0; Win64; x64) AppleWebKit/537.36 (KHTML, like Gecko) Chrome/88.0.4324.104 Safari/537.36","","","","","","","","","","","","","","","","",""
