"trial_type","trial_index","time_elapsed","internal_node_id","prolificPid","studyId","sessionId","userAgent","rt","stimulus","key_press","chosenKeyset","failureCount","testIndex","globalVolume","choices","filename","modelName","slowdown","compensation","compensationDescriptor","receiverOrientationType","azimuth","responseAzimuth","responseDelay"
"pavlovia","0","13","0.0-0.0","5b27a45f0ec82d0001d22d33","5fef55e628823a0076ec12ee","6018cabd2151631cfa848a7e","Mozilla/5.0 (Windows NT 10.0; Win64; x64) AppleWebKit/537.36 (KHTML, like Gecko) Chrome/88.0.4324.104 Safari/537.36","","","","","","","","","","","","","","","","",""
"html-keyboard-response","1","765282","0.0-1.0","5b27a45f0ec82d0001d22d33","5fef55e628823a0076ec12ee","6018cabd2151631cfa848a7e","Mozilla/5.0 (Windows NT 10.0; Win64; x64) AppleWebKit/537.36 (KHTML, like Gecko) Chrome/88.0.4324.104 Safari/537.36","765266.105000017","<div><h1>Welcome!</h1><p>Press any key to continue.</p></div>","79","","","","","","","","","","","","","",""
"consent-form","2","1149576","0.0-2.0","5b27a45f0ec82d0001d22d33","5fef55e628823a0076ec12ee","6018cabd2151631cfa848a7e","Mozilla/5.0 (Windows NT 10.0; Win64; x64) AppleWebKit/537.36 (KHTML, like Gecko) Chrome/88.0.4324.104 Safari/537.36","","","","","","","","","","","","","","","","",""
"keyset-select","3","1277073","0.0-3.0","5b27a45f0ec82d0001d22d33","5fef55e628823a0076ec12ee","6018cabd2151631cfa848a7e","Mozilla/5.0 (Windows NT 10.0; Win64; x64) AppleWebKit/537.36 (KHTML, like Gecko) Chrome/88.0.4324.104 Safari/537.36","","","","left-hand","","","","","","","","","","","","",""
"headphone-check","4","1450999","0.0-4.0","5b27a45f0ec82d0001d22d33","5fef55e628823a0076ec12ee","6018cabd2151631cfa848a7e","Mozilla/5.0 (Windows NT 10.0; Win64; x64) AppleWebKit/537.36 (KHTML, like Gecko) Chrome/88.0.4324.104 Safari/537.36","","","","","0","6","0.3","","","","","","","","","",""
"headphone-backwards-check","5","2246187","0.0-5.0","5b27a45f0ec82d0001d22d33","5fef55e628823a0076ec12ee","6018cabd2151631cfa848a7e","Mozilla/5.0 (Windows NT 10.0; Win64; x64) AppleWebKit/537.36 (KHTML, like Gecko) Chrome/88.0.4324.104 Safari/537.36","","","","","0","","","","","","","","","","","",""
"training","6","2585920","0.0-6.0","5b27a45f0ec82d0001d22d33","5fef55e628823a0076ec12ee","6018cabd2151631cfa848a7e","Mozilla/5.0 (Windows NT 10.0; Win64; x64) AppleWebKit/537.36 (KHTML, like Gecko) Chrome/88.0.4324.104 Safari/537.36","","","","","","","","","","","","","","","","",""
"block-bookend","7","2622161","0.0-7.0","5b27a45f0ec82d0001d22d33","5fef55e628823a0076ec12ee","6018cabd2151631cfa848a7e","Mozilla/5.0 (Windows NT 10.0; Win64; x64) AppleWebKit/537.36 (KHTML, like Gecko) Chrome/88.0.4324.104 Safari/537.36","","","","","","","","","","","","","","","","",""
"echo-presentation","8","2638827","0.0-8.0","5b27a45f0ec82d0001d22d33","5fef55e628823a0076ec12ee","6018cabd2151631cfa848a7e","Mozilla/5.0 (Windows NT 10.0; Win64; x64) AppleWebKit/537.36 (KHTML, like Gecko) Chrome/88.0.4324.104 Safari/537.36","","","","","","","","-10,-5,0,5,10","media/audio/stims/spherical_300cm_s20_c20_cd-full_matched_a-5.wav","spherical","20","20","full","matched","-5","-10","8869"
"echo-presentation","9","2643385","0.0-9.0","5b27a45f0ec82d0001d22d33","5fef55e628823a0076ec12ee","6018cabd2151631cfa848a7e","Mozilla/5.0 (Windows NT 10.0; Win64; x64) AppleWebKit/537.36 (KHTML, like Gecko) Chrome/88.0.4324.104 Safari/537.36","","","","","","","","-10,-5,0,5,10","media/audio/stims/spherical_300cm_s20_c20_cd-full_matched_a10.wav","spherical","20","20","full","matched","10","-10","1684"
"echo-presentation","10","2648127","0.0-10.0","5b27a45f0ec82d0001d22d33","5fef55e628823a0076ec12ee","6018cabd2151631cfa848a7e","Mozilla/5.0 (Windows NT 10.0; Win64; x64) AppleWebKit/537.36 (KHTML, like Gecko) Chrome/88.0.4324.104 Safari/537.36","","","","","","","","-10,-5,0,5,10","media/audio/stims/spherical_300cm_s20_c20_cd-full_matched_a-5.wav","spherical","20","20","full","matched","-5","-10","2433"
"echo-presentation","11","2652810","0.0-11.0","5b27a45f0ec82d0001d22d33","5fef55e628823a0076ec12ee","6018cabd2151631cfa848a7e","Mozilla/5.0 (Windows NT 10.0; Win64; x64) AppleWebKit/537.36 (KHTML, like Gecko) Chrome/88.0.4324.104 Safari/537.36","","","","","","","","-10,-5,0,5,10","media/audio/stims/spherical_300cm_s20_c20_cd-full_matched_a0.wav","spherical","20","20","full","matched","0","-10","1891"
"echo-presentation","12","2656483","0.0-12.0","5b27a45f0ec82d0001d22d33","5fef55e628823a0076ec12ee","6018cabd2151631cfa848a7e","Mozilla/5.0 (Windows NT 10.0; Win64; x64) AppleWebKit/537.36 (KHTML, like Gecko) Chrome/88.0.4324.104 Safari/537.36","","","","","","","","-10,-5,0,5,10","media/audio/stims/spherical_300cm_s20_c20_cd-full_matched_a5.wav","spherical","20","20","full","matched","5","-10","1720"
"echo-presentation","13","2661311","0.0-13.0","5b27a45f0ec82d0001d22d33","5fef55e628823a0076ec12ee","6018cabd2151631cfa848a7e","Mozilla/5.0 (Windows NT 10.0; Win64; x64) AppleWebKit/537.36 (KHTML, like Gecko) Chrome/88.0.4324.104 Safari/537.36","","","","","","","","-10,-5,0,5,10","media/audio/stims/spherical_300cm_s20_c20_cd-full_matched_a-5.wav","spherical","20","20","full","matched","-5","-5","2385"
"echo-presentation","14","2666590","0.0-14.0","5b27a45f0ec82d0001d22d33","5fef55e628823a0076ec12ee","6018cabd2151631cfa848a7e","Mozilla/5.0 (Windows NT 10.0; Win64; x64) AppleWebKit/537.36 (KHTML, like Gecko) Chrome/88.0.4324.104 Safari/537.36","","","","","","","","-10,-5,0,5,10","media/audio/stims/spherical_300cm_s20_c20_cd-full_matched_a10.wav","spherical","20","20","full","matched","10","-10","2302"
"echo-presentation","15","2670976","0.0-15.0","5b27a45f0ec82d0001d22d33","5fef55e628823a0076ec12ee","6018cabd2151631cfa848a7e","Mozilla/5.0 (Windows NT 10.0; Win64; x64) AppleWebKit/537.36 (KHTML, like Gecko) Chrome/88.0.4324.104 Safari/537.36","","","","","","","","-10,-5,0,5,10","media/audio/stims/spherical_300cm_s20_c20_cd-full_matched_a5.wav","spherical","20","20","full","matched","5","-5","1957"
"echo-presentation","16","2674660","0.0-16.0","5b27a45f0ec82d0001d22d33","5fef55e628823a0076ec12ee","6018cabd2151631cfa848a7e","Mozilla/5.0 (Windows NT 10.0; Win64; x64) AppleWebKit/537.36 (KHTML, like Gecko) Chrome/88.0.4324.104 Safari/537.36","","","","","","","","-10,-5,0,5,10","media/audio/stims/spherical_300cm_s20_c20_cd-full_matched_a-5.wav","spherical","20","20","full","matched","-5","-5","1291"
"echo-presentation","17","2692955","0.0-17.0","5b27a45f0ec82d0001d22d33","5fef55e628823a0076ec12ee","6018cabd2151631cfa848a7e","Mozilla/5.0 (Windows NT 10.0; Win64; x64) AppleWebKit/537.36 (KHTML, like Gecko) Chrome/88.0.4324.104 Safari/537.36","","","","","","","","-10,-5,0,5,10","media/audio/stims/spherical_300cm_s20_c20_cd-full_matched_a10.wav","spherical","20","20","full","matched","10","-10","16598"
"echo-presentation","18","2699376","0.0-18.0","5b27a45f0ec82d0001d22d33","5fef55e628823a0076ec12ee","6018cabd2151631cfa848a7e","Mozilla/5.0 (Windows NT 10.0; Win64; x64) AppleWebKit/537.36 (KHTML, like Gecko) Chrome/88.0.4324.104 Safari/537.36","","","","","","","","-10,-5,0,5,10","media/audio/stims/spherical_300cm_s20_c20_cd-full_matched_a-10.wav","spherical","20","20","full","matched","-10","-10","2002"
"echo-presentation","19","2702499","0.0-19.0","5b27a45f0ec82d0001d22d33","5fef55e628823a0076ec12ee","6018cabd2151631cfa848a7e","Mozilla/5.0 (Windows NT 10.0; Win64; x64) AppleWebKit/537.36 (KHTML, like Gecko) Chrome/88.0.4324.104 Safari/537.36","","","","","","","","-10,-5,0,5,10","media/audio/stims/spherical_300cm_s20_c20_cd-full_matched_a5.wav","spherical","20","20","full","matched","5","-10","1553"
"echo-presentation","20","2710272","0.0-20.0","5b27a45f0ec82d0001d22d33","5fef55e628823a0076ec12ee","6018cabd2151631cfa848a7e","Mozilla/5.0 (Windows NT 10.0; Win64; x64) AppleWebKit/537.36 (KHTML, like Gecko) Chrome/88.0.4324.104 Safari/537.36","","","","","","","","-10,-5,0,5,10","media/audio/stims/spherical_300cm_s20_c20_cd-full_matched_a-10.wav","spherical","20","20","full","matched","-10","-10","3138"
"echo-presentation","21","2712742","0.0-21.0","5b27a45f0ec82d0001d22d33","5fef55e628823a0076ec12ee","6018cabd2151631cfa848a7e","Mozilla/5.0 (Windows NT 10.0; Win64; x64) AppleWebKit/537.36 (KHTML, like Gecko) Chrome/88.0.4324.104 Safari/537.36","","","","","","","","-10,-5,0,5,10","media/audio/stims/spherical_300cm_s20_c20_cd-full_matched_a0.wav","spherical","20","20","full","matched","0","-10","1333"
"echo-presentation","22","2715196","0.0-22.0","5b27a45f0ec82d0001d22d33","5fef55e628823a0076ec12ee","6018cabd2151631cfa848a7e","Mozilla/5.0 (Windows NT 10.0; Win64; x64) AppleWebKit/537.36 (KHTML, like Gecko) Chrome/88.0.4324.104 Safari/537.36","","","","","","","","-10,-5,0,5,10","media/audio/stims/spherical_300cm_s20_c20_cd-full_matched_a0.wav","spherical","20","20","full","matched","0","-10","1297"
"echo-presentation","23","2717007","0.0-23.0","5b27a45f0ec82d0001d22d33","5fef55e628823a0076ec12ee","6018cabd2151631cfa848a7e","Mozilla/5.0 (Windows NT 10.0; Win64; x64) AppleWebKit/537.36 (KHTML, like Gecko) Chrome/88.0.4324.104 Safari/537.36","","","","","","","","-10,-5,0,5,10","media/audio/stims/spherical_300cm_s20_c20_cd-full_matched_a-10.wav","spherical","20","20","full","matched","-10","-5","990"
"echo-presentation","24","2719035","0.0-24.0","5b27a45f0ec82d0001d22d33","5fef55e628823a0076ec12ee","6018cabd2151631cfa848a7e","Mozilla/5.0 (Windows NT 10.0; Win64; x64) AppleWebKit/537.36 (KHTML, like Gecko) Chrome/88.0.4324.104 Safari/537.36","","","","","","","","-10,-5,0,5,10","media/audio/stims/spherical_300cm_s20_c20_cd-full_matched_a5.wav","spherical","20","20","full","matched","5","-5","972"
"echo-presentation","25","2721055","0.0-25.0","5b27a45f0ec82d0001d22d33","5fef55e628823a0076ec12ee","6018cabd2151631cfa848a7e","Mozilla/5.0 (Windows NT 10.0; Win64; x64) AppleWebKit/537.36 (KHTML, like Gecko) Chrome/88.0.4324.104 Safari/537.36","","","","","","","","-10,-5,0,5,10","media/audio/stims/spherical_300cm_s20_c20_cd-full_matched_a10.wav","spherical","20","20","full","matched","10","-5","940"
"echo-presentation","26","2724005","0.0-26.0","5b27a45f0ec82d0001d22d33","5fef55e628823a0076ec12ee","6018cabd2151631cfa848a7e","Mozilla/5.0 (Windows NT 10.0; Win64; x64) AppleWebKit/537.36 (KHTML, like Gecko) Chrome/88.0.4324.104 Safari/537.36","","","","","","","","-10,-5,0,5,10","media/audio/stims/spherical_300cm_s20_c20_cd-full_matched_a-10.wav","spherical","20","20","full","matched","-10","-5","1898"
"echo-presentation","27","2728890","0.0-27.0","5b27a45f0ec82d0001d22d33","5fef55e628823a0076ec12ee","6018cabd2151631cfa848a7e","Mozilla/5.0 (Windows NT 10.0; Win64; x64) AppleWebKit/537.36 (KHTML, like Gecko) Chrome/88.0.4324.104 Safari/537.36","","","","","","","","-10,-5,0,5,10","media/audio/stims/spherical_300cm_s20_c20_cd-full_matched_a0.wav","spherical","20","20","full","matched","0","-5","3535"
"block-bookend","28","2733477","0.0-28.0","5b27a45f0ec82d0001d22d33","5fef55e628823a0076ec12ee","6018cabd2151631cfa848a7e","Mozilla/5.0 (Windows NT 10.0; Win64; x64) AppleWebKit/537.36 (KHTML, like Gecko) Chrome/88.0.4324.104 Safari/537.36","","","","","","","","","","","","","","","","",""
"block-bookend","29","2864545","0.0-29.0","5b27a45f0ec82d0001d22d33","5fef55e628823a0076ec12ee","6018cabd2151631cfa848a7e","Mozilla/5.0 (Windows NT 10.0; Win64; x64) AppleWebKit/537.36 (KHTML, like Gecko) Chrome/88.0.4324.104 Safari/537.36","","","","","","","","","","","","","","","","",""
"echo-presentation","30","2876738","0.0-30.0","5b27a45f0ec82d0001d22d33","5fef55e628823a0076ec12ee","6018cabd2151631cfa848a7e","Mozilla/5.0 (Windows NT 10.0; Win64; x64) AppleWebKit/537.36 (KHTML, like Gecko) Chrome/88.0.4324.104 Safari/537.36","","","","","","","","-10,-5,0,5,10","media/audio/stims/spherical_300cm_s20_c20_cd-full_matched_a5.wav","spherical","20","20","full","matched","5","-5","7988"
"echo-presentation","31","2879609","0.0-31.0","5b27a45f0ec82d0001d22d33","5fef55e628823a0076ec12ee","6018cabd2151631cfa848a7e","Mozilla/5.0 (Windows NT 10.0; Win64; x64) AppleWebKit/537.36 (KHTML, like Gecko) Chrome/88.0.4324.104 Safari/537.36","","","","","","","","-10,-5,0,5,10","media/audio/stims/spherical_300cm_s20_c20_cd-full_matched_a-5.wav","spherical","20","20","full","matched","-5","-5","1318"
"echo-presentation","32","2882443","0.0-32.0","5b27a45f0ec82d0001d22d33","5fef55e628823a0076ec12ee","6018cabd2151631cfa848a7e","Mozilla/5.0 (Windows NT 10.0; Win64; x64) AppleWebKit/537.36 (KHTML, like Gecko) Chrome/88.0.4324.104 Safari/537.36","","","","","","","","-10,-5,0,5,10","media/audio/stims/spherical_300cm_s20_c20_cd-full_matched_a10.wav","spherical","20","20","full","matched","10","-5","1314"
"echo-presentation","33","2884938","0.0-33.0","5b27a45f0ec82d0001d22d33","5fef55e628823a0076ec12ee","6018cabd2151631cfa848a7e","Mozilla/5.0 (Windows NT 10.0; Win64; x64) AppleWebKit/537.36 (KHTML, like Gecko) Chrome/88.0.4324.104 Safari/537.36","","","","","","","","-10,-5,0,5,10","media/audio/stims/spherical_300cm_s20_c20_cd-full_matched_a-10.wav","spherical","20","20","full","matched","-10","-5","991"
"echo-presentation","34","2887720","0.0-34.0","5b27a45f0ec82d0001d22d33","5fef55e628823a0076ec12ee","6018cabd2151631cfa848a7e","Mozilla/5.0 (Windows NT 10.0; Win64; x64) AppleWebKit/537.36 (KHTML, like Gecko) Chrome/88.0.4324.104 Safari/537.36","","","","","","","","-10,-5,0,5,10","media/audio/stims/spherical_300cm_s20_c20_cd-full_matched_a-5.wav","spherical","20","20","full","matched","-5","-5","1074"
"echo-presentation","35","2890333","0.0-35.0","5b27a45f0ec82d0001d22d33","5fef55e628823a0076ec12ee","6018cabd2151631cfa848a7e","Mozilla/5.0 (Windows NT 10.0; Win64; x64) AppleWebKit/537.36 (KHTML, like Gecko) Chrome/88.0.4324.104 Safari/537.36","","","","","","","","-10,-5,0,5,10","media/audio/stims/spherical_300cm_s20_c20_cd-full_matched_a-5.wav","spherical","20","20","full","matched","-5","-5","1120"
"echo-presentation","36","2892563","0.0-36.0","5b27a45f0ec82d0001d22d33","5fef55e628823a0076ec12ee","6018cabd2151631cfa848a7e","Mozilla/5.0 (Windows NT 10.0; Win64; x64) AppleWebKit/537.36 (KHTML, like Gecko) Chrome/88.0.4324.104 Safari/537.36","","","","","","","","-10,-5,0,5,10","media/audio/stims/spherical_300cm_s20_c20_cd-full_matched_a0.wav","spherical","20","20","full","matched","0","-5","1175"
"echo-presentation","37","2897087","0.0-37.0","5b27a45f0ec82d0001d22d33","5fef55e628823a0076ec12ee","6018cabd2151631cfa848a7e","Mozilla/5.0 (Windows NT 10.0; Win64; x64) AppleWebKit/537.36 (KHTML, like Gecko) Chrome/88.0.4324.104 Safari/537.36","","","","","","","","-10,-5,0,5,10","media/audio/stims/spherical_300cm_s20_c20_cd-full_matched_a10.wav","spherical","20","20","full","matched","10","-5","1326"
"echo-presentation","38","2901298","0.0-38.0","5b27a45f0ec82d0001d22d33","5fef55e628823a0076ec12ee","6018cabd2151631cfa848a7e","Mozilla/5.0 (Windows NT 10.0; Win64; x64) AppleWebKit/537.36 (KHTML, like Gecko) Chrome/88.0.4324.104 Safari/537.36","","","","","","","","-10,-5,0,5,10","media/audio/stims/spherical_300cm_s20_c20_cd-full_matched_a5.wav","spherical","20","20","full","matched","5","-5","1397"
"echo-presentation","39","2905434","0.0-39.0","5b27a45f0ec82d0001d22d33","5fef55e628823a0076ec12ee","6018cabd2151631cfa848a7e","Mozilla/5.0 (Windows NT 10.0; Win64; x64) AppleWebKit/537.36 (KHTML, like Gecko) Chrome/88.0.4324.104 Safari/537.36","","","","","","","","-10,-5,0,5,10","media/audio/stims/spherical_300cm_s20_c20_cd-full_matched_a-10.wav","spherical","20","20","full","matched","-10","-5","2036"
"echo-presentation","40","2907443","0.0-40.0","5b27a45f0ec82d0001d22d33","5fef55e628823a0076ec12ee","6018cabd2151631cfa848a7e","Mozilla/5.0 (Windows NT 10.0; Win64; x64) AppleWebKit/537.36 (KHTML, like Gecko) Chrome/88.0.4324.104 Safari/537.36","","","","","","","","-10,-5,0,5,10","media/audio/stims/spherical_300cm_s20_c20_cd-full_matched_a-10.wav","spherical","20","20","full","matched","-10","-5","1121"
"echo-presentation","41","2909318","0.0-41.0","5b27a45f0ec82d0001d22d33","5fef55e628823a0076ec12ee","6018cabd2151631cfa848a7e","Mozilla/5.0 (Windows NT 10.0; Win64; x64) AppleWebKit/537.36 (KHTML, like Gecko) Chrome/88.0.4324.104 Safari/537.36","","","","","","","","-10,-5,0,5,10","media/audio/stims/spherical_300cm_s20_c20_cd-full_matched_a-5.wav","spherical","20","20","full","matched","-5","-5","1016"
"echo-presentation","42","2911813","0.0-42.0","5b27a45f0ec82d0001d22d33","5fef55e628823a0076ec12ee","6018cabd2151631cfa848a7e","Mozilla/5.0 (Windows NT 10.0; Win64; x64) AppleWebKit/537.36 (KHTML, like Gecko) Chrome/88.0.4324.104 Safari/537.36","","","","","","","","-10,-5,0,5,10","media/audio/stims/spherical_300cm_s20_c20_cd-full_matched_a5.wav","spherical","20","20","full","matched","5","-5","1091"
"echo-presentation","43","2914298","0.0-43.0","5b27a45f0ec82d0001d22d33","5fef55e628823a0076ec12ee","6018cabd2151631cfa848a7e","Mozilla/5.0 (Windows NT 10.0; Win64; x64) AppleWebKit/537.36 (KHTML, like Gecko) Chrome/88.0.4324.104 Safari/537.36","","","","","","","","-10,-5,0,5,10","media/audio/stims/spherical_300cm_s20_c20_cd-full_matched_a5.wav","spherical","20","20","full","matched","5","-5","1165"
"echo-presentation","44","2916768","0.0-44.0","5b27a45f0ec82d0001d22d33","5fef55e628823a0076ec12ee","6018cabd2151631cfa848a7e","Mozilla/5.0 (Windows NT 10.0; Win64; x64) AppleWebKit/537.36 (KHTML, like Gecko) Chrome/88.0.4324.104 Safari/537.36","","","","","","","","-10,-5,0,5,10","media/audio/stims/spherical_300cm_s20_c20_cd-full_matched_a-10.wav","spherical","20","20","full","matched","-10","-5","1546"
"echo-presentation","45","2919193","0.0-45.0","5b27a45f0ec82d0001d22d33","5fef55e628823a0076ec12ee","6018cabd2151631cfa848a7e","Mozilla/5.0 (Windows NT 10.0; Win64; x64) AppleWebKit/537.36 (KHTML, like Gecko) Chrome/88.0.4324.104 Safari/537.36","","","","","","","","-10,-5,0,5,10","media/audio/stims/spherical_300cm_s20_c20_cd-full_matched_a0.wav","spherical","20","20","full","matched","0","-5","1014"
"echo-presentation","46","2921428","0.0-46.0","5b27a45f0ec82d0001d22d33","5fef55e628823a0076ec12ee","6018cabd2151631cfa848a7e","Mozilla/5.0 (Windows NT 10.0; Win64; x64) AppleWebKit/537.36 (KHTML, like Gecko) Chrome/88.0.4324.104 Safari/537.36","","","","","","","","-10,-5,0,5,10","media/audio/stims/spherical_300cm_s20_c20_cd-full_matched_a10.wav","spherical","20","20","full","matched","10","-5","1357"
"echo-presentation","47","2924823","0.0-47.0","5b27a45f0ec82d0001d22d33","5fef55e628823a0076ec12ee","6018cabd2151631cfa848a7e","Mozilla/5.0 (Windows NT 10.0; Win64; x64) AppleWebKit/537.36 (KHTML, like Gecko) Chrome/88.0.4324.104 Safari/537.36","","","","","","","","-10,-5,0,5,10","media/audio/stims/spherical_300cm_s20_c20_cd-full_matched_a10.wav","spherical","20","20","full","matched","10","-5","1123"
"echo-presentation","48","2928068","0.0-48.0","5b27a45f0ec82d0001d22d33","5fef55e628823a0076ec12ee","6018cabd2151631cfa848a7e","Mozilla/5.0 (Windows NT 10.0; Win64; x64) AppleWebKit/537.36 (KHTML, like Gecko) Chrome/88.0.4324.104 Safari/537.36","","","","","","","","-10,-5,0,5,10","media/audio/stims/spherical_300cm_s20_c20_cd-full_matched_a0.wav","spherical","20","20","full","matched","0","-5","1848"
"echo-presentation","49","2930491","0.0-49.0","5b27a45f0ec82d0001d22d33","5fef55e628823a0076ec12ee","6018cabd2151631cfa848a7e","Mozilla/5.0 (Windows NT 10.0; Win64; x64) AppleWebKit/537.36 (KHTML, like Gecko) Chrome/88.0.4324.104 Safari/537.36","","","","","","","","-10,-5,0,5,10","media/audio/stims/spherical_300cm_s20_c20_cd-full_matched_a0.wav","spherical","20","20","full","matched","0","-5","1217"
"block-bookend","50","2933689","0.0-50.0","5b27a45f0ec82d0001d22d33","5fef55e628823a0076ec12ee","6018cabd2151631cfa848a7e","Mozilla/5.0 (Windows NT 10.0; Win64; x64) AppleWebKit/537.36 (KHTML, like Gecko) Chrome/88.0.4324.104 Safari/537.36","","","","","","","","","","","","","","","","",""
"block-bookend","51","3008203","0.0-51.0","5b27a45f0ec82d0001d22d33","5fef55e628823a0076ec12ee","6018cabd2151631cfa848a7e","Mozilla/5.0 (Windows NT 10.0; Win64; x64) AppleWebKit/537.36 (KHTML, like Gecko) Chrome/88.0.4324.104 Safari/537.36","","","","","","","","","","","","","","","","",""
"echo-presentation","52","3012504","0.0-52.0","5b27a45f0ec82d0001d22d33","5fef55e628823a0076ec12ee","6018cabd2151631cfa848a7e","Mozilla/5.0 (Windows NT 10.0; Win64; x64) AppleWebKit/537.36 (KHTML, like Gecko) Chrome/88.0.4324.104 Safari/537.36","","","","","","","","-70,-65,-60,-55,-50","media/audio/stims/spherical_300cm_s20_c20_cd-full_matched_a-50.wav","spherical","20","20","full","matched","-50","-50","2105"
"echo-presentation","53","3017252","0.0-53.0","5b27a45f0ec82d0001d22d33","5fef55e628823a0076ec12ee","6018cabd2151631cfa848a7e","Mozilla/5.0 (Windows NT 10.0; Win64; x64) AppleWebKit/537.36 (KHTML, like Gecko) Chrome/88.0.4324.104 Safari/537.36","","","","","","","","-70,-65,-60,-55,-50","media/audio/stims/spherical_300cm_s20_c20_cd-full_matched_a-55.wav","spherical","20","20","full","matched","-55","-60","2507"
"echo-presentation","54","3024581","0.0-54.0","5b27a45f0ec82d0001d22d33","5fef55e628823a0076ec12ee","6018cabd2151631cfa848a7e","Mozilla/5.0 (Windows NT 10.0; Win64; x64) AppleWebKit/537.36 (KHTML, like Gecko) Chrome/88.0.4324.104 Safari/537.36","","","","","","","","-70,-65,-60,-55,-50","media/audio/stims/spherical_300cm_s20_c20_cd-full_matched_a-70.wav","spherical","20","20","full","matched","-70","-55","2627"
"echo-presentation","55","3028686","0.0-55.0","5b27a45f0ec82d0001d22d33","5fef55e628823a0076ec12ee","6018cabd2151631cfa848a7e","Mozilla/5.0 (Windows NT 10.0; Win64; x64) AppleWebKit/537.36 (KHTML, like Gecko) Chrome/88.0.4324.104 Safari/537.36","","","","","","","","-70,-65,-60,-55,-50","media/audio/stims/spherical_300cm_s20_c20_cd-full_matched_a-50.wav","spherical","20","20","full","matched","-50","-65","2435"
"echo-presentation","56","3031609","0.0-56.0","5b27a45f0ec82d0001d22d33","5fef55e628823a0076ec12ee","6018cabd2151631cfa848a7e","Mozilla/5.0 (Windows NT 10.0; Win64; x64) AppleWebKit/537.36 (KHTML, like Gecko) Chrome/88.0.4324.104 Safari/537.36","","","","","","","","-70,-65,-60,-55,-50","media/audio/stims/spherical_300cm_s20_c20_cd-full_matched_a-70.wav","spherical","20","20","full","matched","-70","-60","1304"
"echo-presentation","57","3034080","0.0-57.0","5b27a45f0ec82d0001d22d33","5fef55e628823a0076ec12ee","6018cabd2151631cfa848a7e","Mozilla/5.0 (Windows NT 10.0; Win64; x64) AppleWebKit/537.36 (KHTML, like Gecko) Chrome/88.0.4324.104 Safari/537.36","","","","","","","","-70,-65,-60,-55,-50","media/audio/stims/spherical_300cm_s20_c20_cd-full_matched_a-70.wav","spherical","20","20","full","matched","-70","-60","992"
"echo-presentation","58","3037741","0.0-58.0","5b27a45f0ec82d0001d22d33","5fef55e628823a0076ec12ee","6018cabd2151631cfa848a7e","Mozilla/5.0 (Windows NT 10.0; Win64; x64) AppleWebKit/537.36 (KHTML, like Gecko) Chrome/88.0.4324.104 Safari/537.36","","","","","","","","-70,-65,-60,-55,-50","media/audio/stims/spherical_300cm_s20_c20_cd-full_matched_a-55.wav","spherical","20","20","full","matched","-55","-55","2707"
"echo-presentation","59","3040615","0.0-59.0","5b27a45f0ec82d0001d22d33","5fef55e628823a0076ec12ee","6018cabd2151631cfa848a7e","Mozilla/5.0 (Windows NT 10.0; Win64; x64) AppleWebKit/537.36 (KHTML, like Gecko) Chrome/88.0.4324.104 Safari/537.36","","","","","","","","-70,-65,-60,-55,-50","media/audio/stims/spherical_300cm_s20_c20_cd-full_matched_a-65.wav","spherical","20","20","full","matched","-65","-55","1256"
"echo-presentation","60","3045143","0.0-60.0","5b27a45f0ec82d0001d22d33","5fef55e628823a0076ec12ee","6018cabd2151631cfa848a7e","Mozilla/5.0 (Windows NT 10.0; Win64; x64) AppleWebKit/537.36 (KHTML, like Gecko) Chrome/88.0.4324.104 Safari/537.36","","","","","","","","-70,-65,-60,-55,-50","media/audio/stims/spherical_300cm_s20_c20_cd-full_matched_a-60.wav","spherical","20","20","full","matched","-60","-50","2878"
"echo-presentation","61","3048360","0.0-61.0","5b27a45f0ec82d0001d22d33","5fef55e628823a0076ec12ee","6018cabd2151631cfa848a7e","Mozilla/5.0 (Windows NT 10.0; Win64; x64) AppleWebKit/537.36 (KHTML, like Gecko) Chrome/88.0.4324.104 Safari/537.36","","","","","","","","-70,-65,-60,-55,-50","media/audio/stims/spherical_300cm_s20_c20_cd-full_matched_a-50.wav","spherical","20","20","full","matched","-50","-55","1690"
"echo-presentation","62","3052415","0.0-62.0","5b27a45f0ec82d0001d22d33","5fef55e628823a0076ec12ee","6018cabd2151631cfa848a7e","Mozilla/5.0 (Windows NT 10.0; Win64; x64) AppleWebKit/537.36 (KHTML, like Gecko) Chrome/88.0.4324.104 Safari/537.36","","","","","","","","-70,-65,-60,-55,-50","media/audio/stims/spherical_300cm_s20_c20_cd-full_matched_a-65.wav","spherical","20","20","full","matched","-65","-50","2948"
"echo-presentation","63","3055550","0.0-63.0","5b27a45f0ec82d0001d22d33","5fef55e628823a0076ec12ee","6018cabd2151631cfa848a7e","Mozilla/5.0 (Windows NT 10.0; Win64; x64) AppleWebKit/537.36 (KHTML, like Gecko) Chrome/88.0.4324.104 Safari/537.36","","","","","","","","-70,-65,-60,-55,-50","media/audio/stims/spherical_300cm_s20_c20_cd-full_matched_a-55.wav","spherical","20","20","full","matched","-55","-55","1841"
"echo-presentation","64","3059155","0.0-64.0","5b27a45f0ec82d0001d22d33","5fef55e628823a0076ec12ee","6018cabd2151631cfa848a7e","Mozilla/5.0 (Windows NT 10.0; Win64; x64) AppleWebKit/537.36 (KHTML, like Gecko) Chrome/88.0.4324.104 Safari/537.36","","","","","","","","-70,-65,-60,-55,-50","media/audio/stims/spherical_300cm_s20_c20_cd-full_matched_a-65.wav","spherical","20","20","full","matched","-65","-50","2145"
"echo-presentation","65","3062335","0.0-65.0","5b27a45f0ec82d0001d22d33","5fef55e628823a0076ec12ee","6018cabd2151631cfa848a7e","Mozilla/5.0 (Windows NT 10.0; Win64; x64) AppleWebKit/537.36 (KHTML, like Gecko) Chrome/88.0.4324.104 Safari/537.36","","","","","","","","-70,-65,-60,-55,-50","media/audio/stims/spherical_300cm_s20_c20_cd-full_matched_a-70.wav","spherical","20","20","full","matched","-70","-50","1968"
"echo-presentation","66","3065665","0.0-66.0","5b27a45f0ec82d0001d22d33","5fef55e628823a0076ec12ee","6018cabd2151631cfa848a7e","Mozilla/5.0 (Windows NT 10.0; Win64; x64) AppleWebKit/537.36 (KHTML, like Gecko) Chrome/88.0.4324.104 Safari/537.36","","","","","","","","-70,-65,-60,-55,-50","media/audio/stims/spherical_300cm_s20_c20_cd-full_matched_a-50.wav","spherical","20","20","full","matched","-50","-55","2243"
"echo-presentation","67","3067730","0.0-67.0","5b27a45f0ec82d0001d22d33","5fef55e628823a0076ec12ee","6018cabd2151631cfa848a7e","Mozilla/5.0 (Windows NT 10.0; Win64; x64) AppleWebKit/537.36 (KHTML, like Gecko) Chrome/88.0.4324.104 Safari/537.36","","","","","","","","-70,-65,-60,-55,-50","media/audio/stims/spherical_300cm_s20_c20_cd-full_matched_a-65.wav","spherical","20","20","full","matched","-65","-50","1141"
"echo-presentation","68","3071235","0.0-68.0","5b27a45f0ec82d0001d22d33","5fef55e628823a0076ec12ee","6018cabd2151631cfa848a7e","Mozilla/5.0 (Windows NT 10.0; Win64; x64) AppleWebKit/537.36 (KHTML, like Gecko) Chrome/88.0.4324.104 Safari/537.36","","","","","","","","-70,-65,-60,-55,-50","media/audio/stims/spherical_300cm_s20_c20_cd-full_matched_a-60.wav","spherical","20","20","full","matched","-60","-60","2306"
"echo-presentation","69","3073795","0.0-69.0","5b27a45f0ec82d0001d22d33","5fef55e628823a0076ec12ee","6018cabd2151631cfa848a7e","Mozilla/5.0 (Windows NT 10.0; Win64; x64) AppleWebKit/537.36 (KHTML, like Gecko) Chrome/88.0.4324.104 Safari/537.36","","","","","","","","-70,-65,-60,-55,-50","media/audio/stims/spherical_300cm_s20_c20_cd-full_matched_a-55.wav","spherical","20","20","full","matched","-55","-65","1281"
"echo-presentation","70","3076950","0.0-70.0","5b27a45f0ec82d0001d22d33","5fef55e628823a0076ec12ee","6018cabd2151631cfa848a7e","Mozilla/5.0 (Windows NT 10.0; Win64; x64) AppleWebKit/537.36 (KHTML, like Gecko) Chrome/88.0.4324.104 Safari/537.36","","","","","","","","-70,-65,-60,-55,-50","media/audio/stims/spherical_300cm_s20_c20_cd-full_matched_a-60.wav","spherical","20","20","full","matched","-60","-60","1321"
"echo-presentation","71","3079180","0.0-71.0","5b27a45f0ec82d0001d22d33","5fef55e628823a0076ec12ee","6018cabd2151631cfa848a7e","Mozilla/5.0 (Windows NT 10.0; Win64; x64) AppleWebKit/537.36 (KHTML, like Gecko) Chrome/88.0.4324.104 Safari/537.36","","","","","","","","-70,-65,-60,-55,-50","media/audio/stims/spherical_300cm_s20_c20_cd-full_matched_a-60.wav","spherical","20","20","full","matched","-60","-65","1223"
"block-bookend","72","3081370","0.0-72.0","5b27a45f0ec82d0001d22d33","5fef55e628823a0076ec12ee","6018cabd2151631cfa848a7e","Mozilla/5.0 (Windows NT 10.0; Win64; x64) AppleWebKit/537.36 (KHTML, like Gecko) Chrome/88.0.4324.104 Safari/537.36","","","","","","","","","","","","","","","","",""
"block-bookend","73","3110355","0.0-73.0","5b27a45f0ec82d0001d22d33","5fef55e628823a0076ec12ee","6018cabd2151631cfa848a7e","Mozilla/5.0 (Windows NT 10.0; Win64; x64) AppleWebKit/537.36 (KHTML, like Gecko) Chrome/88.0.4324.104 Safari/537.36","","","","","","","","","","","","","","","","",""
"echo-presentation","74","3113917","0.0-74.0","5b27a45f0ec82d0001d22d33","5fef55e628823a0076ec12ee","6018cabd2151631cfa848a7e","Mozilla/5.0 (Windows NT 10.0; Win64; x64) AppleWebKit/537.36 (KHTML, like Gecko) Chrome/88.0.4324.104 Safari/537.36","","","","","","","","50,55,60,65,70","media/audio/stims/spherical_300cm_s20_c20_cd-full_matched_a55.wav","spherical","20","20","full","matched","55","50","1613"
"echo-presentation","75","3120017","0.0-75.0","5b27a45f0ec82d0001d22d33","5fef55e628823a0076ec12ee","6018cabd2151631cfa848a7e","Mozilla/5.0 (Windows NT 10.0; Win64; x64) AppleWebKit/537.36 (KHTML, like Gecko) Chrome/88.0.4324.104 Safari/537.36","","","","","","","","50,55,60,65,70","media/audio/stims/spherical_300cm_s20_c20_cd-full_matched_a50.wav","spherical","20","20","full","matched","50","60","2642"
"echo-presentation","76","3123776","0.0-76.0","5b27a45f0ec82d0001d22d33","5fef55e628823a0076ec12ee","6018cabd2151631cfa848a7e","Mozilla/5.0 (Windows NT 10.0; Win64; x64) AppleWebKit/537.36 (KHTML, like Gecko) Chrome/88.0.4324.104 Safari/537.36","","","","","","","","50,55,60,65,70","media/audio/stims/spherical_300cm_s20_c20_cd-full_matched_a60.wav","spherical","20","20","full","matched","60","60","1350"
"echo-presentation","77","3127246","0.0-77.0","5b27a45f0ec82d0001d22d33","5fef55e628823a0076ec12ee","6018cabd2151631cfa848a7e","Mozilla/5.0 (Windows NT 10.0; Win64; x64) AppleWebKit/537.36 (KHTML, like Gecko) Chrome/88.0.4324.104 Safari/537.36","","","","","","","","50,55,60,65,70","media/audio/stims/spherical_300cm_s20_c20_cd-full_matched_a50.wav","spherical","20","20","full","matched","50","65","1252"
"echo-presentation","78","3130056","0.0-78.0","5b27a45f0ec82d0001d22d33","5fef55e628823a0076ec12ee","6018cabd2151631cfa848a7e","Mozilla/5.0 (Windows NT 10.0; Win64; x64) AppleWebKit/537.36 (KHTML, like Gecko) Chrome/88.0.4324.104 Safari/537.36","","","","","","","","50,55,60,65,70","media/audio/stims/spherical_300cm_s20_c20_cd-full_matched_a60.wav","spherical","20","20","full","matched","60","50","1206"
"echo-presentation","79","3132097","0.0-79.0","5b27a45f0ec82d0001d22d33","5fef55e628823a0076ec12ee","6018cabd2151631cfa848a7e","Mozilla/5.0 (Windows NT 10.0; Win64; x64) AppleWebKit/537.36 (KHTML, like Gecko) Chrome/88.0.4324.104 Safari/537.36","","","","","","","","50,55,60,65,70","media/audio/stims/spherical_300cm_s20_c20_cd-full_matched_a60.wav","spherical","20","20","full","matched","60","50","1093"
"echo-presentation","80","3135553","0.0-80.0","5b27a45f0ec82d0001d22d33","5fef55e628823a0076ec12ee","6018cabd2151631cfa848a7e","Mozilla/5.0 (Windows NT 10.0; Win64; x64) AppleWebKit/537.36 (KHTML, like Gecko) Chrome/88.0.4324.104 Safari/537.36","","","","","","","","50,55,60,65,70","media/audio/stims/spherical_300cm_s20_c20_cd-full_matched_a55.wav","spherical","20","20","full","matched","55","60","1844"
"echo-presentation","81","3140126","0.0-81.0","5b27a45f0ec82d0001d22d33","5fef55e628823a0076ec12ee","6018cabd2151631cfa848a7e","Mozilla/5.0 (Windows NT 10.0; Win64; x64) AppleWebKit/537.36 (KHTML, like Gecko) Chrome/88.0.4324.104 Safari/537.36","","","","","","","","50,55,60,65,70","media/audio/stims/spherical_300cm_s20_c20_cd-full_matched_a65.wav","spherical","20","20","full","matched","65","65","1494"
"echo-presentation","82","3145475","0.0-82.0","5b27a45f0ec82d0001d22d33","5fef55e628823a0076ec12ee","6018cabd2151631cfa848a7e","Mozilla/5.0 (Windows NT 10.0; Win64; x64) AppleWebKit/537.36 (KHTML, like Gecko) Chrome/88.0.4324.104 Safari/537.36","","","","","","","","50,55,60,65,70","media/audio/stims/spherical_300cm_s20_c20_cd-full_matched_a65.wav","spherical","20","20","full","matched","65","65","2741"
"echo-presentation","83","3149717","0.0-83.0","5b27a45f0ec82d0001d22d33","5fef55e628823a0076ec12ee","6018cabd2151631cfa848a7e","Mozilla/5.0 (Windows NT 10.0; Win64; x64) AppleWebKit/537.36 (KHTML, like Gecko) Chrome/88.0.4324.104 Safari/537.36","","","","","","","","50,55,60,65,70","media/audio/stims/spherical_300cm_s20_c20_cd-full_matched_a70.wav","spherical","20","20","full","matched","70","65","2140"
"echo-presentation","84","3154871","0.0-84.0","5b27a45f0ec82d0001d22d33","5fef55e628823a0076ec12ee","6018cabd2151631cfa848a7e","Mozilla/5.0 (Windows NT 10.0; Win64; x64) AppleWebKit/537.36 (KHTML, like Gecko) Chrome/88.0.4324.104 Safari/537.36","","","","","","","","50,55,60,65,70","media/audio/stims/spherical_300cm_s20_c20_cd-full_matched_a65.wav","spherical","20","20","full","matched","65","65","2768"
"echo-presentation","85","3158216","0.0-85.0","5b27a45f0ec82d0001d22d33","5fef55e628823a0076ec12ee","6018cabd2151631cfa848a7e","Mozilla/5.0 (Windows NT 10.0; Win64; x64) AppleWebKit/537.36 (KHTML, like Gecko) Chrome/88.0.4324.104 Safari/537.36","","","","","","","","50,55,60,65,70","media/audio/stims/spherical_300cm_s20_c20_cd-full_matched_a55.wav","spherical","20","20","full","matched","55","60","1613"
"echo-presentation","86","3162191","0.0-86.0","5b27a45f0ec82d0001d22d33","5fef55e628823a0076ec12ee","6018cabd2151631cfa848a7e","Mozilla/5.0 (Windows NT 10.0; Win64; x64) AppleWebKit/537.36 (KHTML, like Gecko) Chrome/88.0.4324.104 Safari/537.36","","","","","","","","50,55,60,65,70","media/audio/stims/spherical_300cm_s20_c20_cd-full_matched_a50.wav","spherical","20","20","full","matched","50","65","2221"
"echo-presentation","87","3166336","0.0-87.0","5b27a45f0ec82d0001d22d33","5fef55e628823a0076ec12ee","6018cabd2151631cfa848a7e","Mozilla/5.0 (Windows NT 10.0; Win64; x64) AppleWebKit/537.36 (KHTML, like Gecko) Chrome/88.0.4324.104 Safari/537.36","","","","","","","","50,55,60,65,70","media/audio/stims/spherical_300cm_s20_c20_cd-full_matched_a50.wav","spherical","20","20","full","matched","50","65","1381"
"echo-presentation","88","3171208","0.0-88.0","5b27a45f0ec82d0001d22d33","5fef55e628823a0076ec12ee","6018cabd2151631cfa848a7e","Mozilla/5.0 (Windows NT 10.0; Win64; x64) AppleWebKit/537.36 (KHTML, like Gecko) Chrome/88.0.4324.104 Safari/537.36","","","","","","","","50,55,60,65,70","media/audio/stims/spherical_300cm_s20_c20_cd-full_matched_a55.wav","spherical","20","20","full","matched","55","65","2614"
"echo-presentation","89","3174800","0.0-89.0","5b27a45f0ec82d0001d22d33","5fef55e628823a0076ec12ee","6018cabd2151631cfa848a7e","Mozilla/5.0 (Windows NT 10.0; Win64; x64) AppleWebKit/537.36 (KHTML, like Gecko) Chrome/88.0.4324.104 Safari/537.36","","","","","","","","50,55,60,65,70","media/audio/stims/spherical_300cm_s20_c20_cd-full_matched_a70.wav","spherical","20","20","full","matched","70","60","1853"
"echo-presentation","90","3179923","0.0-90.0","5b27a45f0ec82d0001d22d33","5fef55e628823a0076ec12ee","6018cabd2151631cfa848a7e","Mozilla/5.0 (Windows NT 10.0; Win64; x64) AppleWebKit/537.36 (KHTML, like Gecko) Chrome/88.0.4324.104 Safari/537.36","","","","","","","","50,55,60,65,70","media/audio/stims/spherical_300cm_s20_c20_cd-full_matched_a65.wav","spherical","20","20","full","matched","65","60","2017"
"echo-presentation","91","3183533","0.0-91.0","5b27a45f0ec82d0001d22d33","5fef55e628823a0076ec12ee","6018cabd2151631cfa848a7e","Mozilla/5.0 (Windows NT 10.0; Win64; x64) AppleWebKit/537.36 (KHTML, like Gecko) Chrome/88.0.4324.104 Safari/537.36","","","","","","","","50,55,60,65,70","media/audio/stims/spherical_300cm_s20_c20_cd-full_matched_a60.wav","spherical","20","20","full","matched","60","70","1687"
"echo-presentation","92","3188793","0.0-92.0","5b27a45f0ec82d0001d22d33","5fef55e628823a0076ec12ee","6018cabd2151631cfa848a7e","Mozilla/5.0 (Windows NT 10.0; Win64; x64) AppleWebKit/537.36 (KHTML, like Gecko) Chrome/88.0.4324.104 Safari/537.36","","","","","","","","50,55,60,65,70","media/audio/stims/spherical_300cm_s20_c20_cd-full_matched_a70.wav","spherical","20","20","full","matched","70","65","1615"
"echo-presentation","93","3193363","0.0-93.0","5b27a45f0ec82d0001d22d33","5fef55e628823a0076ec12ee","6018cabd2151631cfa848a7e","Mozilla/5.0 (Windows NT 10.0; Win64; x64) AppleWebKit/537.36 (KHTML, like Gecko) Chrome/88.0.4324.104 Safari/537.36","","","","","","","","50,55,60,65,70","media/audio/stims/spherical_300cm_s20_c20_cd-full_matched_a70.wav","spherical","20","20","full","matched","70","65","1511"
"block-bookend","94","3199684","0.0-94.0","5b27a45f0ec82d0001d22d33","5fef55e628823a0076ec12ee","6018cabd2151631cfa848a7e","Mozilla/5.0 (Windows NT 10.0; Win64; x64) AppleWebKit/537.36 (KHTML, like Gecko) Chrome/88.0.4324.104 Safari/537.36","","","","","","","","","","","","","","","","",""
"block-bookend","95","3219816","0.0-95.0","5b27a45f0ec82d0001d22d33","5fef55e628823a0076ec12ee","6018cabd2151631cfa848a7e","Mozilla/5.0 (Windows NT 10.0; Win64; x64) AppleWebKit/537.36 (KHTML, like Gecko) Chrome/88.0.4324.104 Safari/537.36","","","","","","","","","","","","","","","","",""
"echo-presentation","96","3226363","0.0-96.0","5b27a45f0ec82d0001d22d33","5fef55e628823a0076ec12ee","6018cabd2151631cfa848a7e","Mozilla/5.0 (Windows NT 10.0; Win64; x64) AppleWebKit/537.36 (KHTML, like Gecko) Chrome/88.0.4324.104 Safari/537.36","","","","","","","","50,55,60,65,70","media/audio/stims/spherical_300cm_s20_c20_cd-full_matched_a65.wav","spherical","20","20","full","matched","65","50","1757"
"echo-presentation","97","3230248","0.0-97.0","5b27a45f0ec82d0001d22d33","5fef55e628823a0076ec12ee","6018cabd2151631cfa848a7e","Mozilla/5.0 (Windows NT 10.0; Win64; x64) AppleWebKit/537.36 (KHTML, like Gecko) Chrome/88.0.4324.104 Safari/537.36","","","","","","","","50,55,60,65,70","media/audio/stims/spherical_300cm_s20_c20_cd-full_matched_a55.wav","spherical","20","20","full","matched","55","50","1795"
"echo-presentation","98","3234119","0.0-98.0","5b27a45f0ec82d0001d22d33","5fef55e628823a0076ec12ee","6018cabd2151631cfa848a7e","Mozilla/5.0 (Windows NT 10.0; Win64; x64) AppleWebKit/537.36 (KHTML, like Gecko) Chrome/88.0.4324.104 Safari/537.36","","","","","","","","50,55,60,65,70","media/audio/stims/spherical_300cm_s20_c20_cd-full_matched_a50.wav","spherical","20","20","full","matched","50","50","1180"
"echo-presentation","99","3238329","0.0-99.0","5b27a45f0ec82d0001d22d33","5fef55e628823a0076ec12ee","6018cabd2151631cfa848a7e","Mozilla/5.0 (Windows NT 10.0; Win64; x64) AppleWebKit/537.36 (KHTML, like Gecko) Chrome/88.0.4324.104 Safari/537.36","","","","","","","","50,55,60,65,70","media/audio/stims/spherical_300cm_s20_c20_cd-full_matched_a50.wav","spherical","20","20","full","matched","50","50","2217"
"echo-presentation","100","3242347","0.0-100.0","5b27a45f0ec82d0001d22d33","5fef55e628823a0076ec12ee","6018cabd2151631cfa848a7e","Mozilla/5.0 (Windows NT 10.0; Win64; x64) AppleWebKit/537.36 (KHTML, like Gecko) Chrome/88.0.4324.104 Safari/537.36","","","","","","","","50,55,60,65,70","media/audio/stims/spherical_300cm_s20_c20_cd-full_matched_a65.wav","spherical","20","20","full","matched","65","50","1105"
"echo-presentation","101","3247526","0.0-101.0","5b27a45f0ec82d0001d22d33","5fef55e628823a0076ec12ee","6018cabd2151631cfa848a7e","Mozilla/5.0 (Windows NT 10.0; Win64; x64) AppleWebKit/537.36 (KHTML, like Gecko) Chrome/88.0.4324.104 Safari/537.36","","","","","","","","50,55,60,65,70","media/audio/stims/spherical_300cm_s20_c20_cd-full_matched_a50.wav","spherical","20","20","full","matched","50","50","1250"
"echo-presentation","102","3251534","0.0-102.0","5b27a45f0ec82d0001d22d33","5fef55e628823a0076ec12ee","6018cabd2151631cfa848a7e","Mozilla/5.0 (Windows NT 10.0; Win64; x64) AppleWebKit/537.36 (KHTML, like Gecko) Chrome/88.0.4324.104 Safari/537.36","","","","","","","","50,55,60,65,70","media/audio/stims/spherical_300cm_s20_c20_cd-full_matched_a70.wav","spherical","20","20","full","matched","70","50","1410"
"echo-presentation","103","3255354","0.0-103.0","5b27a45f0ec82d0001d22d33","5fef55e628823a0076ec12ee","6018cabd2151631cfa848a7e","Mozilla/5.0 (Windows NT 10.0; Win64; x64) AppleWebKit/537.36 (KHTML, like Gecko) Chrome/88.0.4324.104 Safari/537.36","","","","","","","","50,55,60,65,70","media/audio/stims/spherical_300cm_s20_c20_cd-full_matched_a70.wav","spherical","20","20","full","matched","70","50","2230"
"echo-presentation","104","3259379","0.0-104.0","5b27a45f0ec82d0001d22d33","5fef55e628823a0076ec12ee","6018cabd2151631cfa848a7e","Mozilla/5.0 (Windows NT 10.0; Win64; x64) AppleWebKit/537.36 (KHTML, like Gecko) Chrome/88.0.4324.104 Safari/537.36","","","","","","","","50,55,60,65,70","media/audio/stims/spherical_300cm_s20_c20_cd-full_matched_a65.wav","spherical","20","20","full","matched","65","50","1124"
"echo-presentation","105","3262869","0.0-105.0","5b27a45f0ec82d0001d22d33","5fef55e628823a0076ec12ee","6018cabd2151631cfa848a7e","Mozilla/5.0 (Windows NT 10.0; Win64; x64) AppleWebKit/537.36 (KHTML, like Gecko) Chrome/88.0.4324.104 Safari/537.36","","","","","","","","50,55,60,65,70","media/audio/stims/spherical_300cm_s20_c20_cd-full_matched_a60.wav","spherical","20","20","full","matched","60","50","2274"
"echo-presentation","106","3265218","0.0-106.0","5b27a45f0ec82d0001d22d33","5fef55e628823a0076ec12ee","6018cabd2151631cfa848a7e","Mozilla/5.0 (Windows NT 10.0; Win64; x64) AppleWebKit/537.36 (KHTML, like Gecko) Chrome/88.0.4324.104 Safari/537.36","","","","","","","","50,55,60,65,70","media/audio/stims/spherical_300cm_s20_c20_cd-full_matched_a60.wav","spherical","20","20","full","matched","60","55","1320"
"echo-presentation","107","3267838","0.0-107.0","5b27a45f0ec82d0001d22d33","5fef55e628823a0076ec12ee","6018cabd2151631cfa848a7e","Mozilla/5.0 (Windows NT 10.0; Win64; x64) AppleWebKit/537.36 (KHTML, like Gecko) Chrome/88.0.4324.104 Safari/537.36","","","","","","","","50,55,60,65,70","media/audio/stims/spherical_300cm_s20_c20_cd-full_matched_a60.wav","spherical","20","20","full","matched","60","50","1386"
"echo-presentation","108","3270694","0.0-108.0","5b27a45f0ec82d0001d22d33","5fef55e628823a0076ec12ee","6018cabd2151631cfa848a7e","Mozilla/5.0 (Windows NT 10.0; Win64; x64) AppleWebKit/537.36 (KHTML, like Gecko) Chrome/88.0.4324.104 Safari/537.36","","","","","","","","50,55,60,65,70","media/audio/stims/spherical_300cm_s20_c20_cd-full_matched_a50.wav","spherical","20","20","full","matched","50","50","1660"
"echo-presentation","109","3276798","0.0-109.0","5b27a45f0ec82d0001d22d33","5fef55e628823a0076ec12ee","6018cabd2151631cfa848a7e","Mozilla/5.0 (Windows NT 10.0; Win64; x64) AppleWebKit/537.36 (KHTML, like Gecko) Chrome/88.0.4324.104 Safari/537.36","","","","","","","","50,55,60,65,70","media/audio/stims/spherical_300cm_s20_c20_cd-full_matched_a65.wav","spherical","20","20","full","matched","65","55","1363"
"echo-presentation","110","3280658","0.0-110.0","5b27a45f0ec82d0001d22d33","5fef55e628823a0076ec12ee","6018cabd2151631cfa848a7e","Mozilla/5.0 (Windows NT 10.0; Win64; x64) AppleWebKit/537.36 (KHTML, like Gecko) Chrome/88.0.4324.104 Safari/537.36","","","","","","","","50,55,60,65,70","media/audio/stims/spherical_300cm_s20_c20_cd-full_matched_a55.wav","spherical","20","20","full","matched","55","65","1588"
"echo-presentation","111","3283610","0.0-111.0","5b27a45f0ec82d0001d22d33","5fef55e628823a0076ec12ee","6018cabd2151631cfa848a7e","Mozilla/5.0 (Windows NT 10.0; Win64; x64) AppleWebKit/537.36 (KHTML, like Gecko) Chrome/88.0.4324.104 Safari/537.36","","","","","","","","50,55,60,65,70","media/audio/stims/spherical_300cm_s20_c20_cd-full_matched_a70.wav","spherical","20","20","full","matched","70","60","1478"
"echo-presentation","112","3287473","0.0-112.0","5b27a45f0ec82d0001d22d33","5fef55e628823a0076ec12ee","6018cabd2151631cfa848a7e","Mozilla/5.0 (Windows NT 10.0; Win64; x64) AppleWebKit/537.36 (KHTML, like Gecko) Chrome/88.0.4324.104 Safari/537.36","","","","","","","","50,55,60,65,70","media/audio/stims/spherical_300cm_s20_c20_cd-full_matched_a60.wav","spherical","20","20","full","matched","60","65","1505"
"echo-presentation","113","3291570","0.0-113.0","5b27a45f0ec82d0001d22d33","5fef55e628823a0076ec12ee","6018cabd2151631cfa848a7e","Mozilla/5.0 (Windows NT 10.0; Win64; x64) AppleWebKit/537.36 (KHTML, like Gecko) Chrome/88.0.4324.104 Safari/537.36","","","","","","","","50,55,60,65,70","media/audio/stims/spherical_300cm_s20_c20_cd-full_matched_a55.wav","spherical","20","20","full","matched","55","65","1688"
"echo-presentation","114","3297432","0.0-114.0","5b27a45f0ec82d0001d22d33","5fef55e628823a0076ec12ee","6018cabd2151631cfa848a7e","Mozilla/5.0 (Windows NT 10.0; Win64; x64) AppleWebKit/537.36 (KHTML, like Gecko) Chrome/88.0.4324.104 Safari/537.36","","","","","","","","50,55,60,65,70","media/audio/stims/spherical_300cm_s20_c20_cd-full_matched_a70.wav","spherical","20","20","full","matched","70","65","3080"
"echo-presentation","115","3304748","0.0-115.0","5b27a45f0ec82d0001d22d33","5fef55e628823a0076ec12ee","6018cabd2151631cfa848a7e","Mozilla/5.0 (Windows NT 10.0; Win64; x64) AppleWebKit/537.36 (KHTML, like Gecko) Chrome/88.0.4324.104 Safari/537.36","","","","","","","","50,55,60,65,70","media/audio/stims/spherical_300cm_s20_c20_cd-full_matched_a55.wav","spherical","20","20","full","matched","55","65","4197"
"block-bookend","116","3308590","0.0-116.0","5b27a45f0ec82d0001d22d33","5fef55e628823a0076ec12ee","6018cabd2151631cfa848a7e","Mozilla/5.0 (Windows NT 10.0; Win64; x64) AppleWebKit/537.36 (KHTML, like Gecko) Chrome/88.0.4324.104 Safari/537.36","","","","","","","","","","","","","","","","",""
"block-bookend","117","3321213","0.0-117.0","5b27a45f0ec82d0001d22d33","5fef55e628823a0076ec12ee","6018cabd2151631cfa848a7e","Mozilla/5.0 (Windows NT 10.0; Win64; x64) AppleWebKit/537.36 (KHTML, like Gecko) Chrome/88.0.4324.104 Safari/537.36","","","","","","","","","","","","","","","","",""
"echo-presentation","118","3327542","0.0-118.0","5b27a45f0ec82d0001d22d33","5fef55e628823a0076ec12ee","6018cabd2151631cfa848a7e","Mozilla/5.0 (Windows NT 10.0; Win64; x64) AppleWebKit/537.36 (KHTML, like Gecko) Chrome/88.0.4324.104 Safari/537.36","","","","","","","","-70,-65,-60,-55,-50","media/audio/stims/spherical_300cm_s20_c20_cd-full_matched_a-65.wav","spherical","20","20","full","matched","-65","-50","2443"
"echo-presentation","119","3329098","0.0-119.0","5b27a45f0ec82d0001d22d33","5fef55e628823a0076ec12ee","6018cabd2151631cfa848a7e","Mozilla/5.0 (Windows NT 10.0; Win64; x64) AppleWebKit/537.36 (KHTML, like Gecko) Chrome/88.0.4324.104 Safari/537.36","","","","","","","","-70,-65,-60,-55,-50","media/audio/stims/spherical_300cm_s20_c20_cd-full_matched_a-60.wav","spherical","20","20","full","matched","-60","-50","808"
"echo-presentation","120","3331178","0.0-120.0","5b27a45f0ec82d0001d22d33","5fef55e628823a0076ec12ee","6018cabd2151631cfa848a7e","Mozilla/5.0 (Windows NT 10.0; Win64; x64) AppleWebKit/537.36 (KHTML, like Gecko) Chrome/88.0.4324.104 Safari/537.36","","","","","","","","-70,-65,-60,-55,-50","media/audio/stims/spherical_300cm_s20_c20_cd-full_matched_a-55.wav","spherical","20","20","full","matched","-55","-50","878"
"echo-presentation","121","3332907","0.0-121.0","5b27a45f0ec82d0001d22d33","5fef55e628823a0076ec12ee","6018cabd2151631cfa848a7e","Mozilla/5.0 (Windows NT 10.0; Win64; x64) AppleWebKit/537.36 (KHTML, like Gecko) Chrome/88.0.4324.104 Safari/537.36","","","","","","","","-70,-65,-60,-55,-50","media/audio/stims/spherical_300cm_s20_c20_cd-full_matched_a-50.wav","spherical","20","20","full","matched","-50","-50","1119"
"echo-presentation","122","3335777","0.0-122.0","5b27a45f0ec82d0001d22d33","5fef55e628823a0076ec12ee","6018cabd2151631cfa848a7e","Mozilla/5.0 (Windows NT 10.0; Win64; x64) AppleWebKit/537.36 (KHTML, like Gecko) Chrome/88.0.4324.104 Safari/537.36","","","","","","","","-70,-65,-60,-55,-50","media/audio/stims/spherical_300cm_s20_c20_cd-full_matched_a-55.wav","spherical","20","20","full","matched","-55","-50","1045"
"echo-presentation","123","3339048","0.0-123.0","5b27a45f0ec82d0001d22d33","5fef55e628823a0076ec12ee","6018cabd2151631cfa848a7e","Mozilla/5.0 (Windows NT 10.0; Win64; x64) AppleWebKit/537.36 (KHTML, like Gecko) Chrome/88.0.4324.104 Safari/537.36","","","","","","","","-70,-65,-60,-55,-50","media/audio/stims/spherical_300cm_s20_c20_cd-full_matched_a-70.wav","spherical","20","20","full","matched","-70","-50","1542"
"echo-presentation","124","3342163","0.0-124.0","5b27a45f0ec82d0001d22d33","5fef55e628823a0076ec12ee","6018cabd2151631cfa848a7e","Mozilla/5.0 (Windows NT 10.0; Win64; x64) AppleWebKit/537.36 (KHTML, like Gecko) Chrome/88.0.4324.104 Safari/537.36","","","","","","","","-70,-65,-60,-55,-50","media/audio/stims/spherical_300cm_s20_c20_cd-full_matched_a-65.wav","spherical","20","20","full","matched","-65","-50","1368"
"echo-presentation","125","3344807","0.0-125.0","5b27a45f0ec82d0001d22d33","5fef55e628823a0076ec12ee","6018cabd2151631cfa848a7e","Mozilla/5.0 (Windows NT 10.0; Win64; x64) AppleWebKit/537.36 (KHTML, like Gecko) Chrome/88.0.4324.104 Safari/537.36","","","","","","","","-70,-65,-60,-55,-50","media/audio/stims/spherical_300cm_s20_c20_cd-full_matched_a-60.wav","spherical","20","20","full","matched","-60","-50","1691"
"echo-presentation","126","3348470","0.0-126.0","5b27a45f0ec82d0001d22d33","5fef55e628823a0076ec12ee","6018cabd2151631cfa848a7e","Mozilla/5.0 (Windows NT 10.0; Win64; x64) AppleWebKit/537.36 (KHTML, like Gecko) Chrome/88.0.4324.104 Safari/537.36","","","","","","","","-70,-65,-60,-55,-50","media/audio/stims/spherical_300cm_s20_c20_cd-full_matched_a-60.wav","spherical","20","20","full","matched","-60","-50","1133"
"echo-presentation","127","3351867","0.0-127.0","5b27a45f0ec82d0001d22d33","5fef55e628823a0076ec12ee","6018cabd2151631cfa848a7e","Mozilla/5.0 (Windows NT 10.0; Win64; x64) AppleWebKit/537.36 (KHTML, like Gecko) Chrome/88.0.4324.104 Safari/537.36","","","","","","","","-70,-65,-60,-55,-50","media/audio/stims/spherical_300cm_s20_c20_cd-full_matched_a-50.wav","spherical","20","20","full","matched","-50","-50","1700"
"echo-presentation","128","3355580","0.0-128.0","5b27a45f0ec82d0001d22d33","5fef55e628823a0076ec12ee","6018cabd2151631cfa848a7e","Mozilla/5.0 (Windows NT 10.0; Win64; x64) AppleWebKit/537.36 (KHTML, like Gecko) Chrome/88.0.4324.104 Safari/537.36","","","","","","","","-70,-65,-60,-55,-50","media/audio/stims/spherical_300cm_s20_c20_cd-full_matched_a-55.wav","spherical","20","20","full","matched","-55","-50","1611"
"echo-presentation","129","3359538","0.0-129.0","5b27a45f0ec82d0001d22d33","5fef55e628823a0076ec12ee","6018cabd2151631cfa848a7e","Mozilla/5.0 (Windows NT 10.0; Win64; x64) AppleWebKit/537.36 (KHTML, like Gecko) Chrome/88.0.4324.104 Safari/537.36","","","","","","","","-70,-65,-60,-55,-50","media/audio/stims/spherical_300cm_s20_c20_cd-full_matched_a-55.wav","spherical","20","20","full","matched","-55","-50","1440"
"echo-presentation","130","3364743","0.0-130.0","5b27a45f0ec82d0001d22d33","5fef55e628823a0076ec12ee","6018cabd2151631cfa848a7e","Mozilla/5.0 (Windows NT 10.0; Win64; x64) AppleWebKit/537.36 (KHTML, like Gecko) Chrome/88.0.4324.104 Safari/537.36","","","","","","","","-70,-65,-60,-55,-50","media/audio/stims/spherical_300cm_s20_c20_cd-full_matched_a-50.wav","spherical","20","20","full","matched","-50","-50","2215"
"echo-presentation","131","3371068","0.0-131.0","5b27a45f0ec82d0001d22d33","5fef55e628823a0076ec12ee","6018cabd2151631cfa848a7e","Mozilla/5.0 (Windows NT 10.0; Win64; x64) AppleWebKit/537.36 (KHTML, like Gecko) Chrome/88.0.4324.104 Safari/537.36","","","","","","","","-70,-65,-60,-55,-50","media/audio/stims/spherical_300cm_s20_c20_cd-full_matched_a-70.wav","spherical","20","20","full","matched","-70","-50","1458"
"echo-presentation","132","3374532","0.0-132.0","5b27a45f0ec82d0001d22d33","5fef55e628823a0076ec12ee","6018cabd2151631cfa848a7e","Mozilla/5.0 (Windows NT 10.0; Win64; x64) AppleWebKit/537.36 (KHTML, like Gecko) Chrome/88.0.4324.104 Safari/537.36","","","","","","","","-70,-65,-60,-55,-50","media/audio/stims/spherical_300cm_s20_c20_cd-full_matched_a-70.wav","spherical","20","20","full","matched","-70","-50","1333"
"echo-presentation","133","3377938","0.0-133.0","5b27a45f0ec82d0001d22d33","5fef55e628823a0076ec12ee","6018cabd2151631cfa848a7e","Mozilla/5.0 (Windows NT 10.0; Win64; x64) AppleWebKit/537.36 (KHTML, like Gecko) Chrome/88.0.4324.104 Safari/537.36","","","","","","","","-70,-65,-60,-55,-50","media/audio/stims/spherical_300cm_s20_c20_cd-full_matched_a-70.wav","spherical","20","20","full","matched","-70","-50","1422"
"echo-presentation","134","3380807","0.0-134.0","5b27a45f0ec82d0001d22d33","5fef55e628823a0076ec12ee","6018cabd2151631cfa848a7e","Mozilla/5.0 (Windows NT 10.0; Win64; x64) AppleWebKit/537.36 (KHTML, like Gecko) Chrome/88.0.4324.104 Safari/537.36","","","","","","","","-70,-65,-60,-55,-50","media/audio/stims/spherical_300cm_s20_c20_cd-full_matched_a-60.wav","spherical","20","20","full","matched","-60","-50","1521"
"echo-presentation","135","3385426","0.0-135.0","5b27a45f0ec82d0001d22d33","5fef55e628823a0076ec12ee","6018cabd2151631cfa848a7e","Mozilla/5.0 (Windows NT 10.0; Win64; x64) AppleWebKit/537.36 (KHTML, like Gecko) Chrome/88.0.4324.104 Safari/537.36","","","","","","","","-70,-65,-60,-55,-50","media/audio/stims/spherical_300cm_s20_c20_cd-full_matched_a-65.wav","spherical","20","20","full","matched","-65","-60","2794"
"echo-presentation","136","3390413","0.0-136.0","5b27a45f0ec82d0001d22d33","5fef55e628823a0076ec12ee","6018cabd2151631cfa848a7e","Mozilla/5.0 (Windows NT 10.0; Win64; x64) AppleWebKit/537.36 (KHTML, like Gecko) Chrome/88.0.4324.104 Safari/537.36","","","","","","","","-70,-65,-60,-55,-50","media/audio/stims/spherical_300cm_s20_c20_cd-full_matched_a-50.wav","spherical","20","20","full","matched","-50","-50","1426"
"echo-presentation","137","3392978","0.0-137.0","5b27a45f0ec82d0001d22d33","5fef55e628823a0076ec12ee","6018cabd2151631cfa848a7e","Mozilla/5.0 (Windows NT 10.0; Win64; x64) AppleWebKit/537.36 (KHTML, like Gecko) Chrome/88.0.4324.104 Safari/537.36","","","","","","","","-70,-65,-60,-55,-50","media/audio/stims/spherical_300cm_s20_c20_cd-full_matched_a-65.wav","spherical","20","20","full","matched","-65","-55","1015"
"block-bookend","138","3398350","0.0-138.0","5b27a45f0ec82d0001d22d33","5fef55e628823a0076ec12ee","6018cabd2151631cfa848a7e","Mozilla/5.0 (Windows NT 10.0; Win64; x64) AppleWebKit/537.36 (KHTML, like Gecko) Chrome/88.0.4324.104 Safari/537.36","","","","","","","","","","","","","","","","",""
