"trial_type","trial_index","time_elapsed","internal_node_id","prolificPid","studyId","sessionId","userAgent","rt","stimulus","key_press","chosenKeyset","failureCount","testIndex","globalVolume","choices","filename","modelName","slowdown","compensation","compensationDescriptor","receiverOrientationType","azimuth","responseAzimuth","responseDelay"
"pavlovia","0","7","0.0-0.0","5f2c8d4334a79d06cb136702","5fef55e628823a0076ec12ee","6018ca4d4d91481d30323b85","Mozilla/5.0 (Windows NT 10.0; Win64; x64) AppleWebKit/537.36 (KHTML, like Gecko) Chrome/88.0.4324.104 Safari/537.36","","","","","","","","","","","","","","","","",""
"html-keyboard-response","1","6705","0.0-1.0","5f2c8d4334a79d06cb136702","5fef55e628823a0076ec12ee","6018ca4d4d91481d30323b85","Mozilla/5.0 (Windows NT 10.0; Win64; x64) AppleWebKit/537.36 (KHTML, like Gecko) Chrome/88.0.4324.104 Safari/537.36","6697.589999996126","<div><h1>Welcome!</h1><p>Press any key to continue.</p></div>","83","","","","","","","","","","","","","",""
"consent-form","2","58404","0.0-2.0","5f2c8d4334a79d06cb136702","5fef55e628823a0076ec12ee","6018ca4d4d91481d30323b85","Mozilla/5.0 (Windows NT 10.0; Win64; x64) AppleWebKit/537.36 (KHTML, like Gecko) Chrome/88.0.4324.104 Safari/537.36","","","","","","","","","","","","","","","","",""
"keyset-select","3","94745","0.0-3.0","5f2c8d4334a79d06cb136702","5fef55e628823a0076ec12ee","6018ca4d4d91481d30323b85","Mozilla/5.0 (Windows NT 10.0; Win64; x64) AppleWebKit/537.36 (KHTML, like Gecko) Chrome/88.0.4324.104 Safari/537.36","","","","left-hand","","","","","","","","","","","","",""
"headphone-check","4","151158","0.0-4.0","5f2c8d4334a79d06cb136702","5fef55e628823a0076ec12ee","6018ca4d4d91481d30323b85","Mozilla/5.0 (Windows NT 10.0; Win64; x64) AppleWebKit/537.36 (KHTML, like Gecko) Chrome/88.0.4324.104 Safari/537.36","","","","","0","6","0.3","","","","","","","","","",""
"headphone-backwards-check","5","158340","0.0-5.0","5f2c8d4334a79d06cb136702","5fef55e628823a0076ec12ee","6018ca4d4d91481d30323b85","Mozilla/5.0 (Windows NT 10.0; Win64; x64) AppleWebKit/537.36 (KHTML, like Gecko) Chrome/88.0.4324.104 Safari/537.36","","","","","0","","","","","","","","","","","",""
"training","6","230053","0.0-6.0","5f2c8d4334a79d06cb136702","5fef55e628823a0076ec12ee","6018ca4d4d91481d30323b85","Mozilla/5.0 (Windows NT 10.0; Win64; x64) AppleWebKit/537.36 (KHTML, like Gecko) Chrome/88.0.4324.104 Safari/537.36","","","","","","","","","","","","","","","","",""
"block-bookend","7","239474","0.0-7.0","5f2c8d4334a79d06cb136702","5fef55e628823a0076ec12ee","6018ca4d4d91481d30323b85","Mozilla/5.0 (Windows NT 10.0; Win64; x64) AppleWebKit/537.36 (KHTML, like Gecko) Chrome/88.0.4324.104 Safari/537.36","","","","","","","","","","","","","","","","",""
"echo-presentation","8","244805","0.0-8.0","5f2c8d4334a79d06cb136702","5fef55e628823a0076ec12ee","6018ca4d4d91481d30323b85","Mozilla/5.0 (Windows NT 10.0; Win64; x64) AppleWebKit/537.36 (KHTML, like Gecko) Chrome/88.0.4324.104 Safari/537.36","","","","","","","","-70,-65,-60,-55,-50","media/audio/stims/spherical_300cm_s20_c20_cd-full_matched_a-50.wav","spherical","20","20","full","matched","-50","-65","3030"
"echo-presentation","9","253903","0.0-9.0","5f2c8d4334a79d06cb136702","5fef55e628823a0076ec12ee","6018ca4d4d91481d30323b85","Mozilla/5.0 (Windows NT 10.0; Win64; x64) AppleWebKit/537.36 (KHTML, like Gecko) Chrome/88.0.4324.104 Safari/537.36","","","","","","","","-70,-65,-60,-55,-50","media/audio/stims/spherical_300cm_s20_c20_cd-full_matched_a-55.wav","spherical","20","20","full","matched","-55","-65","7726"
"echo-presentation","10","257699","0.0-10.0","5f2c8d4334a79d06cb136702","5fef55e628823a0076ec12ee","6018ca4d4d91481d30323b85","Mozilla/5.0 (Windows NT 10.0; Win64; x64) AppleWebKit/537.36 (KHTML, like Gecko) Chrome/88.0.4324.104 Safari/537.36","","","","","","","","-70,-65,-60,-55,-50","media/audio/stims/spherical_300cm_s20_c20_cd-full_matched_a-55.wav","spherical","20","20","full","matched","-55","-65","2488"
"echo-presentation","11","260886","0.0-11.0","5f2c8d4334a79d06cb136702","5fef55e628823a0076ec12ee","6018ca4d4d91481d30323b85","Mozilla/5.0 (Windows NT 10.0; Win64; x64) AppleWebKit/537.36 (KHTML, like Gecko) Chrome/88.0.4324.104 Safari/537.36","","","","","","","","-70,-65,-60,-55,-50","media/audio/stims/spherical_300cm_s20_c20_cd-full_matched_a-50.wav","spherical","20","20","full","matched","-50","-70","1966"
"echo-presentation","12","263796","0.0-12.0","5f2c8d4334a79d06cb136702","5fef55e628823a0076ec12ee","6018ca4d4d91481d30323b85","Mozilla/5.0 (Windows NT 10.0; Win64; x64) AppleWebKit/537.36 (KHTML, like Gecko) Chrome/88.0.4324.104 Safari/537.36","","","","","","","","-70,-65,-60,-55,-50","media/audio/stims/spherical_300cm_s20_c20_cd-full_matched_a-50.wav","spherical","20","20","full","matched","-50","-70","1747"
"echo-presentation","13","267269","0.0-13.0","5f2c8d4334a79d06cb136702","5fef55e628823a0076ec12ee","6018ca4d4d91481d30323b85","Mozilla/5.0 (Windows NT 10.0; Win64; x64) AppleWebKit/537.36 (KHTML, like Gecko) Chrome/88.0.4324.104 Safari/537.36","","","","","","","","-70,-65,-60,-55,-50","media/audio/stims/spherical_300cm_s20_c20_cd-full_matched_a-50.wav","spherical","20","20","full","matched","-50","-60","2430"
"echo-presentation","14","271627","0.0-14.0","5f2c8d4334a79d06cb136702","5fef55e628823a0076ec12ee","6018ca4d4d91481d30323b85","Mozilla/5.0 (Windows NT 10.0; Win64; x64) AppleWebKit/537.36 (KHTML, like Gecko) Chrome/88.0.4324.104 Safari/537.36","","","","","","","","-70,-65,-60,-55,-50","media/audio/stims/spherical_300cm_s20_c20_cd-full_matched_a-70.wav","spherical","20","20","full","matched","-70","-55","3434"
"echo-presentation","15","278410","0.0-15.0","5f2c8d4334a79d06cb136702","5fef55e628823a0076ec12ee","6018ca4d4d91481d30323b85","Mozilla/5.0 (Windows NT 10.0; Win64; x64) AppleWebKit/537.36 (KHTML, like Gecko) Chrome/88.0.4324.104 Safari/537.36","","","","","","","","-70,-65,-60,-55,-50","media/audio/stims/spherical_300cm_s20_c20_cd-full_matched_a-65.wav","spherical","20","20","full","matched","-65","-60","5534"
"echo-presentation","16","281552","0.0-16.0","5f2c8d4334a79d06cb136702","5fef55e628823a0076ec12ee","6018ca4d4d91481d30323b85","Mozilla/5.0 (Windows NT 10.0; Win64; x64) AppleWebKit/537.36 (KHTML, like Gecko) Chrome/88.0.4324.104 Safari/537.36","","","","","","","","-70,-65,-60,-55,-50","media/audio/stims/spherical_300cm_s20_c20_cd-full_matched_a-70.wav","spherical","20","20","full","matched","-70","-60","2002"
"echo-presentation","17","283928","0.0-17.0","5f2c8d4334a79d06cb136702","5fef55e628823a0076ec12ee","6018ca4d4d91481d30323b85","Mozilla/5.0 (Windows NT 10.0; Win64; x64) AppleWebKit/537.36 (KHTML, like Gecko) Chrome/88.0.4324.104 Safari/537.36","","","","","","","","-70,-65,-60,-55,-50","media/audio/stims/spherical_300cm_s20_c20_cd-full_matched_a-70.wav","spherical","20","20","full","matched","-70","-60","1438"
"echo-presentation","18","287621","0.0-18.0","5f2c8d4334a79d06cb136702","5fef55e628823a0076ec12ee","6018ca4d4d91481d30323b85","Mozilla/5.0 (Windows NT 10.0; Win64; x64) AppleWebKit/537.36 (KHTML, like Gecko) Chrome/88.0.4324.104 Safari/537.36","","","","","","","","-70,-65,-60,-55,-50","media/audio/stims/spherical_300cm_s20_c20_cd-full_matched_a-65.wav","spherical","20","20","full","matched","-65","-60","2843"
"echo-presentation","19","289880","0.0-19.0","5f2c8d4334a79d06cb136702","5fef55e628823a0076ec12ee","6018ca4d4d91481d30323b85","Mozilla/5.0 (Windows NT 10.0; Win64; x64) AppleWebKit/537.36 (KHTML, like Gecko) Chrome/88.0.4324.104 Safari/537.36","","","","","","","","-70,-65,-60,-55,-50","media/audio/stims/spherical_300cm_s20_c20_cd-full_matched_a-65.wav","spherical","20","20","full","matched","-65","-65","1423"
"echo-presentation","20","293190","0.0-20.0","5f2c8d4334a79d06cb136702","5fef55e628823a0076ec12ee","6018ca4d4d91481d30323b85","Mozilla/5.0 (Windows NT 10.0; Win64; x64) AppleWebKit/537.36 (KHTML, like Gecko) Chrome/88.0.4324.104 Safari/537.36","","","","","","","","-70,-65,-60,-55,-50","media/audio/stims/spherical_300cm_s20_c20_cd-full_matched_a-65.wav","spherical","20","20","full","matched","-65","-65","1966"
"echo-presentation","21","296296","0.0-21.0","5f2c8d4334a79d06cb136702","5fef55e628823a0076ec12ee","6018ca4d4d91481d30323b85","Mozilla/5.0 (Windows NT 10.0; Win64; x64) AppleWebKit/537.36 (KHTML, like Gecko) Chrome/88.0.4324.104 Safari/537.36","","","","","","","","-70,-65,-60,-55,-50","media/audio/stims/spherical_300cm_s20_c20_cd-full_matched_a-60.wav","spherical","20","20","full","matched","-60","-65","2176"
"echo-presentation","22","301068","0.0-22.0","5f2c8d4334a79d06cb136702","5fef55e628823a0076ec12ee","6018ca4d4d91481d30323b85","Mozilla/5.0 (Windows NT 10.0; Win64; x64) AppleWebKit/537.36 (KHTML, like Gecko) Chrome/88.0.4324.104 Safari/537.36","","","","","","","","-70,-65,-60,-55,-50","media/audio/stims/spherical_300cm_s20_c20_cd-full_matched_a-70.wav","spherical","20","20","full","matched","-70","-70","3406"
"echo-presentation","23","303266","0.0-23.0","5f2c8d4334a79d06cb136702","5fef55e628823a0076ec12ee","6018ca4d4d91481d30323b85","Mozilla/5.0 (Windows NT 10.0; Win64; x64) AppleWebKit/537.36 (KHTML, like Gecko) Chrome/88.0.4324.104 Safari/537.36","","","","","","","","-70,-65,-60,-55,-50","media/audio/stims/spherical_300cm_s20_c20_cd-full_matched_a-60.wav","spherical","20","20","full","matched","-60","-70","1275"
"echo-presentation","24","305435","0.0-24.0","5f2c8d4334a79d06cb136702","5fef55e628823a0076ec12ee","6018ca4d4d91481d30323b85","Mozilla/5.0 (Windows NT 10.0; Win64; x64) AppleWebKit/537.36 (KHTML, like Gecko) Chrome/88.0.4324.104 Safari/537.36","","","","","","","","-70,-65,-60,-55,-50","media/audio/stims/spherical_300cm_s20_c20_cd-full_matched_a-60.wav","spherical","20","20","full","matched","-60","-65","1281"
"echo-presentation","25","307978","0.0-25.0","5f2c8d4334a79d06cb136702","5fef55e628823a0076ec12ee","6018ca4d4d91481d30323b85","Mozilla/5.0 (Windows NT 10.0; Win64; x64) AppleWebKit/537.36 (KHTML, like Gecko) Chrome/88.0.4324.104 Safari/537.36","","","","","","","","-70,-65,-60,-55,-50","media/audio/stims/spherical_300cm_s20_c20_cd-full_matched_a-55.wav","spherical","20","20","full","matched","-55","-65","1657"
"echo-presentation","26","311315","0.0-26.0","5f2c8d4334a79d06cb136702","5fef55e628823a0076ec12ee","6018ca4d4d91481d30323b85","Mozilla/5.0 (Windows NT 10.0; Win64; x64) AppleWebKit/537.36 (KHTML, like Gecko) Chrome/88.0.4324.104 Safari/537.36","","","","","","","","-70,-65,-60,-55,-50","media/audio/stims/spherical_300cm_s20_c20_cd-full_matched_a-60.wav","spherical","20","20","full","matched","-60","-60","2568"
"echo-presentation","27","315265","0.0-27.0","5f2c8d4334a79d06cb136702","5fef55e628823a0076ec12ee","6018ca4d4d91481d30323b85","Mozilla/5.0 (Windows NT 10.0; Win64; x64) AppleWebKit/537.36 (KHTML, like Gecko) Chrome/88.0.4324.104 Safari/537.36","","","","","","","","-70,-65,-60,-55,-50","media/audio/stims/spherical_300cm_s20_c20_cd-full_matched_a-55.wav","spherical","20","20","full","matched","-55","-60","3063"
"block-bookend","28","318082","0.0-28.0","5f2c8d4334a79d06cb136702","5fef55e628823a0076ec12ee","6018ca4d4d91481d30323b85","Mozilla/5.0 (Windows NT 10.0; Win64; x64) AppleWebKit/537.36 (KHTML, like Gecko) Chrome/88.0.4324.104 Safari/537.36","","","","","","","","","","","","","","","","",""
"block-bookend","29","331360","0.0-29.0","5f2c8d4334a79d06cb136702","5fef55e628823a0076ec12ee","6018ca4d4d91481d30323b85","Mozilla/5.0 (Windows NT 10.0; Win64; x64) AppleWebKit/537.36 (KHTML, like Gecko) Chrome/88.0.4324.104 Safari/537.36","","","","","","","","","","","","","","","","",""
"echo-presentation","30","335041","0.0-30.0","5f2c8d4334a79d06cb136702","5fef55e628823a0076ec12ee","6018ca4d4d91481d30323b85","Mozilla/5.0 (Windows NT 10.0; Win64; x64) AppleWebKit/537.36 (KHTML, like Gecko) Chrome/88.0.4324.104 Safari/537.36","","","","","","","","-70,-65,-60,-55,-50","media/audio/stims/spherical_300cm_s20_c20_cd-full_matched_a-50.wav","spherical","20","20","full","matched","-50","-65","2168"
"echo-presentation","31","339469","0.0-31.0","5f2c8d4334a79d06cb136702","5fef55e628823a0076ec12ee","6018ca4d4d91481d30323b85","Mozilla/5.0 (Windows NT 10.0; Win64; x64) AppleWebKit/537.36 (KHTML, like Gecko) Chrome/88.0.4324.104 Safari/537.36","","","","","","","","-70,-65,-60,-55,-50","media/audio/stims/spherical_300cm_s20_c20_cd-full_matched_a-50.wav","spherical","20","20","full","matched","-50","-60","2757"
"echo-presentation","32","341731","0.0-32.0","5f2c8d4334a79d06cb136702","5fef55e628823a0076ec12ee","6018ca4d4d91481d30323b85","Mozilla/5.0 (Windows NT 10.0; Win64; x64) AppleWebKit/537.36 (KHTML, like Gecko) Chrome/88.0.4324.104 Safari/537.36","","","","","","","","-70,-65,-60,-55,-50","media/audio/stims/spherical_300cm_s20_c20_cd-full_matched_a-65.wav","spherical","20","20","full","matched","-65","-65","1369"
"echo-presentation","33","343645","0.0-33.0","5f2c8d4334a79d06cb136702","5fef55e628823a0076ec12ee","6018ca4d4d91481d30323b85","Mozilla/5.0 (Windows NT 10.0; Win64; x64) AppleWebKit/537.36 (KHTML, like Gecko) Chrome/88.0.4324.104 Safari/537.36","","","","","","","","-70,-65,-60,-55,-50","media/audio/stims/spherical_300cm_s20_c20_cd-full_matched_a-60.wav","spherical","20","20","full","matched","-60","-65","1121"
"echo-presentation","34","345929","0.0-34.0","5f2c8d4334a79d06cb136702","5fef55e628823a0076ec12ee","6018ca4d4d91481d30323b85","Mozilla/5.0 (Windows NT 10.0; Win64; x64) AppleWebKit/537.36 (KHTML, like Gecko) Chrome/88.0.4324.104 Safari/537.36","","","","","","","","-70,-65,-60,-55,-50","media/audio/stims/spherical_300cm_s20_c20_cd-full_matched_a-55.wav","spherical","20","20","full","matched","-55","-60","1467"
"echo-presentation","35","348600","0.0-35.0","5f2c8d4334a79d06cb136702","5fef55e628823a0076ec12ee","6018ca4d4d91481d30323b85","Mozilla/5.0 (Windows NT 10.0; Win64; x64) AppleWebKit/537.36 (KHTML, like Gecko) Chrome/88.0.4324.104 Safari/537.36","","","","","","","","-70,-65,-60,-55,-50","media/audio/stims/spherical_300cm_s20_c20_cd-full_matched_a-65.wav","spherical","20","20","full","matched","-65","-50","1918"
"echo-presentation","36","350821","0.0-36.0","5f2c8d4334a79d06cb136702","5fef55e628823a0076ec12ee","6018ca4d4d91481d30323b85","Mozilla/5.0 (Windows NT 10.0; Win64; x64) AppleWebKit/537.36 (KHTML, like Gecko) Chrome/88.0.4324.104 Safari/537.36","","","","","","","","-70,-65,-60,-55,-50","media/audio/stims/spherical_300cm_s20_c20_cd-full_matched_a-65.wav","spherical","20","20","full","matched","-65","-60","1335"
"echo-presentation","37","353562","0.0-37.0","5f2c8d4334a79d06cb136702","5fef55e628823a0076ec12ee","6018ca4d4d91481d30323b85","Mozilla/5.0 (Windows NT 10.0; Win64; x64) AppleWebKit/537.36 (KHTML, like Gecko) Chrome/88.0.4324.104 Safari/537.36","","","","","","","","-70,-65,-60,-55,-50","media/audio/stims/spherical_300cm_s20_c20_cd-full_matched_a-60.wav","spherical","20","20","full","matched","-60","-65","1275"
"echo-presentation","38","356313","0.0-38.0","5f2c8d4334a79d06cb136702","5fef55e628823a0076ec12ee","6018ca4d4d91481d30323b85","Mozilla/5.0 (Windows NT 10.0; Win64; x64) AppleWebKit/537.36 (KHTML, like Gecko) Chrome/88.0.4324.104 Safari/537.36","","","","","","","","-70,-65,-60,-55,-50","media/audio/stims/spherical_300cm_s20_c20_cd-full_matched_a-70.wav","spherical","20","20","full","matched","-70","-55","1887"
"echo-presentation","39","358617","0.0-39.0","5f2c8d4334a79d06cb136702","5fef55e628823a0076ec12ee","6018ca4d4d91481d30323b85","Mozilla/5.0 (Windows NT 10.0; Win64; x64) AppleWebKit/537.36 (KHTML, like Gecko) Chrome/88.0.4324.104 Safari/537.36","","","","","","","","-70,-65,-60,-55,-50","media/audio/stims/spherical_300cm_s20_c20_cd-full_matched_a-55.wav","spherical","20","20","full","matched","-55","-65","1546"
"echo-presentation","40","361049","0.0-40.0","5f2c8d4334a79d06cb136702","5fef55e628823a0076ec12ee","6018ca4d4d91481d30323b85","Mozilla/5.0 (Windows NT 10.0; Win64; x64) AppleWebKit/537.36 (KHTML, like Gecko) Chrome/88.0.4324.104 Safari/537.36","","","","","","","","-70,-65,-60,-55,-50","media/audio/stims/spherical_300cm_s20_c20_cd-full_matched_a-70.wav","spherical","20","20","full","matched","-70","-60","1606"
"echo-presentation","41","363030","0.0-41.0","5f2c8d4334a79d06cb136702","5fef55e628823a0076ec12ee","6018ca4d4d91481d30323b85","Mozilla/5.0 (Windows NT 10.0; Win64; x64) AppleWebKit/537.36 (KHTML, like Gecko) Chrome/88.0.4324.104 Safari/537.36","","","","","","","","-70,-65,-60,-55,-50","media/audio/stims/spherical_300cm_s20_c20_cd-full_matched_a-55.wav","spherical","20","20","full","matched","-55","-70","1162"
"echo-presentation","42","365479","0.0-42.0","5f2c8d4334a79d06cb136702","5fef55e628823a0076ec12ee","6018ca4d4d91481d30323b85","Mozilla/5.0 (Windows NT 10.0; Win64; x64) AppleWebKit/537.36 (KHTML, like Gecko) Chrome/88.0.4324.104 Safari/537.36","","","","","","","","-70,-65,-60,-55,-50","media/audio/stims/spherical_300cm_s20_c20_cd-full_matched_a-60.wav","spherical","20","20","full","matched","-60","-70","1405"
"echo-presentation","43","367472","0.0-43.0","5f2c8d4334a79d06cb136702","5fef55e628823a0076ec12ee","6018ca4d4d91481d30323b85","Mozilla/5.0 (Windows NT 10.0; Win64; x64) AppleWebKit/537.36 (KHTML, like Gecko) Chrome/88.0.4324.104 Safari/537.36","","","","","","","","-70,-65,-60,-55,-50","media/audio/stims/spherical_300cm_s20_c20_cd-full_matched_a-55.wav","spherical","20","20","full","matched","-55","-70","1190"
"echo-presentation","44","369435","0.0-44.0","5f2c8d4334a79d06cb136702","5fef55e628823a0076ec12ee","6018ca4d4d91481d30323b85","Mozilla/5.0 (Windows NT 10.0; Win64; x64) AppleWebKit/537.36 (KHTML, like Gecko) Chrome/88.0.4324.104 Safari/537.36","","","","","","","","-70,-65,-60,-55,-50","media/audio/stims/spherical_300cm_s20_c20_cd-full_matched_a-70.wav","spherical","20","20","full","matched","-70","-65","1120"
"echo-presentation","45","372362","0.0-45.0","5f2c8d4334a79d06cb136702","5fef55e628823a0076ec12ee","6018ca4d4d91481d30323b85","Mozilla/5.0 (Windows NT 10.0; Win64; x64) AppleWebKit/537.36 (KHTML, like Gecko) Chrome/88.0.4324.104 Safari/537.36","","","","","","","","-70,-65,-60,-55,-50","media/audio/stims/spherical_300cm_s20_c20_cd-full_matched_a-70.wav","spherical","20","20","full","matched","-70","-60","1708"
"echo-presentation","46","376989","0.0-46.0","5f2c8d4334a79d06cb136702","5fef55e628823a0076ec12ee","6018ca4d4d91481d30323b85","Mozilla/5.0 (Windows NT 10.0; Win64; x64) AppleWebKit/537.36 (KHTML, like Gecko) Chrome/88.0.4324.104 Safari/537.36","","","","","","","","-70,-65,-60,-55,-50","media/audio/stims/spherical_300cm_s20_c20_cd-full_matched_a-60.wav","spherical","20","20","full","matched","-60","-60","3855"
"echo-presentation","47","379238","0.0-47.0","5f2c8d4334a79d06cb136702","5fef55e628823a0076ec12ee","6018ca4d4d91481d30323b85","Mozilla/5.0 (Windows NT 10.0; Win64; x64) AppleWebKit/537.36 (KHTML, like Gecko) Chrome/88.0.4324.104 Safari/537.36","","","","","","","","-70,-65,-60,-55,-50","media/audio/stims/spherical_300cm_s20_c20_cd-full_matched_a-50.wav","spherical","20","20","full","matched","-50","-65","1157"
"echo-presentation","48","382034","0.0-48.0","5f2c8d4334a79d06cb136702","5fef55e628823a0076ec12ee","6018ca4d4d91481d30323b85","Mozilla/5.0 (Windows NT 10.0; Win64; x64) AppleWebKit/537.36 (KHTML, like Gecko) Chrome/88.0.4324.104 Safari/537.36","","","","","","","","-70,-65,-60,-55,-50","media/audio/stims/spherical_300cm_s20_c20_cd-full_matched_a-65.wav","spherical","20","20","full","matched","-65","-60","1471"
"echo-presentation","49","384393","0.0-49.0","5f2c8d4334a79d06cb136702","5fef55e628823a0076ec12ee","6018ca4d4d91481d30323b85","Mozilla/5.0 (Windows NT 10.0; Win64; x64) AppleWebKit/537.36 (KHTML, like Gecko) Chrome/88.0.4324.104 Safari/537.36","","","","","","","","-70,-65,-60,-55,-50","media/audio/stims/spherical_300cm_s20_c20_cd-full_matched_a-50.wav","spherical","20","20","full","matched","-50","-70","1186"
"block-bookend","50","385706","0.0-50.0","5f2c8d4334a79d06cb136702","5fef55e628823a0076ec12ee","6018ca4d4d91481d30323b85","Mozilla/5.0 (Windows NT 10.0; Win64; x64) AppleWebKit/537.36 (KHTML, like Gecko) Chrome/88.0.4324.104 Safari/537.36","","","","","","","","","","","","","","","","",""
"block-bookend","51","396964","0.0-51.0","5f2c8d4334a79d06cb136702","5fef55e628823a0076ec12ee","6018ca4d4d91481d30323b85","Mozilla/5.0 (Windows NT 10.0; Win64; x64) AppleWebKit/537.36 (KHTML, like Gecko) Chrome/88.0.4324.104 Safari/537.36","","","","","","","","","","","","","","","","",""
"echo-presentation","52","401719","0.0-52.0","5f2c8d4334a79d06cb136702","5fef55e628823a0076ec12ee","6018ca4d4d91481d30323b85","Mozilla/5.0 (Windows NT 10.0; Win64; x64) AppleWebKit/537.36 (KHTML, like Gecko) Chrome/88.0.4324.104 Safari/537.36","","","","","","","","50,55,60,65,70","media/audio/stims/spherical_300cm_s20_c20_cd-full_matched_a55.wav","spherical","20","20","full","matched","55","70","3594"
"echo-presentation","53","404931","0.0-53.0","5f2c8d4334a79d06cb136702","5fef55e628823a0076ec12ee","6018ca4d4d91481d30323b85","Mozilla/5.0 (Windows NT 10.0; Win64; x64) AppleWebKit/537.36 (KHTML, like Gecko) Chrome/88.0.4324.104 Safari/537.36","","","","","","","","50,55,60,65,70","media/audio/stims/spherical_300cm_s20_c20_cd-full_matched_a50.wav","spherical","20","20","full","matched","50","70","1885"
"echo-presentation","54","407296","0.0-54.0","5f2c8d4334a79d06cb136702","5fef55e628823a0076ec12ee","6018ca4d4d91481d30323b85","Mozilla/5.0 (Windows NT 10.0; Win64; x64) AppleWebKit/537.36 (KHTML, like Gecko) Chrome/88.0.4324.104 Safari/537.36","","","","","","","","50,55,60,65,70","media/audio/stims/spherical_300cm_s20_c20_cd-full_matched_a50.wav","spherical","20","20","full","matched","50","60","1588"
"echo-presentation","55","409601","0.0-55.0","5f2c8d4334a79d06cb136702","5fef55e628823a0076ec12ee","6018ca4d4d91481d30323b85","Mozilla/5.0 (Windows NT 10.0; Win64; x64) AppleWebKit/537.36 (KHTML, like Gecko) Chrome/88.0.4324.104 Safari/537.36","","","","","","","","50,55,60,65,70","media/audio/stims/spherical_300cm_s20_c20_cd-full_matched_a70.wav","spherical","20","20","full","matched","70","55","1476"
"echo-presentation","56","411605","0.0-56.0","5f2c8d4334a79d06cb136702","5fef55e628823a0076ec12ee","6018ca4d4d91481d30323b85","Mozilla/5.0 (Windows NT 10.0; Win64; x64) AppleWebKit/537.36 (KHTML, like Gecko) Chrome/88.0.4324.104 Safari/537.36","","","","","","","","50,55,60,65,70","media/audio/stims/spherical_300cm_s20_c20_cd-full_matched_a70.wav","spherical","20","20","full","matched","70","50","1195"
"echo-presentation","57","414077","0.0-57.0","5f2c8d4334a79d06cb136702","5fef55e628823a0076ec12ee","6018ca4d4d91481d30323b85","Mozilla/5.0 (Windows NT 10.0; Win64; x64) AppleWebKit/537.36 (KHTML, like Gecko) Chrome/88.0.4324.104 Safari/537.36","","","","","","","","50,55,60,65,70","media/audio/stims/spherical_300cm_s20_c20_cd-full_matched_a55.wav","spherical","20","20","full","matched","55","55","1639"
"echo-presentation","58","416299","0.0-58.0","5f2c8d4334a79d06cb136702","5fef55e628823a0076ec12ee","6018ca4d4d91481d30323b85","Mozilla/5.0 (Windows NT 10.0; Win64; x64) AppleWebKit/537.36 (KHTML, like Gecko) Chrome/88.0.4324.104 Safari/537.36","","","","","","","","50,55,60,65,70","media/audio/stims/spherical_300cm_s20_c20_cd-full_matched_a60.wav","spherical","20","20","full","matched","60","60","1449"
"echo-presentation","59","418094","0.0-59.0","5f2c8d4334a79d06cb136702","5fef55e628823a0076ec12ee","6018ca4d4d91481d30323b85","Mozilla/5.0 (Windows NT 10.0; Win64; x64) AppleWebKit/537.36 (KHTML, like Gecko) Chrome/88.0.4324.104 Safari/537.36","","","","","","","","50,55,60,65,70","media/audio/stims/spherical_300cm_s20_c20_cd-full_matched_a60.wav","spherical","20","20","full","matched","60","55","981"
"echo-presentation","60","421324","0.0-60.0","5f2c8d4334a79d06cb136702","5fef55e628823a0076ec12ee","6018ca4d4d91481d30323b85","Mozilla/5.0 (Windows NT 10.0; Win64; x64) AppleWebKit/537.36 (KHTML, like Gecko) Chrome/88.0.4324.104 Safari/537.36","","","","","","","","50,55,60,65,70","media/audio/stims/spherical_300cm_s20_c20_cd-full_matched_a55.wav","spherical","20","20","full","matched","55","60","1461"
"echo-presentation","61","423441","0.0-61.0","5f2c8d4334a79d06cb136702","5fef55e628823a0076ec12ee","6018ca4d4d91481d30323b85","Mozilla/5.0 (Windows NT 10.0; Win64; x64) AppleWebKit/537.36 (KHTML, like Gecko) Chrome/88.0.4324.104 Safari/537.36","","","","","","","","50,55,60,65,70","media/audio/stims/spherical_300cm_s20_c20_cd-full_matched_a65.wav","spherical","20","20","full","matched","65","55","1314"
"echo-presentation","62","425493","0.0-62.0","5f2c8d4334a79d06cb136702","5fef55e628823a0076ec12ee","6018ca4d4d91481d30323b85","Mozilla/5.0 (Windows NT 10.0; Win64; x64) AppleWebKit/537.36 (KHTML, like Gecko) Chrome/88.0.4324.104 Safari/537.36","","","","","","","","50,55,60,65,70","media/audio/stims/spherical_300cm_s20_c20_cd-full_matched_a70.wav","spherical","20","20","full","matched","70","60","1200"
"echo-presentation","63","428062","0.0-63.0","5f2c8d4334a79d06cb136702","5fef55e628823a0076ec12ee","6018ca4d4d91481d30323b85","Mozilla/5.0 (Windows NT 10.0; Win64; x64) AppleWebKit/537.36 (KHTML, like Gecko) Chrome/88.0.4324.104 Safari/537.36","","","","","","","","50,55,60,65,70","media/audio/stims/spherical_300cm_s20_c20_cd-full_matched_a65.wav","spherical","20","20","full","matched","65","60","1732"
"echo-presentation","64","430101","0.0-64.0","5f2c8d4334a79d06cb136702","5fef55e628823a0076ec12ee","6018ca4d4d91481d30323b85","Mozilla/5.0 (Windows NT 10.0; Win64; x64) AppleWebKit/537.36 (KHTML, like Gecko) Chrome/88.0.4324.104 Safari/537.36","","","","","","","","50,55,60,65,70","media/audio/stims/spherical_300cm_s20_c20_cd-full_matched_a65.wav","spherical","20","20","full","matched","65","65","1247"
"echo-presentation","65","432917","0.0-65.0","5f2c8d4334a79d06cb136702","5fef55e628823a0076ec12ee","6018ca4d4d91481d30323b85","Mozilla/5.0 (Windows NT 10.0; Win64; x64) AppleWebKit/537.36 (KHTML, like Gecko) Chrome/88.0.4324.104 Safari/537.36","","","","","","","","50,55,60,65,70","media/audio/stims/spherical_300cm_s20_c20_cd-full_matched_a50.wav","spherical","20","20","full","matched","50","70","1850"
"echo-presentation","66","434912","0.0-66.0","5f2c8d4334a79d06cb136702","5fef55e628823a0076ec12ee","6018ca4d4d91481d30323b85","Mozilla/5.0 (Windows NT 10.0; Win64; x64) AppleWebKit/537.36 (KHTML, like Gecko) Chrome/88.0.4324.104 Safari/537.36","","","","","","","","50,55,60,65,70","media/audio/stims/spherical_300cm_s20_c20_cd-full_matched_a55.wav","spherical","20","20","full","matched","55","60","1044"
"echo-presentation","67","439142","0.0-67.0","5f2c8d4334a79d06cb136702","5fef55e628823a0076ec12ee","6018ca4d4d91481d30323b85","Mozilla/5.0 (Windows NT 10.0; Win64; x64) AppleWebKit/537.36 (KHTML, like Gecko) Chrome/88.0.4324.104 Safari/537.36","","","","","","","","50,55,60,65,70","media/audio/stims/spherical_300cm_s20_c20_cd-full_matched_a50.wav","spherical","20","20","full","matched","50","60","3093"
"echo-presentation","68","441984","0.0-68.0","5f2c8d4334a79d06cb136702","5fef55e628823a0076ec12ee","6018ca4d4d91481d30323b85","Mozilla/5.0 (Windows NT 10.0; Win64; x64) AppleWebKit/537.36 (KHTML, like Gecko) Chrome/88.0.4324.104 Safari/537.36","","","","","","","","50,55,60,65,70","media/audio/stims/spherical_300cm_s20_c20_cd-full_matched_a60.wav","spherical","20","20","full","matched","60","55","1778"
"echo-presentation","69","444008","0.0-69.0","5f2c8d4334a79d06cb136702","5fef55e628823a0076ec12ee","6018ca4d4d91481d30323b85","Mozilla/5.0 (Windows NT 10.0; Win64; x64) AppleWebKit/537.36 (KHTML, like Gecko) Chrome/88.0.4324.104 Safari/537.36","","","","","","","","50,55,60,65,70","media/audio/stims/spherical_300cm_s20_c20_cd-full_matched_a60.wav","spherical","20","20","full","matched","60","50","1242"
"echo-presentation","70","446030","0.0-70.0","5f2c8d4334a79d06cb136702","5fef55e628823a0076ec12ee","6018ca4d4d91481d30323b85","Mozilla/5.0 (Windows NT 10.0; Win64; x64) AppleWebKit/537.36 (KHTML, like Gecko) Chrome/88.0.4324.104 Safari/537.36","","","","","","","","50,55,60,65,70","media/audio/stims/spherical_300cm_s20_c20_cd-full_matched_a70.wav","spherical","20","20","full","matched","70","50","1196"
"echo-presentation","71","448098","0.0-71.0","5f2c8d4334a79d06cb136702","5fef55e628823a0076ec12ee","6018ca4d4d91481d30323b85","Mozilla/5.0 (Windows NT 10.0; Win64; x64) AppleWebKit/537.36 (KHTML, like Gecko) Chrome/88.0.4324.104 Safari/537.36","","","","","","","","50,55,60,65,70","media/audio/stims/spherical_300cm_s20_c20_cd-full_matched_a65.wav","spherical","20","20","full","matched","65","55","1264"
"block-bookend","72","449318","0.0-72.0","5f2c8d4334a79d06cb136702","5fef55e628823a0076ec12ee","6018ca4d4d91481d30323b85","Mozilla/5.0 (Windows NT 10.0; Win64; x64) AppleWebKit/537.36 (KHTML, like Gecko) Chrome/88.0.4324.104 Safari/537.36","","","","","","","","","","","","","","","","",""
"block-bookend","73","454835","0.0-73.0","5f2c8d4334a79d06cb136702","5fef55e628823a0076ec12ee","6018ca4d4d91481d30323b85","Mozilla/5.0 (Windows NT 10.0; Win64; x64) AppleWebKit/537.36 (KHTML, like Gecko) Chrome/88.0.4324.104 Safari/537.36","","","","","","","","","","","","","","","","",""
"echo-presentation","74","458057","0.0-74.0","5f2c8d4334a79d06cb136702","5fef55e628823a0076ec12ee","6018ca4d4d91481d30323b85","Mozilla/5.0 (Windows NT 10.0; Win64; x64) AppleWebKit/537.36 (KHTML, like Gecko) Chrome/88.0.4324.104 Safari/537.36","","","","","","","","50,55,60,65,70","media/audio/stims/spherical_300cm_s20_c20_cd-full_matched_a60.wav","spherical","20","20","full","matched","60","50","2007"
"echo-presentation","75","460715","0.0-75.0","5f2c8d4334a79d06cb136702","5fef55e628823a0076ec12ee","6018ca4d4d91481d30323b85","Mozilla/5.0 (Windows NT 10.0; Win64; x64) AppleWebKit/537.36 (KHTML, like Gecko) Chrome/88.0.4324.104 Safari/537.36","","","","","","","","50,55,60,65,70","media/audio/stims/spherical_300cm_s20_c20_cd-full_matched_a60.wav","spherical","20","20","full","matched","60","60","1842"
"echo-presentation","76","465710","0.0-76.0","5f2c8d4334a79d06cb136702","5fef55e628823a0076ec12ee","6018ca4d4d91481d30323b85","Mozilla/5.0 (Windows NT 10.0; Win64; x64) AppleWebKit/537.36 (KHTML, like Gecko) Chrome/88.0.4324.104 Safari/537.36","","","","","","","","50,55,60,65,70","media/audio/stims/spherical_300cm_s20_c20_cd-full_matched_a50.wav","spherical","20","20","full","matched","50","60","4025"
"echo-presentation","77","468240","0.0-77.0","5f2c8d4334a79d06cb136702","5fef55e628823a0076ec12ee","6018ca4d4d91481d30323b85","Mozilla/5.0 (Windows NT 10.0; Win64; x64) AppleWebKit/537.36 (KHTML, like Gecko) Chrome/88.0.4324.104 Safari/537.36","","","","","","","","50,55,60,65,70","media/audio/stims/spherical_300cm_s20_c20_cd-full_matched_a50.wav","spherical","20","20","full","matched","50","60","1605"
"echo-presentation","78","471721","0.0-78.0","5f2c8d4334a79d06cb136702","5fef55e628823a0076ec12ee","6018ca4d4d91481d30323b85","Mozilla/5.0 (Windows NT 10.0; Win64; x64) AppleWebKit/537.36 (KHTML, like Gecko) Chrome/88.0.4324.104 Safari/537.36","","","","","","","","50,55,60,65,70","media/audio/stims/spherical_300cm_s20_c20_cd-full_matched_a65.wav","spherical","20","20","full","matched","65","60","2691"
"echo-presentation","79","476217","0.0-79.0","5f2c8d4334a79d06cb136702","5fef55e628823a0076ec12ee","6018ca4d4d91481d30323b85","Mozilla/5.0 (Windows NT 10.0; Win64; x64) AppleWebKit/537.36 (KHTML, like Gecko) Chrome/88.0.4324.104 Safari/537.36","","","","","","","","50,55,60,65,70","media/audio/stims/spherical_300cm_s20_c20_cd-full_matched_a65.wav","spherical","20","20","full","matched","65","55","3594"
"echo-presentation","80","477909","0.0-80.0","5f2c8d4334a79d06cb136702","5fef55e628823a0076ec12ee","6018ca4d4d91481d30323b85","Mozilla/5.0 (Windows NT 10.0; Win64; x64) AppleWebKit/537.36 (KHTML, like Gecko) Chrome/88.0.4324.104 Safari/537.36","","","","","","","","50,55,60,65,70","media/audio/stims/spherical_300cm_s20_c20_cd-full_matched_a55.wav","spherical","20","20","full","matched","55","60","1158"
"echo-presentation","81","479956","0.0-81.0","5f2c8d4334a79d06cb136702","5fef55e628823a0076ec12ee","6018ca4d4d91481d30323b85","Mozilla/5.0 (Windows NT 10.0; Win64; x64) AppleWebKit/537.36 (KHTML, like Gecko) Chrome/88.0.4324.104 Safari/537.36","","","","","","","","50,55,60,65,70","media/audio/stims/spherical_300cm_s20_c20_cd-full_matched_a50.wav","spherical","20","20","full","matched","50","65","1216"
"echo-presentation","82","483552","0.0-82.0","5f2c8d4334a79d06cb136702","5fef55e628823a0076ec12ee","6018ca4d4d91481d30323b85","Mozilla/5.0 (Windows NT 10.0; Win64; x64) AppleWebKit/537.36 (KHTML, like Gecko) Chrome/88.0.4324.104 Safari/537.36","","","","","","","","50,55,60,65,70","media/audio/stims/spherical_300cm_s20_c20_cd-full_matched_a65.wav","spherical","20","20","full","matched","65","65","2391"
"echo-presentation","83","485277","0.0-83.0","5f2c8d4334a79d06cb136702","5fef55e628823a0076ec12ee","6018ca4d4d91481d30323b85","Mozilla/5.0 (Windows NT 10.0; Win64; x64) AppleWebKit/537.36 (KHTML, like Gecko) Chrome/88.0.4324.104 Safari/537.36","","","","","","","","50,55,60,65,70","media/audio/stims/spherical_300cm_s20_c20_cd-full_matched_a70.wav","spherical","20","20","full","matched","70","65","1044"
"echo-presentation","84","487404","0.0-84.0","5f2c8d4334a79d06cb136702","5fef55e628823a0076ec12ee","6018ca4d4d91481d30323b85","Mozilla/5.0 (Windows NT 10.0; Win64; x64) AppleWebKit/537.36 (KHTML, like Gecko) Chrome/88.0.4324.104 Safari/537.36","","","","","","","","50,55,60,65,70","media/audio/stims/spherical_300cm_s20_c20_cd-full_matched_a70.wav","spherical","20","20","full","matched","70","50","1383"
"echo-presentation","85","489172","0.0-85.0","5f2c8d4334a79d06cb136702","5fef55e628823a0076ec12ee","6018ca4d4d91481d30323b85","Mozilla/5.0 (Windows NT 10.0; Win64; x64) AppleWebKit/537.36 (KHTML, like Gecko) Chrome/88.0.4324.104 Safari/537.36","","","","","","","","50,55,60,65,70","media/audio/stims/spherical_300cm_s20_c20_cd-full_matched_a50.wav","spherical","20","20","full","matched","50","50","1193"
"echo-presentation","86","491055","0.0-86.0","5f2c8d4334a79d06cb136702","5fef55e628823a0076ec12ee","6018ca4d4d91481d30323b85","Mozilla/5.0 (Windows NT 10.0; Win64; x64) AppleWebKit/537.36 (KHTML, like Gecko) Chrome/88.0.4324.104 Safari/537.36","","","","","","","","50,55,60,65,70","media/audio/stims/spherical_300cm_s20_c20_cd-full_matched_a60.wav","spherical","20","20","full","matched","60","50","1271"
"echo-presentation","87","493386","0.0-87.0","5f2c8d4334a79d06cb136702","5fef55e628823a0076ec12ee","6018ca4d4d91481d30323b85","Mozilla/5.0 (Windows NT 10.0; Win64; x64) AppleWebKit/537.36 (KHTML, like Gecko) Chrome/88.0.4324.104 Safari/537.36","","","","","","","","50,55,60,65,70","media/audio/stims/spherical_300cm_s20_c20_cd-full_matched_a55.wav","spherical","20","20","full","matched","55","65","1746"
"echo-presentation","88","497387","0.0-88.0","5f2c8d4334a79d06cb136702","5fef55e628823a0076ec12ee","6018ca4d4d91481d30323b85","Mozilla/5.0 (Windows NT 10.0; Win64; x64) AppleWebKit/537.36 (KHTML, like Gecko) Chrome/88.0.4324.104 Safari/537.36","","","","","","","","50,55,60,65,70","media/audio/stims/spherical_300cm_s20_c20_cd-full_matched_a65.wav","spherical","20","20","full","matched","65","65","3023"
"echo-presentation","89","501002","0.0-89.0","5f2c8d4334a79d06cb136702","5fef55e628823a0076ec12ee","6018ca4d4d91481d30323b85","Mozilla/5.0 (Windows NT 10.0; Win64; x64) AppleWebKit/537.36 (KHTML, like Gecko) Chrome/88.0.4324.104 Safari/537.36","","","","","","","","50,55,60,65,70","media/audio/stims/spherical_300cm_s20_c20_cd-full_matched_a60.wav","spherical","20","20","full","matched","60","65","2751"
"echo-presentation","90","503637","0.0-90.0","5f2c8d4334a79d06cb136702","5fef55e628823a0076ec12ee","6018ca4d4d91481d30323b85","Mozilla/5.0 (Windows NT 10.0; Win64; x64) AppleWebKit/537.36 (KHTML, like Gecko) Chrome/88.0.4324.104 Safari/537.36","","","","","","","","50,55,60,65,70","media/audio/stims/spherical_300cm_s20_c20_cd-full_matched_a55.wav","spherical","20","20","full","matched","55","65","1753"
"echo-presentation","91","506951","0.0-91.0","5f2c8d4334a79d06cb136702","5fef55e628823a0076ec12ee","6018ca4d4d91481d30323b85","Mozilla/5.0 (Windows NT 10.0; Win64; x64) AppleWebKit/537.36 (KHTML, like Gecko) Chrome/88.0.4324.104 Safari/537.36","","","","","","","","50,55,60,65,70","media/audio/stims/spherical_300cm_s20_c20_cd-full_matched_a70.wav","spherical","20","20","full","matched","70","65","2357"
"echo-presentation","92","509852","0.0-92.0","5f2c8d4334a79d06cb136702","5fef55e628823a0076ec12ee","6018ca4d4d91481d30323b85","Mozilla/5.0 (Windows NT 10.0; Win64; x64) AppleWebKit/537.36 (KHTML, like Gecko) Chrome/88.0.4324.104 Safari/537.36","","","","","","","","50,55,60,65,70","media/audio/stims/spherical_300cm_s20_c20_cd-full_matched_a70.wav","spherical","20","20","full","matched","70","65","1924"
"echo-presentation","93","512249","0.0-93.0","5f2c8d4334a79d06cb136702","5fef55e628823a0076ec12ee","6018ca4d4d91481d30323b85","Mozilla/5.0 (Windows NT 10.0; Win64; x64) AppleWebKit/537.36 (KHTML, like Gecko) Chrome/88.0.4324.104 Safari/537.36","","","","","","","","50,55,60,65,70","media/audio/stims/spherical_300cm_s20_c20_cd-full_matched_a55.wav","spherical","20","20","full","matched","55","70","1525"
"block-bookend","94","514787","0.0-94.0","5f2c8d4334a79d06cb136702","5fef55e628823a0076ec12ee","6018ca4d4d91481d30323b85","Mozilla/5.0 (Windows NT 10.0; Win64; x64) AppleWebKit/537.36 (KHTML, like Gecko) Chrome/88.0.4324.104 Safari/537.36","","","","","","","","","","","","","","","","",""
"block-bookend","95","524556","0.0-95.0","5f2c8d4334a79d06cb136702","5fef55e628823a0076ec12ee","6018ca4d4d91481d30323b85","Mozilla/5.0 (Windows NT 10.0; Win64; x64) AppleWebKit/537.36 (KHTML, like Gecko) Chrome/88.0.4324.104 Safari/537.36","","","","","","","","","","","","","","","","",""
"echo-presentation","96","528465","0.0-96.0","5f2c8d4334a79d06cb136702","5fef55e628823a0076ec12ee","6018ca4d4d91481d30323b85","Mozilla/5.0 (Windows NT 10.0; Win64; x64) AppleWebKit/537.36 (KHTML, like Gecko) Chrome/88.0.4324.104 Safari/537.36","","","","","","","","-10,-5,0,5,10","media/audio/stims/spherical_300cm_s20_c20_cd-full_matched_a10.wav","spherical","20","20","full","matched","10","0","1576"
"echo-presentation","97","531616","0.0-97.0","5f2c8d4334a79d06cb136702","5fef55e628823a0076ec12ee","6018ca4d4d91481d30323b85","Mozilla/5.0 (Windows NT 10.0; Win64; x64) AppleWebKit/537.36 (KHTML, like Gecko) Chrome/88.0.4324.104 Safari/537.36","","","","","","","","-10,-5,0,5,10","media/audio/stims/spherical_300cm_s20_c20_cd-full_matched_a-5.wav","spherical","20","20","full","matched","-5","5","1641"
"echo-presentation","98","534595","0.0-98.0","5f2c8d4334a79d06cb136702","5fef55e628823a0076ec12ee","6018ca4d4d91481d30323b85","Mozilla/5.0 (Windows NT 10.0; Win64; x64) AppleWebKit/537.36 (KHTML, like Gecko) Chrome/88.0.4324.104 Safari/537.36","","","","","","","","-10,-5,0,5,10","media/audio/stims/spherical_300cm_s20_c20_cd-full_matched_a-5.wav","spherical","20","20","full","matched","-5","0","2013"
"echo-presentation","99","536890","0.0-99.0","5f2c8d4334a79d06cb136702","5fef55e628823a0076ec12ee","6018ca4d4d91481d30323b85","Mozilla/5.0 (Windows NT 10.0; Win64; x64) AppleWebKit/537.36 (KHTML, like Gecko) Chrome/88.0.4324.104 Safari/537.36","","","","","","","","-10,-5,0,5,10","media/audio/stims/spherical_300cm_s20_c20_cd-full_matched_a-10.wav","spherical","20","20","full","matched","-10","-5","1504"
"echo-presentation","100","539396","0.0-100.0","5f2c8d4334a79d06cb136702","5fef55e628823a0076ec12ee","6018ca4d4d91481d30323b85","Mozilla/5.0 (Windows NT 10.0; Win64; x64) AppleWebKit/537.36 (KHTML, like Gecko) Chrome/88.0.4324.104 Safari/537.36","","","","","","","","-10,-5,0,5,10","media/audio/stims/spherical_300cm_s20_c20_cd-full_matched_a10.wav","spherical","20","20","full","matched","10","5","1620"
"echo-presentation","101","541809","0.0-101.0","5f2c8d4334a79d06cb136702","5fef55e628823a0076ec12ee","6018ca4d4d91481d30323b85","Mozilla/5.0 (Windows NT 10.0; Win64; x64) AppleWebKit/537.36 (KHTML, like Gecko) Chrome/88.0.4324.104 Safari/537.36","","","","","","","","-10,-5,0,5,10","media/audio/stims/spherical_300cm_s20_c20_cd-full_matched_a-5.wav","spherical","20","20","full","matched","-5","0","1632"
"echo-presentation","102","545190","0.0-102.0","5f2c8d4334a79d06cb136702","5fef55e628823a0076ec12ee","6018ca4d4d91481d30323b85","Mozilla/5.0 (Windows NT 10.0; Win64; x64) AppleWebKit/537.36 (KHTML, like Gecko) Chrome/88.0.4324.104 Safari/537.36","","","","","","","","-10,-5,0,5,10","media/audio/stims/spherical_300cm_s20_c20_cd-full_matched_a5.wav","spherical","20","20","full","matched","5","0","2335"
"echo-presentation","103","547524","0.0-103.0","5f2c8d4334a79d06cb136702","5fef55e628823a0076ec12ee","6018ca4d4d91481d30323b85","Mozilla/5.0 (Windows NT 10.0; Win64; x64) AppleWebKit/537.36 (KHTML, like Gecko) Chrome/88.0.4324.104 Safari/537.36","","","","","","","","-10,-5,0,5,10","media/audio/stims/spherical_300cm_s20_c20_cd-full_matched_a5.wav","spherical","20","20","full","matched","5","5","1496"
"echo-presentation","104","550146","0.0-104.0","5f2c8d4334a79d06cb136702","5fef55e628823a0076ec12ee","6018ca4d4d91481d30323b85","Mozilla/5.0 (Windows NT 10.0; Win64; x64) AppleWebKit/537.36 (KHTML, like Gecko) Chrome/88.0.4324.104 Safari/537.36","","","","","","","","-10,-5,0,5,10","media/audio/stims/spherical_300cm_s20_c20_cd-full_matched_a-10.wav","spherical","20","20","full","matched","-10","-5","1732"
"echo-presentation","105","552420","0.0-105.0","5f2c8d4334a79d06cb136702","5fef55e628823a0076ec12ee","6018ca4d4d91481d30323b85","Mozilla/5.0 (Windows NT 10.0; Win64; x64) AppleWebKit/537.36 (KHTML, like Gecko) Chrome/88.0.4324.104 Safari/537.36","","","","","","","","-10,-5,0,5,10","media/audio/stims/spherical_300cm_s20_c20_cd-full_matched_a-10.wav","spherical","20","20","full","matched","-10","-10","1153"
"echo-presentation","106","555439","0.0-106.0","5f2c8d4334a79d06cb136702","5fef55e628823a0076ec12ee","6018ca4d4d91481d30323b85","Mozilla/5.0 (Windows NT 10.0; Win64; x64) AppleWebKit/537.36 (KHTML, like Gecko) Chrome/88.0.4324.104 Safari/537.36","","","","","","","","-10,-5,0,5,10","media/audio/stims/spherical_300cm_s20_c20_cd-full_matched_a5.wav","spherical","20","20","full","matched","5","5","2108"
"echo-presentation","107","558583","0.0-107.0","5f2c8d4334a79d06cb136702","5fef55e628823a0076ec12ee","6018ca4d4d91481d30323b85","Mozilla/5.0 (Windows NT 10.0; Win64; x64) AppleWebKit/537.36 (KHTML, like Gecko) Chrome/88.0.4324.104 Safari/537.36","","","","","","","","-10,-5,0,5,10","media/audio/stims/spherical_300cm_s20_c20_cd-full_matched_a0.wav","spherical","20","20","full","matched","0","0","2119"
"echo-presentation","108","560725","0.0-108.0","5f2c8d4334a79d06cb136702","5fef55e628823a0076ec12ee","6018ca4d4d91481d30323b85","Mozilla/5.0 (Windows NT 10.0; Win64; x64) AppleWebKit/537.36 (KHTML, like Gecko) Chrome/88.0.4324.104 Safari/537.36","","","","","","","","-10,-5,0,5,10","media/audio/stims/spherical_300cm_s20_c20_cd-full_matched_a5.wav","spherical","20","20","full","matched","5","0","1158"
"echo-presentation","109","563898","0.0-109.0","5f2c8d4334a79d06cb136702","5fef55e628823a0076ec12ee","6018ca4d4d91481d30323b85","Mozilla/5.0 (Windows NT 10.0; Win64; x64) AppleWebKit/537.36 (KHTML, like Gecko) Chrome/88.0.4324.104 Safari/537.36","","","","","","","","-10,-5,0,5,10","media/audio/stims/spherical_300cm_s20_c20_cd-full_matched_a0.wav","spherical","20","20","full","matched","0","5","1297"
"echo-presentation","110","566002","0.0-110.0","5f2c8d4334a79d06cb136702","5fef55e628823a0076ec12ee","6018ca4d4d91481d30323b85","Mozilla/5.0 (Windows NT 10.0; Win64; x64) AppleWebKit/537.36 (KHTML, like Gecko) Chrome/88.0.4324.104 Safari/537.36","","","","","","","","-10,-5,0,5,10","media/audio/stims/spherical_300cm_s20_c20_cd-full_matched_a-10.wav","spherical","20","20","full","matched","-10","-5","1222"
"echo-presentation","111","569433","0.0-111.0","5f2c8d4334a79d06cb136702","5fef55e628823a0076ec12ee","6018ca4d4d91481d30323b85","Mozilla/5.0 (Windows NT 10.0; Win64; x64) AppleWebKit/537.36 (KHTML, like Gecko) Chrome/88.0.4324.104 Safari/537.36","","","","","","","","-10,-5,0,5,10","media/audio/stims/spherical_300cm_s20_c20_cd-full_matched_a10.wav","spherical","20","20","full","matched","10","5","2067"
"echo-presentation","112","571984","0.0-112.0","5f2c8d4334a79d06cb136702","5fef55e628823a0076ec12ee","6018ca4d4d91481d30323b85","Mozilla/5.0 (Windows NT 10.0; Win64; x64) AppleWebKit/537.36 (KHTML, like Gecko) Chrome/88.0.4324.104 Safari/537.36","","","","","","","","-10,-5,0,5,10","media/audio/stims/spherical_300cm_s20_c20_cd-full_matched_a0.wav","spherical","20","20","full","matched","0","0","1682"
"echo-presentation","113","574649","0.0-113.0","5f2c8d4334a79d06cb136702","5fef55e628823a0076ec12ee","6018ca4d4d91481d30323b85","Mozilla/5.0 (Windows NT 10.0; Win64; x64) AppleWebKit/537.36 (KHTML, like Gecko) Chrome/88.0.4324.104 Safari/537.36","","","","","","","","-10,-5,0,5,10","media/audio/stims/spherical_300cm_s20_c20_cd-full_matched_a0.wav","spherical","20","20","full","matched","0","0","1655"
"echo-presentation","114","576758","0.0-114.0","5f2c8d4334a79d06cb136702","5fef55e628823a0076ec12ee","6018ca4d4d91481d30323b85","Mozilla/5.0 (Windows NT 10.0; Win64; x64) AppleWebKit/537.36 (KHTML, like Gecko) Chrome/88.0.4324.104 Safari/537.36","","","","","","","","-10,-5,0,5,10","media/audio/stims/spherical_300cm_s20_c20_cd-full_matched_a10.wav","spherical","20","20","full","matched","10","5","1241"
"echo-presentation","115","578805","0.0-115.0","5f2c8d4334a79d06cb136702","5fef55e628823a0076ec12ee","6018ca4d4d91481d30323b85","Mozilla/5.0 (Windows NT 10.0; Win64; x64) AppleWebKit/537.36 (KHTML, like Gecko) Chrome/88.0.4324.104 Safari/537.36","","","","","","","","-10,-5,0,5,10","media/audio/stims/spherical_300cm_s20_c20_cd-full_matched_a-5.wav","spherical","20","20","full","matched","-5","5","1072"
"block-bookend","116","580743","0.0-116.0","5f2c8d4334a79d06cb136702","5fef55e628823a0076ec12ee","6018ca4d4d91481d30323b85","Mozilla/5.0 (Windows NT 10.0; Win64; x64) AppleWebKit/537.36 (KHTML, like Gecko) Chrome/88.0.4324.104 Safari/537.36","","","","","","","","","","","","","","","","",""
"block-bookend","117","584308","0.0-117.0","5f2c8d4334a79d06cb136702","5fef55e628823a0076ec12ee","6018ca4d4d91481d30323b85","Mozilla/5.0 (Windows NT 10.0; Win64; x64) AppleWebKit/537.36 (KHTML, like Gecko) Chrome/88.0.4324.104 Safari/537.36","","","","","","","","","","","","","","","","",""
"echo-presentation","118","586503","0.0-118.0","5f2c8d4334a79d06cb136702","5fef55e628823a0076ec12ee","6018ca4d4d91481d30323b85","Mozilla/5.0 (Windows NT 10.0; Win64; x64) AppleWebKit/537.36 (KHTML, like Gecko) Chrome/88.0.4324.104 Safari/537.36","","","","","","","","-10,-5,0,5,10","media/audio/stims/spherical_300cm_s20_c20_cd-full_matched_a5.wav","spherical","20","20","full","matched","5","0","1251"
"echo-presentation","119","588726","0.0-119.0","5f2c8d4334a79d06cb136702","5fef55e628823a0076ec12ee","6018ca4d4d91481d30323b85","Mozilla/5.0 (Windows NT 10.0; Win64; x64) AppleWebKit/537.36 (KHTML, like Gecko) Chrome/88.0.4324.104 Safari/537.36","","","","","","","","-10,-5,0,5,10","media/audio/stims/spherical_300cm_s20_c20_cd-full_matched_a0.wav","spherical","20","20","full","matched","0","5","1360"
"echo-presentation","120","592137","0.0-120.0","5f2c8d4334a79d06cb136702","5fef55e628823a0076ec12ee","6018ca4d4d91481d30323b85","Mozilla/5.0 (Windows NT 10.0; Win64; x64) AppleWebKit/537.36 (KHTML, like Gecko) Chrome/88.0.4324.104 Safari/537.36","","","","","","","","-10,-5,0,5,10","media/audio/stims/spherical_300cm_s20_c20_cd-full_matched_a0.wav","spherical","20","20","full","matched","0","5","2669"
"echo-presentation","121","594053","0.0-121.0","5f2c8d4334a79d06cb136702","5fef55e628823a0076ec12ee","6018ca4d4d91481d30323b85","Mozilla/5.0 (Windows NT 10.0; Win64; x64) AppleWebKit/537.36 (KHTML, like Gecko) Chrome/88.0.4324.104 Safari/537.36","","","","","","","","-10,-5,0,5,10","media/audio/stims/spherical_300cm_s20_c20_cd-full_matched_a-5.wav","spherical","20","20","full","matched","-5","5","1173"
"echo-presentation","122","595937","0.0-122.0","5f2c8d4334a79d06cb136702","5fef55e628823a0076ec12ee","6018ca4d4d91481d30323b85","Mozilla/5.0 (Windows NT 10.0; Win64; x64) AppleWebKit/537.36 (KHTML, like Gecko) Chrome/88.0.4324.104 Safari/537.36","","","","","","","","-10,-5,0,5,10","media/audio/stims/spherical_300cm_s20_c20_cd-full_matched_a-10.wav","spherical","20","20","full","matched","-10","5","934"
"echo-presentation","123","598836","0.0-123.0","5f2c8d4334a79d06cb136702","5fef55e628823a0076ec12ee","6018ca4d4d91481d30323b85","Mozilla/5.0 (Windows NT 10.0; Win64; x64) AppleWebKit/537.36 (KHTML, like Gecko) Chrome/88.0.4324.104 Safari/537.36","","","","","","","","-10,-5,0,5,10","media/audio/stims/spherical_300cm_s20_c20_cd-full_matched_a-10.wav","spherical","20","20","full","matched","-10","5","1185"
"echo-presentation","124","600693","0.0-124.0","5f2c8d4334a79d06cb136702","5fef55e628823a0076ec12ee","6018ca4d4d91481d30323b85","Mozilla/5.0 (Windows NT 10.0; Win64; x64) AppleWebKit/537.36 (KHTML, like Gecko) Chrome/88.0.4324.104 Safari/537.36","","","","","","","","-10,-5,0,5,10","media/audio/stims/spherical_300cm_s20_c20_cd-full_matched_a5.wav","spherical","20","20","full","matched","5","5","1040"
"echo-presentation","125","603178","0.0-125.0","5f2c8d4334a79d06cb136702","5fef55e628823a0076ec12ee","6018ca4d4d91481d30323b85","Mozilla/5.0 (Windows NT 10.0; Win64; x64) AppleWebKit/537.36 (KHTML, like Gecko) Chrome/88.0.4324.104 Safari/537.36","","","","","","","","-10,-5,0,5,10","media/audio/stims/spherical_300cm_s20_c20_cd-full_matched_a-5.wav","spherical","20","20","full","matched","-5","5","1295"
"echo-presentation","126","604866","0.0-126.0","5f2c8d4334a79d06cb136702","5fef55e628823a0076ec12ee","6018ca4d4d91481d30323b85","Mozilla/5.0 (Windows NT 10.0; Win64; x64) AppleWebKit/537.36 (KHTML, like Gecko) Chrome/88.0.4324.104 Safari/537.36","","","","","","","","-10,-5,0,5,10","media/audio/stims/spherical_300cm_s20_c20_cd-full_matched_a5.wav","spherical","20","20","full","matched","5","5","901"
"echo-presentation","127","607279","0.0-127.0","5f2c8d4334a79d06cb136702","5fef55e628823a0076ec12ee","6018ca4d4d91481d30323b85","Mozilla/5.0 (Windows NT 10.0; Win64; x64) AppleWebKit/537.36 (KHTML, like Gecko) Chrome/88.0.4324.104 Safari/537.36","","","","","","","","-10,-5,0,5,10","media/audio/stims/spherical_300cm_s20_c20_cd-full_matched_a-5.wav","spherical","20","20","full","matched","-5","10","1324"
"echo-presentation","128","609781","0.0-128.0","5f2c8d4334a79d06cb136702","5fef55e628823a0076ec12ee","6018ca4d4d91481d30323b85","Mozilla/5.0 (Windows NT 10.0; Win64; x64) AppleWebKit/537.36 (KHTML, like Gecko) Chrome/88.0.4324.104 Safari/537.36","","","","","","","","-10,-5,0,5,10","media/audio/stims/spherical_300cm_s20_c20_cd-full_matched_a10.wav","spherical","20","20","full","matched","10","10","1639"
"echo-presentation","129","611633","0.0-129.0","5f2c8d4334a79d06cb136702","5fef55e628823a0076ec12ee","6018ca4d4d91481d30323b85","Mozilla/5.0 (Windows NT 10.0; Win64; x64) AppleWebKit/537.36 (KHTML, like Gecko) Chrome/88.0.4324.104 Safari/537.36","","","","","","","","-10,-5,0,5,10","media/audio/stims/spherical_300cm_s20_c20_cd-full_matched_a5.wav","spherical","20","20","full","matched","5","10","1127"
"echo-presentation","130","613463","0.0-130.0","5f2c8d4334a79d06cb136702","5fef55e628823a0076ec12ee","6018ca4d4d91481d30323b85","Mozilla/5.0 (Windows NT 10.0; Win64; x64) AppleWebKit/537.36 (KHTML, like Gecko) Chrome/88.0.4324.104 Safari/537.36","","","","","","","","-10,-5,0,5,10","media/audio/stims/spherical_300cm_s20_c20_cd-full_matched_a10.wav","spherical","20","20","full","matched","10","10","1059"
"echo-presentation","131","615421","0.0-131.0","5f2c8d4334a79d06cb136702","5fef55e628823a0076ec12ee","6018ca4d4d91481d30323b85","Mozilla/5.0 (Windows NT 10.0; Win64; x64) AppleWebKit/537.36 (KHTML, like Gecko) Chrome/88.0.4324.104 Safari/537.36","","","","","","","","-10,-5,0,5,10","media/audio/stims/spherical_300cm_s20_c20_cd-full_matched_a10.wav","spherical","20","20","full","matched","10","-5","1206"
"echo-presentation","132","617610","0.0-132.0","5f2c8d4334a79d06cb136702","5fef55e628823a0076ec12ee","6018ca4d4d91481d30323b85","Mozilla/5.0 (Windows NT 10.0; Win64; x64) AppleWebKit/537.36 (KHTML, like Gecko) Chrome/88.0.4324.104 Safari/537.36","","","","","","","","-10,-5,0,5,10","media/audio/stims/spherical_300cm_s20_c20_cd-full_matched_a0.wav","spherical","20","20","full","matched","0","10","1383"
"echo-presentation","133","619575","0.0-133.0","5f2c8d4334a79d06cb136702","5fef55e628823a0076ec12ee","6018ca4d4d91481d30323b85","Mozilla/5.0 (Windows NT 10.0; Win64; x64) AppleWebKit/537.36 (KHTML, like Gecko) Chrome/88.0.4324.104 Safari/537.36","","","","","","","","-10,-5,0,5,10","media/audio/stims/spherical_300cm_s20_c20_cd-full_matched_a10.wav","spherical","20","20","full","matched","10","0","851"
"echo-presentation","134","621460","0.0-134.0","5f2c8d4334a79d06cb136702","5fef55e628823a0076ec12ee","6018ca4d4d91481d30323b85","Mozilla/5.0 (Windows NT 10.0; Win64; x64) AppleWebKit/537.36 (KHTML, like Gecko) Chrome/88.0.4324.104 Safari/537.36","","","","","","","","-10,-5,0,5,10","media/audio/stims/spherical_300cm_s20_c20_cd-full_matched_a-10.wav","spherical","20","20","full","matched","-10","10","1115"
"echo-presentation","135","623029","0.0-135.0","5f2c8d4334a79d06cb136702","5fef55e628823a0076ec12ee","6018ca4d4d91481d30323b85","Mozilla/5.0 (Windows NT 10.0; Win64; x64) AppleWebKit/537.36 (KHTML, like Gecko) Chrome/88.0.4324.104 Safari/537.36","","","","","","","","-10,-5,0,5,10","media/audio/stims/spherical_300cm_s20_c20_cd-full_matched_a-5.wav","spherical","20","20","full","matched","-5","-5","911"
"echo-presentation","136","624694","0.0-136.0","5f2c8d4334a79d06cb136702","5fef55e628823a0076ec12ee","6018ca4d4d91481d30323b85","Mozilla/5.0 (Windows NT 10.0; Win64; x64) AppleWebKit/537.36 (KHTML, like Gecko) Chrome/88.0.4324.104 Safari/537.36","","","","","","","","-10,-5,0,5,10","media/audio/stims/spherical_300cm_s20_c20_cd-full_matched_a-10.wav","spherical","20","20","full","matched","-10","0","750"
"echo-presentation","137","627070","0.0-137.0","5f2c8d4334a79d06cb136702","5fef55e628823a0076ec12ee","6018ca4d4d91481d30323b85","Mozilla/5.0 (Windows NT 10.0; Win64; x64) AppleWebKit/537.36 (KHTML, like Gecko) Chrome/88.0.4324.104 Safari/537.36","","","","","","","","-10,-5,0,5,10","media/audio/stims/spherical_300cm_s20_c20_cd-full_matched_a0.wav","spherical","20","20","full","matched","0","10","1110"
"block-bookend","138","628829","0.0-138.0","5f2c8d4334a79d06cb136702","5fef55e628823a0076ec12ee","6018ca4d4d91481d30323b85","Mozilla/5.0 (Windows NT 10.0; Win64; x64) AppleWebKit/537.36 (KHTML, like Gecko) Chrome/88.0.4324.104 Safari/537.36","","","","","","","","","","","","","","","","",""
