"trial_type","trial_index","time_elapsed","internal_node_id","prolificPid","studyId","sessionId","userAgent","rt","stimulus","key_press","chosenKeyset","failureCount","testIndex","globalVolume","choices","filename","modelName","slowdown","compensation","compensationDescriptor","receiverOrientationType","azimuth","responseAzimuth","responseDelay"
"pavlovia","0","4","0.0-0.0","5fe386f112f16c0437ebc71d","5fef55e628823a0076ec12ee","6018d3ceda6f301e0700a07d","Mozilla/5.0 (Windows NT 10.0; Win64; x64) AppleWebKit/537.36 (KHTML, like Gecko) Chrome/88.0.4324.104 Safari/537.36","","","","","","","","","","","","","","","","",""
"html-keyboard-response","1","4925","0.0-1.0","5fe386f112f16c0437ebc71d","5fef55e628823a0076ec12ee","6018d3ceda6f301e0700a07d","Mozilla/5.0 (Windows NT 10.0; Win64; x64) AppleWebKit/537.36 (KHTML, like Gecko) Chrome/88.0.4324.104 Safari/537.36","4920.285000000149","<div><h1>Welcome!</h1><p>Press any key to continue.</p></div>","32","","","","","","","","","","","","","",""
"consent-form","2","215238","0.0-2.0","5fe386f112f16c0437ebc71d","5fef55e628823a0076ec12ee","6018d3ceda6f301e0700a07d","Mozilla/5.0 (Windows NT 10.0; Win64; x64) AppleWebKit/537.36 (KHTML, like Gecko) Chrome/88.0.4324.104 Safari/537.36","","","","","","","","","","","","","","","","",""
"keyset-select","3","261896","0.0-3.0","5fe386f112f16c0437ebc71d","5fef55e628823a0076ec12ee","6018d3ceda6f301e0700a07d","Mozilla/5.0 (Windows NT 10.0; Win64; x64) AppleWebKit/537.36 (KHTML, like Gecko) Chrome/88.0.4324.104 Safari/537.36","","","","left-hand","","","","","","","","","","","","",""
"headphone-check","4","353175","0.0-4.0","5fe386f112f16c0437ebc71d","5fef55e628823a0076ec12ee","6018d3ceda6f301e0700a07d","Mozilla/5.0 (Windows NT 10.0; Win64; x64) AppleWebKit/537.36 (KHTML, like Gecko) Chrome/88.0.4324.104 Safari/537.36","","","","","0","6","0.3","","","","","","","","","",""
"headphone-backwards-check","5","384227","0.0-5.0","5fe386f112f16c0437ebc71d","5fef55e628823a0076ec12ee","6018d3ceda6f301e0700a07d","Mozilla/5.0 (Windows NT 10.0; Win64; x64) AppleWebKit/537.36 (KHTML, like Gecko) Chrome/88.0.4324.104 Safari/537.36","","","","","0","","","","","","","","","","","",""
"training","6","541761","0.0-6.0","5fe386f112f16c0437ebc71d","5fef55e628823a0076ec12ee","6018d3ceda6f301e0700a07d","Mozilla/5.0 (Windows NT 10.0; Win64; x64) AppleWebKit/537.36 (KHTML, like Gecko) Chrome/88.0.4324.104 Safari/537.36","","","","","","","","","","","","","","","","",""
"block-bookend","7","573687","0.0-7.0","5fe386f112f16c0437ebc71d","5fef55e628823a0076ec12ee","6018d3ceda6f301e0700a07d","Mozilla/5.0 (Windows NT 10.0; Win64; x64) AppleWebKit/537.36 (KHTML, like Gecko) Chrome/88.0.4324.104 Safari/537.36","","","","","","","","","","","","","","","","",""
"echo-presentation","8","593663","0.0-8.0","5fe386f112f16c0437ebc71d","5fef55e628823a0076ec12ee","6018d3ceda6f301e0700a07d","Mozilla/5.0 (Windows NT 10.0; Win64; x64) AppleWebKit/537.36 (KHTML, like Gecko) Chrome/88.0.4324.104 Safari/537.36","","","","","","","","-10,-5,0,5,10","media/audio/stims/spherical_300cm_s20_c20_cd-full_matched_a5.wav","spherical","20","20","full","matched","5","-5","15033"
"echo-presentation","9","605398","0.0-9.0","5fe386f112f16c0437ebc71d","5fef55e628823a0076ec12ee","6018d3ceda6f301e0700a07d","Mozilla/5.0 (Windows NT 10.0; Win64; x64) AppleWebKit/537.36 (KHTML, like Gecko) Chrome/88.0.4324.104 Safari/537.36","","","","","","","","-10,-5,0,5,10","media/audio/stims/spherical_300cm_s20_c20_cd-full_matched_a10.wav","spherical","20","20","full","matched","10","-5","4835"
"echo-presentation","10","610719","0.0-10.0","5fe386f112f16c0437ebc71d","5fef55e628823a0076ec12ee","6018d3ceda6f301e0700a07d","Mozilla/5.0 (Windows NT 10.0; Win64; x64) AppleWebKit/537.36 (KHTML, like Gecko) Chrome/88.0.4324.104 Safari/537.36","","","","","","","","-10,-5,0,5,10","media/audio/stims/spherical_300cm_s20_c20_cd-full_matched_a0.wav","spherical","20","20","full","matched","0","5","2435"
"echo-presentation","11","615853","0.0-11.0","5fe386f112f16c0437ebc71d","5fef55e628823a0076ec12ee","6018d3ceda6f301e0700a07d","Mozilla/5.0 (Windows NT 10.0; Win64; x64) AppleWebKit/537.36 (KHTML, like Gecko) Chrome/88.0.4324.104 Safari/537.36","","","","","","","","-10,-5,0,5,10","media/audio/stims/spherical_300cm_s20_c20_cd-full_matched_a-5.wav","spherical","20","20","full","matched","-5","-5","3806"
"echo-presentation","12","621547","0.0-12.0","5fe386f112f16c0437ebc71d","5fef55e628823a0076ec12ee","6018d3ceda6f301e0700a07d","Mozilla/5.0 (Windows NT 10.0; Win64; x64) AppleWebKit/537.36 (KHTML, like Gecko) Chrome/88.0.4324.104 Safari/537.36","","","","","","","","-10,-5,0,5,10","media/audio/stims/spherical_300cm_s20_c20_cd-full_matched_a5.wav","spherical","20","20","full","matched","5","5","4331"
"echo-presentation","13","625580","0.0-13.0","5fe386f112f16c0437ebc71d","5fef55e628823a0076ec12ee","6018d3ceda6f301e0700a07d","Mozilla/5.0 (Windows NT 10.0; Win64; x64) AppleWebKit/537.36 (KHTML, like Gecko) Chrome/88.0.4324.104 Safari/537.36","","","","","","","","-10,-5,0,5,10","media/audio/stims/spherical_300cm_s20_c20_cd-full_matched_a5.wav","spherical","20","20","full","matched","5","0","1909"
"echo-presentation","14","628691","0.0-14.0","5fe386f112f16c0437ebc71d","5fef55e628823a0076ec12ee","6018d3ceda6f301e0700a07d","Mozilla/5.0 (Windows NT 10.0; Win64; x64) AppleWebKit/537.36 (KHTML, like Gecko) Chrome/88.0.4324.104 Safari/537.36","","","","","","","","-10,-5,0,5,10","media/audio/stims/spherical_300cm_s20_c20_cd-full_matched_a-5.wav","spherical","20","20","full","matched","-5","0","2104"
"echo-presentation","15","631544","0.0-15.0","5fe386f112f16c0437ebc71d","5fef55e628823a0076ec12ee","6018d3ceda6f301e0700a07d","Mozilla/5.0 (Windows NT 10.0; Win64; x64) AppleWebKit/537.36 (KHTML, like Gecko) Chrome/88.0.4324.104 Safari/537.36","","","","","","","","-10,-5,0,5,10","media/audio/stims/spherical_300cm_s20_c20_cd-full_matched_a-10.wav","spherical","20","20","full","matched","-10","-5","1584"
"echo-presentation","16","634562","0.0-16.0","5fe386f112f16c0437ebc71d","5fef55e628823a0076ec12ee","6018d3ceda6f301e0700a07d","Mozilla/5.0 (Windows NT 10.0; Win64; x64) AppleWebKit/537.36 (KHTML, like Gecko) Chrome/88.0.4324.104 Safari/537.36","","","","","","","","-10,-5,0,5,10","media/audio/stims/spherical_300cm_s20_c20_cd-full_matched_a-10.wav","spherical","20","20","full","matched","-10","0","1692"
"echo-presentation","17","637776","0.0-17.0","5fe386f112f16c0437ebc71d","5fef55e628823a0076ec12ee","6018d3ceda6f301e0700a07d","Mozilla/5.0 (Windows NT 10.0; Win64; x64) AppleWebKit/537.36 (KHTML, like Gecko) Chrome/88.0.4324.104 Safari/537.36","","","","","","","","-10,-5,0,5,10","media/audio/stims/spherical_300cm_s20_c20_cd-full_matched_a10.wav","spherical","20","20","full","matched","10","0","1631"
"echo-presentation","18","645137","0.0-18.0","5fe386f112f16c0437ebc71d","5fef55e628823a0076ec12ee","6018d3ceda6f301e0700a07d","Mozilla/5.0 (Windows NT 10.0; Win64; x64) AppleWebKit/537.36 (KHTML, like Gecko) Chrome/88.0.4324.104 Safari/537.36","","","","","","","","-10,-5,0,5,10","media/audio/stims/spherical_300cm_s20_c20_cd-full_matched_a10.wav","spherical","20","20","full","matched","10","-5","6104"
"echo-presentation","19","650374","0.0-19.0","5fe386f112f16c0437ebc71d","5fef55e628823a0076ec12ee","6018d3ceda6f301e0700a07d","Mozilla/5.0 (Windows NT 10.0; Win64; x64) AppleWebKit/537.36 (KHTML, like Gecko) Chrome/88.0.4324.104 Safari/537.36","","","","","","","","-10,-5,0,5,10","media/audio/stims/spherical_300cm_s20_c20_cd-full_matched_a5.wav","spherical","20","20","full","matched","5","0","3058"
"echo-presentation","20","654144","0.0-20.0","5fe386f112f16c0437ebc71d","5fef55e628823a0076ec12ee","6018d3ceda6f301e0700a07d","Mozilla/5.0 (Windows NT 10.0; Win64; x64) AppleWebKit/537.36 (KHTML, like Gecko) Chrome/88.0.4324.104 Safari/537.36","","","","","","","","-10,-5,0,5,10","media/audio/stims/spherical_300cm_s20_c20_cd-full_matched_a-5.wav","spherical","20","20","full","matched","-5","0","2566"
"echo-presentation","21","659643","0.0-21.0","5fe386f112f16c0437ebc71d","5fef55e628823a0076ec12ee","6018d3ceda6f301e0700a07d","Mozilla/5.0 (Windows NT 10.0; Win64; x64) AppleWebKit/537.36 (KHTML, like Gecko) Chrome/88.0.4324.104 Safari/537.36","","","","","","","","-10,-5,0,5,10","media/audio/stims/spherical_300cm_s20_c20_cd-full_matched_a-5.wav","spherical","20","20","full","matched","-5","-5","3682"
"echo-presentation","22","663061","0.0-22.0","5fe386f112f16c0437ebc71d","5fef55e628823a0076ec12ee","6018d3ceda6f301e0700a07d","Mozilla/5.0 (Windows NT 10.0; Win64; x64) AppleWebKit/537.36 (KHTML, like Gecko) Chrome/88.0.4324.104 Safari/537.36","","","","","","","","-10,-5,0,5,10","media/audio/stims/spherical_300cm_s20_c20_cd-full_matched_a10.wav","spherical","20","20","full","matched","10","0","2063"
"echo-presentation","23","666619","0.0-23.0","5fe386f112f16c0437ebc71d","5fef55e628823a0076ec12ee","6018d3ceda6f301e0700a07d","Mozilla/5.0 (Windows NT 10.0; Win64; x64) AppleWebKit/537.36 (KHTML, like Gecko) Chrome/88.0.4324.104 Safari/537.36","","","","","","","","-10,-5,0,5,10","media/audio/stims/spherical_300cm_s20_c20_cd-full_matched_a0.wav","spherical","20","20","full","matched","0","0","2216"
"echo-presentation","24","669512","0.0-24.0","5fe386f112f16c0437ebc71d","5fef55e628823a0076ec12ee","6018d3ceda6f301e0700a07d","Mozilla/5.0 (Windows NT 10.0; Win64; x64) AppleWebKit/537.36 (KHTML, like Gecko) Chrome/88.0.4324.104 Safari/537.36","","","","","","","","-10,-5,0,5,10","media/audio/stims/spherical_300cm_s20_c20_cd-full_matched_a0.wav","spherical","20","20","full","matched","0","0","1870"
"echo-presentation","25","672697","0.0-25.0","5fe386f112f16c0437ebc71d","5fef55e628823a0076ec12ee","6018d3ceda6f301e0700a07d","Mozilla/5.0 (Windows NT 10.0; Win64; x64) AppleWebKit/537.36 (KHTML, like Gecko) Chrome/88.0.4324.104 Safari/537.36","","","","","","","","-10,-5,0,5,10","media/audio/stims/spherical_300cm_s20_c20_cd-full_matched_a-10.wav","spherical","20","20","full","matched","-10","0","2332"
"echo-presentation","26","676169","0.0-26.0","5fe386f112f16c0437ebc71d","5fef55e628823a0076ec12ee","6018d3ceda6f301e0700a07d","Mozilla/5.0 (Windows NT 10.0; Win64; x64) AppleWebKit/537.36 (KHTML, like Gecko) Chrome/88.0.4324.104 Safari/537.36","","","","","","","","-10,-5,0,5,10","media/audio/stims/spherical_300cm_s20_c20_cd-full_matched_a-10.wav","spherical","20","20","full","matched","-10","-5","2498"
"echo-presentation","27","679694","0.0-27.0","5fe386f112f16c0437ebc71d","5fef55e628823a0076ec12ee","6018d3ceda6f301e0700a07d","Mozilla/5.0 (Windows NT 10.0; Win64; x64) AppleWebKit/537.36 (KHTML, like Gecko) Chrome/88.0.4324.104 Safari/537.36","","","","","","","","-10,-5,0,5,10","media/audio/stims/spherical_300cm_s20_c20_cd-full_matched_a0.wav","spherical","20","20","full","matched","0","-5","2304"
"block-bookend","28","683098","0.0-28.0","5fe386f112f16c0437ebc71d","5fef55e628823a0076ec12ee","6018d3ceda6f301e0700a07d","Mozilla/5.0 (Windows NT 10.0; Win64; x64) AppleWebKit/537.36 (KHTML, like Gecko) Chrome/88.0.4324.104 Safari/537.36","","","","","","","","","","","","","","","","",""
"block-bookend","29","700029","0.0-29.0","5fe386f112f16c0437ebc71d","5fef55e628823a0076ec12ee","6018d3ceda6f301e0700a07d","Mozilla/5.0 (Windows NT 10.0; Win64; x64) AppleWebKit/537.36 (KHTML, like Gecko) Chrome/88.0.4324.104 Safari/537.36","","","","","","","","","","","","","","","","",""
"echo-presentation","30","708497","0.0-30.0","5fe386f112f16c0437ebc71d","5fef55e628823a0076ec12ee","6018d3ceda6f301e0700a07d","Mozilla/5.0 (Windows NT 10.0; Win64; x64) AppleWebKit/537.36 (KHTML, like Gecko) Chrome/88.0.4324.104 Safari/537.36","","","","","","","","-10,-5,0,5,10","media/audio/stims/spherical_300cm_s20_c20_cd-full_matched_a10.wav","spherical","20","20","full","matched","10","0","5816"
"echo-presentation","31","720362","0.0-31.0","5fe386f112f16c0437ebc71d","5fef55e628823a0076ec12ee","6018d3ceda6f301e0700a07d","Mozilla/5.0 (Windows NT 10.0; Win64; x64) AppleWebKit/537.36 (KHTML, like Gecko) Chrome/88.0.4324.104 Safari/537.36","","","","","","","","-10,-5,0,5,10","media/audio/stims/spherical_300cm_s20_c20_cd-full_matched_a10.wav","spherical","20","20","full","matched","10","0","10111"
"echo-presentation","32","725120","0.0-32.0","5fe386f112f16c0437ebc71d","5fef55e628823a0076ec12ee","6018d3ceda6f301e0700a07d","Mozilla/5.0 (Windows NT 10.0; Win64; x64) AppleWebKit/537.36 (KHTML, like Gecko) Chrome/88.0.4324.104 Safari/537.36","","","","","","","","-10,-5,0,5,10","media/audio/stims/spherical_300cm_s20_c20_cd-full_matched_a5.wav","spherical","20","20","full","matched","5","5","2603"
"echo-presentation","33","727774","0.0-33.0","5fe386f112f16c0437ebc71d","5fef55e628823a0076ec12ee","6018d3ceda6f301e0700a07d","Mozilla/5.0 (Windows NT 10.0; Win64; x64) AppleWebKit/537.36 (KHTML, like Gecko) Chrome/88.0.4324.104 Safari/537.36","","","","","","","","-10,-5,0,5,10","media/audio/stims/spherical_300cm_s20_c20_cd-full_matched_a5.wav","spherical","20","20","full","matched","5","0","1577"
"echo-presentation","34","731544","0.0-34.0","5fe386f112f16c0437ebc71d","5fef55e628823a0076ec12ee","6018d3ceda6f301e0700a07d","Mozilla/5.0 (Windows NT 10.0; Win64; x64) AppleWebKit/537.36 (KHTML, like Gecko) Chrome/88.0.4324.104 Safari/537.36","","","","","","","","-10,-5,0,5,10","media/audio/stims/spherical_300cm_s20_c20_cd-full_matched_a5.wav","spherical","20","20","full","matched","5","5","2714"
"echo-presentation","35","736389","0.0-35.0","5fe386f112f16c0437ebc71d","5fef55e628823a0076ec12ee","6018d3ceda6f301e0700a07d","Mozilla/5.0 (Windows NT 10.0; Win64; x64) AppleWebKit/537.36 (KHTML, like Gecko) Chrome/88.0.4324.104 Safari/537.36","","","","","","","","-10,-5,0,5,10","media/audio/stims/spherical_300cm_s20_c20_cd-full_matched_a0.wav","spherical","20","20","full","matched","0","-5","2877"
"echo-presentation","36","739735","0.0-36.0","5fe386f112f16c0437ebc71d","5fef55e628823a0076ec12ee","6018d3ceda6f301e0700a07d","Mozilla/5.0 (Windows NT 10.0; Win64; x64) AppleWebKit/537.36 (KHTML, like Gecko) Chrome/88.0.4324.104 Safari/537.36","","","","","","","","-10,-5,0,5,10","media/audio/stims/spherical_300cm_s20_c20_cd-full_matched_a5.wav","spherical","20","20","full","matched","5","5","2016"
"echo-presentation","37","743427","0.0-37.0","5fe386f112f16c0437ebc71d","5fef55e628823a0076ec12ee","6018d3ceda6f301e0700a07d","Mozilla/5.0 (Windows NT 10.0; Win64; x64) AppleWebKit/537.36 (KHTML, like Gecko) Chrome/88.0.4324.104 Safari/537.36","","","","","","","","-10,-5,0,5,10","media/audio/stims/spherical_300cm_s20_c20_cd-full_matched_a-5.wav","spherical","20","20","full","matched","-5","0","2563"
"echo-presentation","38","746148","0.0-38.0","5fe386f112f16c0437ebc71d","5fef55e628823a0076ec12ee","6018d3ceda6f301e0700a07d","Mozilla/5.0 (Windows NT 10.0; Win64; x64) AppleWebKit/537.36 (KHTML, like Gecko) Chrome/88.0.4324.104 Safari/537.36","","","","","","","","-10,-5,0,5,10","media/audio/stims/spherical_300cm_s20_c20_cd-full_matched_a-5.wav","spherical","20","20","full","matched","-5","5","1857"
"echo-presentation","39","748759","0.0-39.0","5fe386f112f16c0437ebc71d","5fef55e628823a0076ec12ee","6018d3ceda6f301e0700a07d","Mozilla/5.0 (Windows NT 10.0; Win64; x64) AppleWebKit/537.36 (KHTML, like Gecko) Chrome/88.0.4324.104 Safari/537.36","","","","","","","","-10,-5,0,5,10","media/audio/stims/spherical_300cm_s20_c20_cd-full_matched_a-10.wav","spherical","20","20","full","matched","-10","-5","1581"
"echo-presentation","40","751074","0.0-40.0","5fe386f112f16c0437ebc71d","5fef55e628823a0076ec12ee","6018d3ceda6f301e0700a07d","Mozilla/5.0 (Windows NT 10.0; Win64; x64) AppleWebKit/537.36 (KHTML, like Gecko) Chrome/88.0.4324.104 Safari/537.36","","","","","","","","-10,-5,0,5,10","media/audio/stims/spherical_300cm_s20_c20_cd-full_matched_a10.wav","spherical","20","20","full","matched","10","5","1490"
"echo-presentation","41","753325","0.0-41.0","5fe386f112f16c0437ebc71d","5fef55e628823a0076ec12ee","6018d3ceda6f301e0700a07d","Mozilla/5.0 (Windows NT 10.0; Win64; x64) AppleWebKit/537.36 (KHTML, like Gecko) Chrome/88.0.4324.104 Safari/537.36","","","","","","","","-10,-5,0,5,10","media/audio/stims/spherical_300cm_s20_c20_cd-full_matched_a-10.wav","spherical","20","20","full","matched","-10","-5","1481"
"echo-presentation","42","757181","0.0-42.0","5fe386f112f16c0437ebc71d","5fef55e628823a0076ec12ee","6018d3ceda6f301e0700a07d","Mozilla/5.0 (Windows NT 10.0; Win64; x64) AppleWebKit/537.36 (KHTML, like Gecko) Chrome/88.0.4324.104 Safari/537.36","","","","","","","","-10,-5,0,5,10","media/audio/stims/spherical_300cm_s20_c20_cd-full_matched_a0.wav","spherical","20","20","full","matched","0","-5","3111"
"echo-presentation","43","759867","0.0-43.0","5fe386f112f16c0437ebc71d","5fef55e628823a0076ec12ee","6018d3ceda6f301e0700a07d","Mozilla/5.0 (Windows NT 10.0; Win64; x64) AppleWebKit/537.36 (KHTML, like Gecko) Chrome/88.0.4324.104 Safari/537.36","","","","","","","","-10,-5,0,5,10","media/audio/stims/spherical_300cm_s20_c20_cd-full_matched_a0.wav","spherical","20","20","full","matched","0","-5","2126"
"echo-presentation","44","762926","0.0-44.0","5fe386f112f16c0437ebc71d","5fef55e628823a0076ec12ee","6018d3ceda6f301e0700a07d","Mozilla/5.0 (Windows NT 10.0; Win64; x64) AppleWebKit/537.36 (KHTML, like Gecko) Chrome/88.0.4324.104 Safari/537.36","","","","","","","","-10,-5,0,5,10","media/audio/stims/spherical_300cm_s20_c20_cd-full_matched_a-5.wav","spherical","20","20","full","matched","-5","0","1514"
"echo-presentation","45","765721","0.0-45.0","5fe386f112f16c0437ebc71d","5fef55e628823a0076ec12ee","6018d3ceda6f301e0700a07d","Mozilla/5.0 (Windows NT 10.0; Win64; x64) AppleWebKit/537.36 (KHTML, like Gecko) Chrome/88.0.4324.104 Safari/537.36","","","","","","","","-10,-5,0,5,10","media/audio/stims/spherical_300cm_s20_c20_cd-full_matched_a-5.wav","spherical","20","20","full","matched","-5","5","1574"
"echo-presentation","46","768385","0.0-46.0","5fe386f112f16c0437ebc71d","5fef55e628823a0076ec12ee","6018d3ceda6f301e0700a07d","Mozilla/5.0 (Windows NT 10.0; Win64; x64) AppleWebKit/537.36 (KHTML, like Gecko) Chrome/88.0.4324.104 Safari/537.36","","","","","","","","-10,-5,0,5,10","media/audio/stims/spherical_300cm_s20_c20_cd-full_matched_a10.wav","spherical","20","20","full","matched","10","0","1508"
"echo-presentation","47","771196","0.0-47.0","5fe386f112f16c0437ebc71d","5fef55e628823a0076ec12ee","6018d3ceda6f301e0700a07d","Mozilla/5.0 (Windows NT 10.0; Win64; x64) AppleWebKit/537.36 (KHTML, like Gecko) Chrome/88.0.4324.104 Safari/537.36","","","","","","","","-10,-5,0,5,10","media/audio/stims/spherical_300cm_s20_c20_cd-full_matched_a-10.wav","spherical","20","20","full","matched","-10","-5","1532"
"echo-presentation","48","774147","0.0-48.0","5fe386f112f16c0437ebc71d","5fef55e628823a0076ec12ee","6018d3ceda6f301e0700a07d","Mozilla/5.0 (Windows NT 10.0; Win64; x64) AppleWebKit/537.36 (KHTML, like Gecko) Chrome/88.0.4324.104 Safari/537.36","","","","","","","","-10,-5,0,5,10","media/audio/stims/spherical_300cm_s20_c20_cd-full_matched_a0.wav","spherical","20","20","full","matched","0","5","1732"
"echo-presentation","49","776817","0.0-49.0","5fe386f112f16c0437ebc71d","5fef55e628823a0076ec12ee","6018d3ceda6f301e0700a07d","Mozilla/5.0 (Windows NT 10.0; Win64; x64) AppleWebKit/537.36 (KHTML, like Gecko) Chrome/88.0.4324.104 Safari/537.36","","","","","","","","-10,-5,0,5,10","media/audio/stims/spherical_300cm_s20_c20_cd-full_matched_a-10.wav","spherical","20","20","full","matched","-10","5","1413"
"block-bookend","50","780699","0.0-50.0","5fe386f112f16c0437ebc71d","5fef55e628823a0076ec12ee","6018d3ceda6f301e0700a07d","Mozilla/5.0 (Windows NT 10.0; Win64; x64) AppleWebKit/537.36 (KHTML, like Gecko) Chrome/88.0.4324.104 Safari/537.36","","","","","","","","","","","","","","","","",""
"block-bookend","51","797385","0.0-51.0","5fe386f112f16c0437ebc71d","5fef55e628823a0076ec12ee","6018d3ceda6f301e0700a07d","Mozilla/5.0 (Windows NT 10.0; Win64; x64) AppleWebKit/537.36 (KHTML, like Gecko) Chrome/88.0.4324.104 Safari/537.36","","","","","","","","","","","","","","","","",""
"echo-presentation","52","804733","0.0-52.0","5fe386f112f16c0437ebc71d","5fef55e628823a0076ec12ee","6018d3ceda6f301e0700a07d","Mozilla/5.0 (Windows NT 10.0; Win64; x64) AppleWebKit/537.36 (KHTML, like Gecko) Chrome/88.0.4324.104 Safari/537.36","","","","","","","","-70,-65,-60,-55,-50","media/audio/stims/spherical_300cm_s20_c20_cd-full_matched_a-65.wav","spherical","20","20","full","matched","-65","-70","4171"
"echo-presentation","53","807601","0.0-53.0","5fe386f112f16c0437ebc71d","5fef55e628823a0076ec12ee","6018d3ceda6f301e0700a07d","Mozilla/5.0 (Windows NT 10.0; Win64; x64) AppleWebKit/537.36 (KHTML, like Gecko) Chrome/88.0.4324.104 Safari/537.36","","","","","","","","-70,-65,-60,-55,-50","media/audio/stims/spherical_300cm_s20_c20_cd-full_matched_a-60.wav","spherical","20","20","full","matched","-60","-70","1546"
"echo-presentation","54","821442","0.0-54.0","5fe386f112f16c0437ebc71d","5fef55e628823a0076ec12ee","6018d3ceda6f301e0700a07d","Mozilla/5.0 (Windows NT 10.0; Win64; x64) AppleWebKit/537.36 (KHTML, like Gecko) Chrome/88.0.4324.104 Safari/537.36","","","","","","","","-70,-65,-60,-55,-50","media/audio/stims/spherical_300cm_s20_c20_cd-full_matched_a-50.wav","spherical","20","20","full","matched","-50","-60","12897"
"echo-presentation","55","827290","0.0-55.0","5fe386f112f16c0437ebc71d","5fef55e628823a0076ec12ee","6018d3ceda6f301e0700a07d","Mozilla/5.0 (Windows NT 10.0; Win64; x64) AppleWebKit/537.36 (KHTML, like Gecko) Chrome/88.0.4324.104 Safari/537.36","","","","","","","","-70,-65,-60,-55,-50","media/audio/stims/spherical_300cm_s20_c20_cd-full_matched_a-70.wav","spherical","20","20","full","matched","-70","-50","2031"
"echo-presentation","56","829936","0.0-56.0","5fe386f112f16c0437ebc71d","5fef55e628823a0076ec12ee","6018d3ceda6f301e0700a07d","Mozilla/5.0 (Windows NT 10.0; Win64; x64) AppleWebKit/537.36 (KHTML, like Gecko) Chrome/88.0.4324.104 Safari/537.36","","","","","","","","-70,-65,-60,-55,-50","media/audio/stims/spherical_300cm_s20_c20_cd-full_matched_a-50.wav","spherical","20","20","full","matched","-50","-65","1747"
"echo-presentation","57","832431","0.0-57.0","5fe386f112f16c0437ebc71d","5fef55e628823a0076ec12ee","6018d3ceda6f301e0700a07d","Mozilla/5.0 (Windows NT 10.0; Win64; x64) AppleWebKit/537.36 (KHTML, like Gecko) Chrome/88.0.4324.104 Safari/537.36","","","","","","","","-70,-65,-60,-55,-50","media/audio/stims/spherical_300cm_s20_c20_cd-full_matched_a-55.wav","spherical","20","20","full","matched","-55","-70","1539"
"echo-presentation","58","835250","0.0-58.0","5fe386f112f16c0437ebc71d","5fef55e628823a0076ec12ee","6018d3ceda6f301e0700a07d","Mozilla/5.0 (Windows NT 10.0; Win64; x64) AppleWebKit/537.36 (KHTML, like Gecko) Chrome/88.0.4324.104 Safari/537.36","","","","","","","","-70,-65,-60,-55,-50","media/audio/stims/spherical_300cm_s20_c20_cd-full_matched_a-50.wav","spherical","20","20","full","matched","-50","-60","1381"
"echo-presentation","59","839281","0.0-59.0","5fe386f112f16c0437ebc71d","5fef55e628823a0076ec12ee","6018d3ceda6f301e0700a07d","Mozilla/5.0 (Windows NT 10.0; Win64; x64) AppleWebKit/537.36 (KHTML, like Gecko) Chrome/88.0.4324.104 Safari/537.36","","","","","","","","-70,-65,-60,-55,-50","media/audio/stims/spherical_300cm_s20_c20_cd-full_matched_a-70.wav","spherical","20","20","full","matched","-70","-65","2344"
"echo-presentation","60","841822","0.0-60.0","5fe386f112f16c0437ebc71d","5fef55e628823a0076ec12ee","6018d3ceda6f301e0700a07d","Mozilla/5.0 (Windows NT 10.0; Win64; x64) AppleWebKit/537.36 (KHTML, like Gecko) Chrome/88.0.4324.104 Safari/537.36","","","","","","","","-70,-65,-60,-55,-50","media/audio/stims/spherical_300cm_s20_c20_cd-full_matched_a-65.wav","spherical","20","20","full","matched","-65","-55","1705"
"echo-presentation","61","843981","0.0-61.0","5fe386f112f16c0437ebc71d","5fef55e628823a0076ec12ee","6018d3ceda6f301e0700a07d","Mozilla/5.0 (Windows NT 10.0; Win64; x64) AppleWebKit/537.36 (KHTML, like Gecko) Chrome/88.0.4324.104 Safari/537.36","","","","","","","","-70,-65,-60,-55,-50","media/audio/stims/spherical_300cm_s20_c20_cd-full_matched_a-60.wav","spherical","20","20","full","matched","-60","-50","1307"
"echo-presentation","62","846157","0.0-62.0","5fe386f112f16c0437ebc71d","5fef55e628823a0076ec12ee","6018d3ceda6f301e0700a07d","Mozilla/5.0 (Windows NT 10.0; Win64; x64) AppleWebKit/537.36 (KHTML, like Gecko) Chrome/88.0.4324.104 Safari/537.36","","","","","","","","-70,-65,-60,-55,-50","media/audio/stims/spherical_300cm_s20_c20_cd-full_matched_a-70.wav","spherical","20","20","full","matched","-70","-70","1311"
"echo-presentation","63","848189","0.0-63.0","5fe386f112f16c0437ebc71d","5fef55e628823a0076ec12ee","6018d3ceda6f301e0700a07d","Mozilla/5.0 (Windows NT 10.0; Win64; x64) AppleWebKit/537.36 (KHTML, like Gecko) Chrome/88.0.4324.104 Safari/537.36","","","","","","","","-70,-65,-60,-55,-50","media/audio/stims/spherical_300cm_s20_c20_cd-full_matched_a-55.wav","spherical","20","20","full","matched","-55","-65","1206"
"echo-presentation","64","850579","0.0-64.0","5fe386f112f16c0437ebc71d","5fef55e628823a0076ec12ee","6018d3ceda6f301e0700a07d","Mozilla/5.0 (Windows NT 10.0; Win64; x64) AppleWebKit/537.36 (KHTML, like Gecko) Chrome/88.0.4324.104 Safari/537.36","","","","","","","","-70,-65,-60,-55,-50","media/audio/stims/spherical_300cm_s20_c20_cd-full_matched_a-70.wav","spherical","20","20","full","matched","-70","-65","1542"
"echo-presentation","65","852466","0.0-65.0","5fe386f112f16c0437ebc71d","5fef55e628823a0076ec12ee","6018d3ceda6f301e0700a07d","Mozilla/5.0 (Windows NT 10.0; Win64; x64) AppleWebKit/537.36 (KHTML, like Gecko) Chrome/88.0.4324.104 Safari/537.36","","","","","","","","-70,-65,-60,-55,-50","media/audio/stims/spherical_300cm_s20_c20_cd-full_matched_a-65.wav","spherical","20","20","full","matched","-65","-60","1094"
"echo-presentation","66","855330","0.0-66.0","5fe386f112f16c0437ebc71d","5fef55e628823a0076ec12ee","6018d3ceda6f301e0700a07d","Mozilla/5.0 (Windows NT 10.0; Win64; x64) AppleWebKit/537.36 (KHTML, like Gecko) Chrome/88.0.4324.104 Safari/537.36","","","","","","","","-70,-65,-60,-55,-50","media/audio/stims/spherical_300cm_s20_c20_cd-full_matched_a-55.wav","spherical","20","20","full","matched","-55","-60","1875"
"echo-presentation","67","858097","0.0-67.0","5fe386f112f16c0437ebc71d","5fef55e628823a0076ec12ee","6018d3ceda6f301e0700a07d","Mozilla/5.0 (Windows NT 10.0; Win64; x64) AppleWebKit/537.36 (KHTML, like Gecko) Chrome/88.0.4324.104 Safari/537.36","","","","","","","","-70,-65,-60,-55,-50","media/audio/stims/spherical_300cm_s20_c20_cd-full_matched_a-60.wav","spherical","20","20","full","matched","-60","-55","2187"
"echo-presentation","68","860242","0.0-68.0","5fe386f112f16c0437ebc71d","5fef55e628823a0076ec12ee","6018d3ceda6f301e0700a07d","Mozilla/5.0 (Windows NT 10.0; Win64; x64) AppleWebKit/537.36 (KHTML, like Gecko) Chrome/88.0.4324.104 Safari/537.36","","","","","","","","-70,-65,-60,-55,-50","media/audio/stims/spherical_300cm_s20_c20_cd-full_matched_a-65.wav","spherical","20","20","full","matched","-65","-55","1395"
"echo-presentation","69","864518","0.0-69.0","5fe386f112f16c0437ebc71d","5fef55e628823a0076ec12ee","6018d3ceda6f301e0700a07d","Mozilla/5.0 (Windows NT 10.0; Win64; x64) AppleWebKit/537.36 (KHTML, like Gecko) Chrome/88.0.4324.104 Safari/537.36","","","","","","","","-70,-65,-60,-55,-50","media/audio/stims/spherical_300cm_s20_c20_cd-full_matched_a-60.wav","spherical","20","20","full","matched","-60","-60","3315"
"echo-presentation","70","866431","0.0-70.0","5fe386f112f16c0437ebc71d","5fef55e628823a0076ec12ee","6018d3ceda6f301e0700a07d","Mozilla/5.0 (Windows NT 10.0; Win64; x64) AppleWebKit/537.36 (KHTML, like Gecko) Chrome/88.0.4324.104 Safari/537.36","","","","","","","","-70,-65,-60,-55,-50","media/audio/stims/spherical_300cm_s20_c20_cd-full_matched_a-50.wav","spherical","20","20","full","matched","-50","-65","1379"
"echo-presentation","71","868506","0.0-71.0","5fe386f112f16c0437ebc71d","5fef55e628823a0076ec12ee","6018d3ceda6f301e0700a07d","Mozilla/5.0 (Windows NT 10.0; Win64; x64) AppleWebKit/537.36 (KHTML, like Gecko) Chrome/88.0.4324.104 Safari/537.36","","","","","","","","-70,-65,-60,-55,-50","media/audio/stims/spherical_300cm_s20_c20_cd-full_matched_a-55.wav","spherical","20","20","full","matched","-55","-70","1230"
"block-bookend","72","874541","0.0-72.0","5fe386f112f16c0437ebc71d","5fef55e628823a0076ec12ee","6018d3ceda6f301e0700a07d","Mozilla/5.0 (Windows NT 10.0; Win64; x64) AppleWebKit/537.36 (KHTML, like Gecko) Chrome/88.0.4324.104 Safari/537.36","","","","","","","","","","","","","","","","",""
"block-bookend","73","883114","0.0-73.0","5fe386f112f16c0437ebc71d","5fef55e628823a0076ec12ee","6018d3ceda6f301e0700a07d","Mozilla/5.0 (Windows NT 10.0; Win64; x64) AppleWebKit/537.36 (KHTML, like Gecko) Chrome/88.0.4324.104 Safari/537.36","","","","","","","","","","","","","","","","",""
"echo-presentation","74","889229","0.0-74.0","5fe386f112f16c0437ebc71d","5fef55e628823a0076ec12ee","6018d3ceda6f301e0700a07d","Mozilla/5.0 (Windows NT 10.0; Win64; x64) AppleWebKit/537.36 (KHTML, like Gecko) Chrome/88.0.4324.104 Safari/537.36","","","","","","","","-70,-65,-60,-55,-50","media/audio/stims/spherical_300cm_s20_c20_cd-full_matched_a-60.wav","spherical","20","20","full","matched","-60","-55","2607"
"echo-presentation","75","891217","0.0-75.0","5fe386f112f16c0437ebc71d","5fef55e628823a0076ec12ee","6018d3ceda6f301e0700a07d","Mozilla/5.0 (Windows NT 10.0; Win64; x64) AppleWebKit/537.36 (KHTML, like Gecko) Chrome/88.0.4324.104 Safari/537.36","","","","","","","","-70,-65,-60,-55,-50","media/audio/stims/spherical_300cm_s20_c20_cd-full_matched_a-55.wav","spherical","20","20","full","matched","-55","-65","1210"
"echo-presentation","76","893494","0.0-76.0","5fe386f112f16c0437ebc71d","5fef55e628823a0076ec12ee","6018d3ceda6f301e0700a07d","Mozilla/5.0 (Windows NT 10.0; Win64; x64) AppleWebKit/537.36 (KHTML, like Gecko) Chrome/88.0.4324.104 Safari/537.36","","","","","","","","-70,-65,-60,-55,-50","media/audio/stims/spherical_300cm_s20_c20_cd-full_matched_a-55.wav","spherical","20","20","full","matched","-55","-60","1033"
"echo-presentation","77","896250","0.0-77.0","5fe386f112f16c0437ebc71d","5fef55e628823a0076ec12ee","6018d3ceda6f301e0700a07d","Mozilla/5.0 (Windows NT 10.0; Win64; x64) AppleWebKit/537.36 (KHTML, like Gecko) Chrome/88.0.4324.104 Safari/537.36","","","","","","","","-70,-65,-60,-55,-50","media/audio/stims/spherical_300cm_s20_c20_cd-full_matched_a-55.wav","spherical","20","20","full","matched","-55","-65","1456"
"echo-presentation","78","898375","0.0-78.0","5fe386f112f16c0437ebc71d","5fef55e628823a0076ec12ee","6018d3ceda6f301e0700a07d","Mozilla/5.0 (Windows NT 10.0; Win64; x64) AppleWebKit/537.36 (KHTML, like Gecko) Chrome/88.0.4324.104 Safari/537.36","","","","","","","","-70,-65,-60,-55,-50","media/audio/stims/spherical_300cm_s20_c20_cd-full_matched_a-70.wav","spherical","20","20","full","matched","-70","-60","1361"
"echo-presentation","79","900643","0.0-79.0","5fe386f112f16c0437ebc71d","5fef55e628823a0076ec12ee","6018d3ceda6f301e0700a07d","Mozilla/5.0 (Windows NT 10.0; Win64; x64) AppleWebKit/537.36 (KHTML, like Gecko) Chrome/88.0.4324.104 Safari/537.36","","","","","","","","-70,-65,-60,-55,-50","media/audio/stims/spherical_300cm_s20_c20_cd-full_matched_a-65.wav","spherical","20","20","full","matched","-65","-65","1279"
"echo-presentation","80","902801","0.0-80.0","5fe386f112f16c0437ebc71d","5fef55e628823a0076ec12ee","6018d3ceda6f301e0700a07d","Mozilla/5.0 (Windows NT 10.0; Win64; x64) AppleWebKit/537.36 (KHTML, like Gecko) Chrome/88.0.4324.104 Safari/537.36","","","","","","","","-70,-65,-60,-55,-50","media/audio/stims/spherical_300cm_s20_c20_cd-full_matched_a-50.wav","spherical","20","20","full","matched","-50","-65","1328"
"echo-presentation","81","905152","0.0-81.0","5fe386f112f16c0437ebc71d","5fef55e628823a0076ec12ee","6018d3ceda6f301e0700a07d","Mozilla/5.0 (Windows NT 10.0; Win64; x64) AppleWebKit/537.36 (KHTML, like Gecko) Chrome/88.0.4324.104 Safari/537.36","","","","","","","","-70,-65,-60,-55,-50","media/audio/stims/spherical_300cm_s20_c20_cd-full_matched_a-65.wav","spherical","20","20","full","matched","-65","-60","1511"
"echo-presentation","82","907823","0.0-82.0","5fe386f112f16c0437ebc71d","5fef55e628823a0076ec12ee","6018d3ceda6f301e0700a07d","Mozilla/5.0 (Windows NT 10.0; Win64; x64) AppleWebKit/537.36 (KHTML, like Gecko) Chrome/88.0.4324.104 Safari/537.36","","","","","","","","-70,-65,-60,-55,-50","media/audio/stims/spherical_300cm_s20_c20_cd-full_matched_a-70.wav","spherical","20","20","full","matched","-70","-55","1862"
"echo-presentation","83","909766","0.0-83.0","5fe386f112f16c0437ebc71d","5fef55e628823a0076ec12ee","6018d3ceda6f301e0700a07d","Mozilla/5.0 (Windows NT 10.0; Win64; x64) AppleWebKit/537.36 (KHTML, like Gecko) Chrome/88.0.4324.104 Safari/537.36","","","","","","","","-70,-65,-60,-55,-50","media/audio/stims/spherical_300cm_s20_c20_cd-full_matched_a-60.wav","spherical","20","20","full","matched","-60","-65","1165"
"echo-presentation","84","911880","0.0-84.0","5fe386f112f16c0437ebc71d","5fef55e628823a0076ec12ee","6018d3ceda6f301e0700a07d","Mozilla/5.0 (Windows NT 10.0; Win64; x64) AppleWebKit/537.36 (KHTML, like Gecko) Chrome/88.0.4324.104 Safari/537.36","","","","","","","","-70,-65,-60,-55,-50","media/audio/stims/spherical_300cm_s20_c20_cd-full_matched_a-70.wav","spherical","20","20","full","matched","-70","-55","1307"
"echo-presentation","85","914938","0.0-85.0","5fe386f112f16c0437ebc71d","5fef55e628823a0076ec12ee","6018d3ceda6f301e0700a07d","Mozilla/5.0 (Windows NT 10.0; Win64; x64) AppleWebKit/537.36 (KHTML, like Gecko) Chrome/88.0.4324.104 Safari/537.36","","","","","","","","-70,-65,-60,-55,-50","media/audio/stims/spherical_300cm_s20_c20_cd-full_matched_a-55.wav","spherical","20","20","full","matched","-55","-60","2103"
"echo-presentation","86","916983","0.0-86.0","5fe386f112f16c0437ebc71d","5fef55e628823a0076ec12ee","6018d3ceda6f301e0700a07d","Mozilla/5.0 (Windows NT 10.0; Win64; x64) AppleWebKit/537.36 (KHTML, like Gecko) Chrome/88.0.4324.104 Safari/537.36","","","","","","","","-70,-65,-60,-55,-50","media/audio/stims/spherical_300cm_s20_c20_cd-full_matched_a-70.wav","spherical","20","20","full","matched","-70","-65","1395"
"echo-presentation","87","919142","0.0-87.0","5fe386f112f16c0437ebc71d","5fef55e628823a0076ec12ee","6018d3ceda6f301e0700a07d","Mozilla/5.0 (Windows NT 10.0; Win64; x64) AppleWebKit/537.36 (KHTML, like Gecko) Chrome/88.0.4324.104 Safari/537.36","","","","","","","","-70,-65,-60,-55,-50","media/audio/stims/spherical_300cm_s20_c20_cd-full_matched_a-60.wav","spherical","20","20","full","matched","-60","-70","1406"
"echo-presentation","88","921526","0.0-88.0","5fe386f112f16c0437ebc71d","5fef55e628823a0076ec12ee","6018d3ceda6f301e0700a07d","Mozilla/5.0 (Windows NT 10.0; Win64; x64) AppleWebKit/537.36 (KHTML, like Gecko) Chrome/88.0.4324.104 Safari/537.36","","","","","","","","-70,-65,-60,-55,-50","media/audio/stims/spherical_300cm_s20_c20_cd-full_matched_a-50.wav","spherical","20","20","full","matched","-50","-70","1521"
"echo-presentation","89","923929","0.0-89.0","5fe386f112f16c0437ebc71d","5fef55e628823a0076ec12ee","6018d3ceda6f301e0700a07d","Mozilla/5.0 (Windows NT 10.0; Win64; x64) AppleWebKit/537.36 (KHTML, like Gecko) Chrome/88.0.4324.104 Safari/537.36","","","","","","","","-70,-65,-60,-55,-50","media/audio/stims/spherical_300cm_s20_c20_cd-full_matched_a-50.wav","spherical","20","20","full","matched","-50","-65","1570"
"echo-presentation","90","925938","0.0-90.0","5fe386f112f16c0437ebc71d","5fef55e628823a0076ec12ee","6018d3ceda6f301e0700a07d","Mozilla/5.0 (Windows NT 10.0; Win64; x64) AppleWebKit/537.36 (KHTML, like Gecko) Chrome/88.0.4324.104 Safari/537.36","","","","","","","","-70,-65,-60,-55,-50","media/audio/stims/spherical_300cm_s20_c20_cd-full_matched_a-65.wav","spherical","20","20","full","matched","-65","-60","1221"
"echo-presentation","91","927957","0.0-91.0","5fe386f112f16c0437ebc71d","5fef55e628823a0076ec12ee","6018d3ceda6f301e0700a07d","Mozilla/5.0 (Windows NT 10.0; Win64; x64) AppleWebKit/537.36 (KHTML, like Gecko) Chrome/88.0.4324.104 Safari/537.36","","","","","","","","-70,-65,-60,-55,-50","media/audio/stims/spherical_300cm_s20_c20_cd-full_matched_a-65.wav","spherical","20","20","full","matched","-65","-65","1181"
"echo-presentation","92","930019","0.0-92.0","5fe386f112f16c0437ebc71d","5fef55e628823a0076ec12ee","6018d3ceda6f301e0700a07d","Mozilla/5.0 (Windows NT 10.0; Win64; x64) AppleWebKit/537.36 (KHTML, like Gecko) Chrome/88.0.4324.104 Safari/537.36","","","","","","","","-70,-65,-60,-55,-50","media/audio/stims/spherical_300cm_s20_c20_cd-full_matched_a-60.wav","spherical","20","20","full","matched","-60","-65","1244"
"echo-presentation","93","932134","0.0-93.0","5fe386f112f16c0437ebc71d","5fef55e628823a0076ec12ee","6018d3ceda6f301e0700a07d","Mozilla/5.0 (Windows NT 10.0; Win64; x64) AppleWebKit/537.36 (KHTML, like Gecko) Chrome/88.0.4324.104 Safari/537.36","","","","","","","","-70,-65,-60,-55,-50","media/audio/stims/spherical_300cm_s20_c20_cd-full_matched_a-50.wav","spherical","20","20","full","matched","-50","-60","1300"
"block-bookend","94","938801","0.0-94.0","5fe386f112f16c0437ebc71d","5fef55e628823a0076ec12ee","6018d3ceda6f301e0700a07d","Mozilla/5.0 (Windows NT 10.0; Win64; x64) AppleWebKit/537.36 (KHTML, like Gecko) Chrome/88.0.4324.104 Safari/537.36","","","","","","","","","","","","","","","","",""
"block-bookend","95","946050","0.0-95.0","5fe386f112f16c0437ebc71d","5fef55e628823a0076ec12ee","6018d3ceda6f301e0700a07d","Mozilla/5.0 (Windows NT 10.0; Win64; x64) AppleWebKit/537.36 (KHTML, like Gecko) Chrome/88.0.4324.104 Safari/537.36","","","","","","","","","","","","","","","","",""
"echo-presentation","96","949656","0.0-96.0","5fe386f112f16c0437ebc71d","5fef55e628823a0076ec12ee","6018d3ceda6f301e0700a07d","Mozilla/5.0 (Windows NT 10.0; Win64; x64) AppleWebKit/537.36 (KHTML, like Gecko) Chrome/88.0.4324.104 Safari/537.36","","","","","","","","50,55,60,65,70","media/audio/stims/spherical_300cm_s20_c20_cd-full_matched_a60.wav","spherical","20","20","full","matched","60","60","1543"
"echo-presentation","97","951855","0.0-97.0","5fe386f112f16c0437ebc71d","5fef55e628823a0076ec12ee","6018d3ceda6f301e0700a07d","Mozilla/5.0 (Windows NT 10.0; Win64; x64) AppleWebKit/537.36 (KHTML, like Gecko) Chrome/88.0.4324.104 Safari/537.36","","","","","","","","50,55,60,65,70","media/audio/stims/spherical_300cm_s20_c20_cd-full_matched_a60.wav","spherical","20","20","full","matched","60","65","1621"
"echo-presentation","98","954002","0.0-98.0","5fe386f112f16c0437ebc71d","5fef55e628823a0076ec12ee","6018d3ceda6f301e0700a07d","Mozilla/5.0 (Windows NT 10.0; Win64; x64) AppleWebKit/537.36 (KHTML, like Gecko) Chrome/88.0.4324.104 Safari/537.36","","","","","","","","50,55,60,65,70","media/audio/stims/spherical_300cm_s20_c20_cd-full_matched_a70.wav","spherical","20","20","full","matched","70","60","1255"
"echo-presentation","99","956330","0.0-99.0","5fe386f112f16c0437ebc71d","5fef55e628823a0076ec12ee","6018d3ceda6f301e0700a07d","Mozilla/5.0 (Windows NT 10.0; Win64; x64) AppleWebKit/537.36 (KHTML, like Gecko) Chrome/88.0.4324.104 Safari/537.36","","","","","","","","50,55,60,65,70","media/audio/stims/spherical_300cm_s20_c20_cd-full_matched_a50.wav","spherical","20","20","full","matched","50","60","1641"
"echo-presentation","100","958430","0.0-100.0","5fe386f112f16c0437ebc71d","5fef55e628823a0076ec12ee","6018d3ceda6f301e0700a07d","Mozilla/5.0 (Windows NT 10.0; Win64; x64) AppleWebKit/537.36 (KHTML, like Gecko) Chrome/88.0.4324.104 Safari/537.36","","","","","","","","50,55,60,65,70","media/audio/stims/spherical_300cm_s20_c20_cd-full_matched_a50.wav","spherical","20","20","full","matched","50","55","1523"
"echo-presentation","101","960347","0.0-101.0","5fe386f112f16c0437ebc71d","5fef55e628823a0076ec12ee","6018d3ceda6f301e0700a07d","Mozilla/5.0 (Windows NT 10.0; Win64; x64) AppleWebKit/537.36 (KHTML, like Gecko) Chrome/88.0.4324.104 Safari/537.36","","","","","","","","50,55,60,65,70","media/audio/stims/spherical_300cm_s20_c20_cd-full_matched_a50.wav","spherical","20","20","full","matched","50","65","1373"
"echo-presentation","102","963016","0.0-102.0","5fe386f112f16c0437ebc71d","5fef55e628823a0076ec12ee","6018d3ceda6f301e0700a07d","Mozilla/5.0 (Windows NT 10.0; Win64; x64) AppleWebKit/537.36 (KHTML, like Gecko) Chrome/88.0.4324.104 Safari/537.36","","","","","","","","50,55,60,65,70","media/audio/stims/spherical_300cm_s20_c20_cd-full_matched_a65.wav","spherical","20","20","full","matched","65","65","1186"
"echo-presentation","103","965564","0.0-103.0","5fe386f112f16c0437ebc71d","5fef55e628823a0076ec12ee","6018d3ceda6f301e0700a07d","Mozilla/5.0 (Windows NT 10.0; Win64; x64) AppleWebKit/537.36 (KHTML, like Gecko) Chrome/88.0.4324.104 Safari/537.36","","","","","","","","50,55,60,65,70","media/audio/stims/spherical_300cm_s20_c20_cd-full_matched_a70.wav","spherical","20","20","full","matched","70","60","1182"
"echo-presentation","104","967990","0.0-104.0","5fe386f112f16c0437ebc71d","5fef55e628823a0076ec12ee","6018d3ceda6f301e0700a07d","Mozilla/5.0 (Windows NT 10.0; Win64; x64) AppleWebKit/537.36 (KHTML, like Gecko) Chrome/88.0.4324.104 Safari/537.36","","","","","","","","50,55,60,65,70","media/audio/stims/spherical_300cm_s20_c20_cd-full_matched_a65.wav","spherical","20","20","full","matched","65","65","1568"
"echo-presentation","105","970223","0.0-105.0","5fe386f112f16c0437ebc71d","5fef55e628823a0076ec12ee","6018d3ceda6f301e0700a07d","Mozilla/5.0 (Windows NT 10.0; Win64; x64) AppleWebKit/537.36 (KHTML, like Gecko) Chrome/88.0.4324.104 Safari/537.36","","","","","","","","50,55,60,65,70","media/audio/stims/spherical_300cm_s20_c20_cd-full_matched_a70.wav","spherical","20","20","full","matched","70","60","1292"
"echo-presentation","106","973230","0.0-106.0","5fe386f112f16c0437ebc71d","5fef55e628823a0076ec12ee","6018d3ceda6f301e0700a07d","Mozilla/5.0 (Windows NT 10.0; Win64; x64) AppleWebKit/537.36 (KHTML, like Gecko) Chrome/88.0.4324.104 Safari/537.36","","","","","","","","50,55,60,65,70","media/audio/stims/spherical_300cm_s20_c20_cd-full_matched_a60.wav","spherical","20","20","full","matched","60","55","2101"
"echo-presentation","107","975326","0.0-107.0","5fe386f112f16c0437ebc71d","5fef55e628823a0076ec12ee","6018d3ceda6f301e0700a07d","Mozilla/5.0 (Windows NT 10.0; Win64; x64) AppleWebKit/537.36 (KHTML, like Gecko) Chrome/88.0.4324.104 Safari/537.36","","","","","","","","50,55,60,65,70","media/audio/stims/spherical_300cm_s20_c20_cd-full_matched_a65.wav","spherical","20","20","full","matched","65","65","1447"
"echo-presentation","108","979080","0.0-108.0","5fe386f112f16c0437ebc71d","5fef55e628823a0076ec12ee","6018d3ceda6f301e0700a07d","Mozilla/5.0 (Windows NT 10.0; Win64; x64) AppleWebKit/537.36 (KHTML, like Gecko) Chrome/88.0.4324.104 Safari/537.36","","","","","","","","50,55,60,65,70","media/audio/stims/spherical_300cm_s20_c20_cd-full_matched_a55.wav","spherical","20","20","full","matched","55","60","2949"
"echo-presentation","109","982084","0.0-109.0","5fe386f112f16c0437ebc71d","5fef55e628823a0076ec12ee","6018d3ceda6f301e0700a07d","Mozilla/5.0 (Windows NT 10.0; Win64; x64) AppleWebKit/537.36 (KHTML, like Gecko) Chrome/88.0.4324.104 Safari/537.36","","","","","","","","50,55,60,65,70","media/audio/stims/spherical_300cm_s20_c20_cd-full_matched_a55.wav","spherical","20","20","full","matched","55","65","1681"
"echo-presentation","110","985806","0.0-110.0","5fe386f112f16c0437ebc71d","5fef55e628823a0076ec12ee","6018d3ceda6f301e0700a07d","Mozilla/5.0 (Windows NT 10.0; Win64; x64) AppleWebKit/537.36 (KHTML, like Gecko) Chrome/88.0.4324.104 Safari/537.36","","","","","","","","50,55,60,65,70","media/audio/stims/spherical_300cm_s20_c20_cd-full_matched_a65.wav","spherical","20","20","full","matched","65","55","2590"
"echo-presentation","111","987892","0.0-111.0","5fe386f112f16c0437ebc71d","5fef55e628823a0076ec12ee","6018d3ceda6f301e0700a07d","Mozilla/5.0 (Windows NT 10.0; Win64; x64) AppleWebKit/537.36 (KHTML, like Gecko) Chrome/88.0.4324.104 Safari/537.36","","","","","","","","50,55,60,65,70","media/audio/stims/spherical_300cm_s20_c20_cd-full_matched_a60.wav","spherical","20","20","full","matched","60","65","1548"
"echo-presentation","112","989808","0.0-112.0","5fe386f112f16c0437ebc71d","5fef55e628823a0076ec12ee","6018d3ceda6f301e0700a07d","Mozilla/5.0 (Windows NT 10.0; Win64; x64) AppleWebKit/537.36 (KHTML, like Gecko) Chrome/88.0.4324.104 Safari/537.36","","","","","","","","50,55,60,65,70","media/audio/stims/spherical_300cm_s20_c20_cd-full_matched_a50.wav","spherical","20","20","full","matched","50","65","1336"
"echo-presentation","113","992263","0.0-113.0","5fe386f112f16c0437ebc71d","5fef55e628823a0076ec12ee","6018d3ceda6f301e0700a07d","Mozilla/5.0 (Windows NT 10.0; Win64; x64) AppleWebKit/537.36 (KHTML, like Gecko) Chrome/88.0.4324.104 Safari/537.36","","","","","","","","50,55,60,65,70","media/audio/stims/spherical_300cm_s20_c20_cd-full_matched_a55.wav","spherical","20","20","full","matched","55","55","1625"
"echo-presentation","114","994428","0.0-114.0","5fe386f112f16c0437ebc71d","5fef55e628823a0076ec12ee","6018d3ceda6f301e0700a07d","Mozilla/5.0 (Windows NT 10.0; Win64; x64) AppleWebKit/537.36 (KHTML, like Gecko) Chrome/88.0.4324.104 Safari/537.36","","","","","","","","50,55,60,65,70","media/audio/stims/spherical_300cm_s20_c20_cd-full_matched_a70.wav","spherical","20","20","full","matched","70","60","1443"
"echo-presentation","115","996543","0.0-115.0","5fe386f112f16c0437ebc71d","5fef55e628823a0076ec12ee","6018d3ceda6f301e0700a07d","Mozilla/5.0 (Windows NT 10.0; Win64; x64) AppleWebKit/537.36 (KHTML, like Gecko) Chrome/88.0.4324.104 Safari/537.36","","","","","","","","50,55,60,65,70","media/audio/stims/spherical_300cm_s20_c20_cd-full_matched_a55.wav","spherical","20","20","full","matched","55","65","1315"
"block-bookend","116","1005997","0.0-116.0","5fe386f112f16c0437ebc71d","5fef55e628823a0076ec12ee","6018d3ceda6f301e0700a07d","Mozilla/5.0 (Windows NT 10.0; Win64; x64) AppleWebKit/537.36 (KHTML, like Gecko) Chrome/88.0.4324.104 Safari/537.36","","","","","","","","","","","","","","","","",""
"block-bookend","117","1017843","0.0-117.0","5fe386f112f16c0437ebc71d","5fef55e628823a0076ec12ee","6018d3ceda6f301e0700a07d","Mozilla/5.0 (Windows NT 10.0; Win64; x64) AppleWebKit/537.36 (KHTML, like Gecko) Chrome/88.0.4324.104 Safari/537.36","","","","","","","","","","","","","","","","",""
"echo-presentation","118","1021577","0.0-118.0","5fe386f112f16c0437ebc71d","5fef55e628823a0076ec12ee","6018d3ceda6f301e0700a07d","Mozilla/5.0 (Windows NT 10.0; Win64; x64) AppleWebKit/537.36 (KHTML, like Gecko) Chrome/88.0.4324.104 Safari/537.36","","","","","","","","50,55,60,65,70","media/audio/stims/spherical_300cm_s20_c20_cd-full_matched_a65.wav","spherical","20","20","full","matched","65","65","2403"
"echo-presentation","119","1024251","0.0-119.0","5fe386f112f16c0437ebc71d","5fef55e628823a0076ec12ee","6018d3ceda6f301e0700a07d","Mozilla/5.0 (Windows NT 10.0; Win64; x64) AppleWebKit/537.36 (KHTML, like Gecko) Chrome/88.0.4324.104 Safari/537.36","","","","","","","","50,55,60,65,70","media/audio/stims/spherical_300cm_s20_c20_cd-full_matched_a65.wav","spherical","20","20","full","matched","65","65","1369"
"echo-presentation","120","1026585","0.0-120.0","5fe386f112f16c0437ebc71d","5fef55e628823a0076ec12ee","6018d3ceda6f301e0700a07d","Mozilla/5.0 (Windows NT 10.0; Win64; x64) AppleWebKit/537.36 (KHTML, like Gecko) Chrome/88.0.4324.104 Safari/537.36","","","","","","","","50,55,60,65,70","media/audio/stims/spherical_300cm_s20_c20_cd-full_matched_a50.wav","spherical","20","20","full","matched","50","60","1171"
"echo-presentation","121","1028656","0.0-121.0","5fe386f112f16c0437ebc71d","5fef55e628823a0076ec12ee","6018d3ceda6f301e0700a07d","Mozilla/5.0 (Windows NT 10.0; Win64; x64) AppleWebKit/537.36 (KHTML, like Gecko) Chrome/88.0.4324.104 Safari/537.36","","","","","","","","50,55,60,65,70","media/audio/stims/spherical_300cm_s20_c20_cd-full_matched_a65.wav","spherical","20","20","full","matched","65","55","1004"
"echo-presentation","122","1032509","0.0-122.0","5fe386f112f16c0437ebc71d","5fef55e628823a0076ec12ee","6018d3ceda6f301e0700a07d","Mozilla/5.0 (Windows NT 10.0; Win64; x64) AppleWebKit/537.36 (KHTML, like Gecko) Chrome/88.0.4324.104 Safari/537.36","","","","","","","","50,55,60,65,70","media/audio/stims/spherical_300cm_s20_c20_cd-full_matched_a55.wav","spherical","20","20","full","matched","55","65","936"
"echo-presentation","123","1034247","0.0-123.0","5fe386f112f16c0437ebc71d","5fef55e628823a0076ec12ee","6018d3ceda6f301e0700a07d","Mozilla/5.0 (Windows NT 10.0; Win64; x64) AppleWebKit/537.36 (KHTML, like Gecko) Chrome/88.0.4324.104 Safari/537.36","","","","","","","","50,55,60,65,70","media/audio/stims/spherical_300cm_s20_c20_cd-full_matched_a55.wav","spherical","20","20","full","matched","55","60","915"
"echo-presentation","124","1037049","0.0-124.0","5fe386f112f16c0437ebc71d","5fef55e628823a0076ec12ee","6018d3ceda6f301e0700a07d","Mozilla/5.0 (Windows NT 10.0; Win64; x64) AppleWebKit/537.36 (KHTML, like Gecko) Chrome/88.0.4324.104 Safari/537.36","","","","","","","","50,55,60,65,70","media/audio/stims/spherical_300cm_s20_c20_cd-full_matched_a55.wav","spherical","20","20","full","matched","55","55","1942"
"echo-presentation","125","1038744","0.0-125.0","5fe386f112f16c0437ebc71d","5fef55e628823a0076ec12ee","6018d3ceda6f301e0700a07d","Mozilla/5.0 (Windows NT 10.0; Win64; x64) AppleWebKit/537.36 (KHTML, like Gecko) Chrome/88.0.4324.104 Safari/537.36","","","","","","","","50,55,60,65,70","media/audio/stims/spherical_300cm_s20_c20_cd-full_matched_a50.wav","spherical","20","20","full","matched","50","65","1028"
"echo-presentation","126","1040579","0.0-126.0","5fe386f112f16c0437ebc71d","5fef55e628823a0076ec12ee","6018d3ceda6f301e0700a07d","Mozilla/5.0 (Windows NT 10.0; Win64; x64) AppleWebKit/537.36 (KHTML, like Gecko) Chrome/88.0.4324.104 Safari/537.36","","","","","","","","50,55,60,65,70","media/audio/stims/spherical_300cm_s20_c20_cd-full_matched_a55.wav","spherical","20","20","full","matched","55","65","1056"
"echo-presentation","127","1042821","0.0-127.0","5fe386f112f16c0437ebc71d","5fef55e628823a0076ec12ee","6018d3ceda6f301e0700a07d","Mozilla/5.0 (Windows NT 10.0; Win64; x64) AppleWebKit/537.36 (KHTML, like Gecko) Chrome/88.0.4324.104 Safari/537.36","","","","","","","","50,55,60,65,70","media/audio/stims/spherical_300cm_s20_c20_cd-full_matched_a60.wav","spherical","20","20","full","matched","60","60","1600"
"echo-presentation","128","1044850","0.0-128.0","5fe386f112f16c0437ebc71d","5fef55e628823a0076ec12ee","6018d3ceda6f301e0700a07d","Mozilla/5.0 (Windows NT 10.0; Win64; x64) AppleWebKit/537.36 (KHTML, like Gecko) Chrome/88.0.4324.104 Safari/537.36","","","","","","","","50,55,60,65,70","media/audio/stims/spherical_300cm_s20_c20_cd-full_matched_a70.wav","spherical","20","20","full","matched","70","60","1474"
"echo-presentation","129","1046840","0.0-129.0","5fe386f112f16c0437ebc71d","5fef55e628823a0076ec12ee","6018d3ceda6f301e0700a07d","Mozilla/5.0 (Windows NT 10.0; Win64; x64) AppleWebKit/537.36 (KHTML, like Gecko) Chrome/88.0.4324.104 Safari/537.36","","","","","","","","50,55,60,65,70","media/audio/stims/spherical_300cm_s20_c20_cd-full_matched_a65.wav","spherical","20","20","full","matched","65","65","1132"
"echo-presentation","130","1049010","0.0-130.0","5fe386f112f16c0437ebc71d","5fef55e628823a0076ec12ee","6018d3ceda6f301e0700a07d","Mozilla/5.0 (Windows NT 10.0; Win64; x64) AppleWebKit/537.36 (KHTML, like Gecko) Chrome/88.0.4324.104 Safari/537.36","","","","","","","","50,55,60,65,70","media/audio/stims/spherical_300cm_s20_c20_cd-full_matched_a50.wav","spherical","20","20","full","matched","50","65","1348"
"echo-presentation","131","1051355","0.0-131.0","5fe386f112f16c0437ebc71d","5fef55e628823a0076ec12ee","6018d3ceda6f301e0700a07d","Mozilla/5.0 (Windows NT 10.0; Win64; x64) AppleWebKit/537.36 (KHTML, like Gecko) Chrome/88.0.4324.104 Safari/537.36","","","","","","","","50,55,60,65,70","media/audio/stims/spherical_300cm_s20_c20_cd-full_matched_a50.wav","spherical","20","20","full","matched","50","55","1504"
"echo-presentation","132","1053579","0.0-132.0","5fe386f112f16c0437ebc71d","5fef55e628823a0076ec12ee","6018d3ceda6f301e0700a07d","Mozilla/5.0 (Windows NT 10.0; Win64; x64) AppleWebKit/537.36 (KHTML, like Gecko) Chrome/88.0.4324.104 Safari/537.36","","","","","","","","50,55,60,65,70","media/audio/stims/spherical_300cm_s20_c20_cd-full_matched_a60.wav","spherical","20","20","full","matched","60","55","1391"
"echo-presentation","133","1057482","0.0-133.0","5fe386f112f16c0437ebc71d","5fef55e628823a0076ec12ee","6018d3ceda6f301e0700a07d","Mozilla/5.0 (Windows NT 10.0; Win64; x64) AppleWebKit/537.36 (KHTML, like Gecko) Chrome/88.0.4324.104 Safari/537.36","","","","","","","","50,55,60,65,70","media/audio/stims/spherical_300cm_s20_c20_cd-full_matched_a60.wav","spherical","20","20","full","matched","60","55","3038"
"echo-presentation","134","1059639","0.0-134.0","5fe386f112f16c0437ebc71d","5fef55e628823a0076ec12ee","6018d3ceda6f301e0700a07d","Mozilla/5.0 (Windows NT 10.0; Win64; x64) AppleWebKit/537.36 (KHTML, like Gecko) Chrome/88.0.4324.104 Safari/537.36","","","","","","","","50,55,60,65,70","media/audio/stims/spherical_300cm_s20_c20_cd-full_matched_a70.wav","spherical","20","20","full","matched","70","70","1132"
"echo-presentation","135","1061762","0.0-135.0","5fe386f112f16c0437ebc71d","5fef55e628823a0076ec12ee","6018d3ceda6f301e0700a07d","Mozilla/5.0 (Windows NT 10.0; Win64; x64) AppleWebKit/537.36 (KHTML, like Gecko) Chrome/88.0.4324.104 Safari/537.36","","","","","","","","50,55,60,65,70","media/audio/stims/spherical_300cm_s20_c20_cd-full_matched_a70.wav","spherical","20","20","full","matched","70","70","1237"
"echo-presentation","136","1064001","0.0-136.0","5fe386f112f16c0437ebc71d","5fef55e628823a0076ec12ee","6018d3ceda6f301e0700a07d","Mozilla/5.0 (Windows NT 10.0; Win64; x64) AppleWebKit/537.36 (KHTML, like Gecko) Chrome/88.0.4324.104 Safari/537.36","","","","","","","","50,55,60,65,70","media/audio/stims/spherical_300cm_s20_c20_cd-full_matched_a70.wav","spherical","20","20","full","matched","70","60","1267"
"echo-presentation","137","1066018","0.0-137.0","5fe386f112f16c0437ebc71d","5fef55e628823a0076ec12ee","6018d3ceda6f301e0700a07d","Mozilla/5.0 (Windows NT 10.0; Win64; x64) AppleWebKit/537.36 (KHTML, like Gecko) Chrome/88.0.4324.104 Safari/537.36","","","","","","","","50,55,60,65,70","media/audio/stims/spherical_300cm_s20_c20_cd-full_matched_a60.wav","spherical","20","20","full","matched","60","70","1192"
"block-bookend","138","1067312","0.0-138.0","5fe386f112f16c0437ebc71d","5fef55e628823a0076ec12ee","6018d3ceda6f301e0700a07d","Mozilla/5.0 (Windows NT 10.0; Win64; x64) AppleWebKit/537.36 (KHTML, like Gecko) Chrome/88.0.4324.104 Safari/537.36","","","","","","","","","","","","","","","","",""
