"trial_type","trial_index","time_elapsed","internal_node_id","prolificPid","studyId","sessionId","userAgent","rt","stimulus","key_press","chosenKeyset","failureCount","testIndex","globalVolume","choices","filename","modelName","slowdown","compensation","compensationDescriptor","receiverOrientationType","azimuth","responseAzimuth","responseDelay"
"pavlovia","0","4","0.0-0.0","5d9e617de7a6a5001463a37c","5fef55e628823a0076ec12ee","6018cae08c91d51d28bc0915","Mozilla/5.0 (Windows NT 10.0; Win64; x64) AppleWebKit/537.36 (KHTML, like Gecko) Chrome/88.0.4324.104 Safari/537.36","","","","","","","","","","","","","","","","",""
"html-keyboard-response","1","1885","0.0-1.0","5d9e617de7a6a5001463a37c","5fef55e628823a0076ec12ee","6018cae08c91d51d28bc0915","Mozilla/5.0 (Windows NT 10.0; Win64; x64) AppleWebKit/537.36 (KHTML, like Gecko) Chrome/88.0.4324.104 Safari/537.36","1880.329999999958","<div><h1>Welcome!</h1><p>Press any key to continue.</p></div>","32","","","","","","","","","","","","","",""
"consent-form","2","48465","0.0-2.0","5d9e617de7a6a5001463a37c","5fef55e628823a0076ec12ee","6018cae08c91d51d28bc0915","Mozilla/5.0 (Windows NT 10.0; Win64; x64) AppleWebKit/537.36 (KHTML, like Gecko) Chrome/88.0.4324.104 Safari/537.36","","","","","","","","","","","","","","","","",""
"keyset-select","3","73164","0.0-3.0","5d9e617de7a6a5001463a37c","5fef55e628823a0076ec12ee","6018cae08c91d51d28bc0915","Mozilla/5.0 (Windows NT 10.0; Win64; x64) AppleWebKit/537.36 (KHTML, like Gecko) Chrome/88.0.4324.104 Safari/537.36","","","","left-hand","","","","","","","","","","","","",""
"headphone-check","4","131831","0.0-4.0","5d9e617de7a6a5001463a37c","5fef55e628823a0076ec12ee","6018cae08c91d51d28bc0915","Mozilla/5.0 (Windows NT 10.0; Win64; x64) AppleWebKit/537.36 (KHTML, like Gecko) Chrome/88.0.4324.104 Safari/537.36","","","","","0","6","0.3","","","","","","","","","",""
"headphone-backwards-check","5","139034","0.0-5.0","5d9e617de7a6a5001463a37c","5fef55e628823a0076ec12ee","6018cae08c91d51d28bc0915","Mozilla/5.0 (Windows NT 10.0; Win64; x64) AppleWebKit/537.36 (KHTML, like Gecko) Chrome/88.0.4324.104 Safari/537.36","","","","","0","","","","","","","","","","","",""
"training","6","244500","0.0-6.0","5d9e617de7a6a5001463a37c","5fef55e628823a0076ec12ee","6018cae08c91d51d28bc0915","Mozilla/5.0 (Windows NT 10.0; Win64; x64) AppleWebKit/537.36 (KHTML, like Gecko) Chrome/88.0.4324.104 Safari/537.36","","","","","","","","","","","","","","","","",""
"block-bookend","7","258629","0.0-7.0","5d9e617de7a6a5001463a37c","5fef55e628823a0076ec12ee","6018cae08c91d51d28bc0915","Mozilla/5.0 (Windows NT 10.0; Win64; x64) AppleWebKit/537.36 (KHTML, like Gecko) Chrome/88.0.4324.104 Safari/537.36","","","","","","","","","","","","","","","","",""
"echo-presentation","8","268947","0.0-8.0","5d9e617de7a6a5001463a37c","5fef55e628823a0076ec12ee","6018cae08c91d51d28bc0915","Mozilla/5.0 (Windows NT 10.0; Win64; x64) AppleWebKit/537.36 (KHTML, like Gecko) Chrome/88.0.4324.104 Safari/537.36","","","","","","","","50,55,60,65,70","media/audio/stims/spherical_300cm_s20_c20_cd-full_matched_a55.wav","spherical","20","20","full","matched","55","65","6461"
"echo-presentation","9","272018","0.0-9.0","5d9e617de7a6a5001463a37c","5fef55e628823a0076ec12ee","6018cae08c91d51d28bc0915","Mozilla/5.0 (Windows NT 10.0; Win64; x64) AppleWebKit/537.36 (KHTML, like Gecko) Chrome/88.0.4324.104 Safari/537.36","","","","","","","","50,55,60,65,70","media/audio/stims/spherical_300cm_s20_c20_cd-full_matched_a60.wav","spherical","20","20","full","matched","60","65","1445"
"echo-presentation","10","277169","0.0-10.0","5d9e617de7a6a5001463a37c","5fef55e628823a0076ec12ee","6018cae08c91d51d28bc0915","Mozilla/5.0 (Windows NT 10.0; Win64; x64) AppleWebKit/537.36 (KHTML, like Gecko) Chrome/88.0.4324.104 Safari/537.36","","","","","","","","50,55,60,65,70","media/audio/stims/spherical_300cm_s20_c20_cd-full_matched_a65.wav","spherical","20","20","full","matched","65","65","4221"
"echo-presentation","11","284562","0.0-11.0","5d9e617de7a6a5001463a37c","5fef55e628823a0076ec12ee","6018cae08c91d51d28bc0915","Mozilla/5.0 (Windows NT 10.0; Win64; x64) AppleWebKit/537.36 (KHTML, like Gecko) Chrome/88.0.4324.104 Safari/537.36","","","","","","","","50,55,60,65,70","media/audio/stims/spherical_300cm_s20_c20_cd-full_matched_a60.wav","spherical","20","20","full","matched","60","70","5966"
"echo-presentation","12","290026","0.0-12.0","5d9e617de7a6a5001463a37c","5fef55e628823a0076ec12ee","6018cae08c91d51d28bc0915","Mozilla/5.0 (Windows NT 10.0; Win64; x64) AppleWebKit/537.36 (KHTML, like Gecko) Chrome/88.0.4324.104 Safari/537.36","","","","","","","","50,55,60,65,70","media/audio/stims/spherical_300cm_s20_c20_cd-full_matched_a50.wav","spherical","20","20","full","matched","50","65","4285"
"echo-presentation","13","293874","0.0-13.0","5d9e617de7a6a5001463a37c","5fef55e628823a0076ec12ee","6018cae08c91d51d28bc0915","Mozilla/5.0 (Windows NT 10.0; Win64; x64) AppleWebKit/537.36 (KHTML, like Gecko) Chrome/88.0.4324.104 Safari/537.36","","","","","","","","50,55,60,65,70","media/audio/stims/spherical_300cm_s20_c20_cd-full_matched_a60.wav","spherical","20","20","full","matched","60","65","1603"
"echo-presentation","14","295673","0.0-14.0","5d9e617de7a6a5001463a37c","5fef55e628823a0076ec12ee","6018cae08c91d51d28bc0915","Mozilla/5.0 (Windows NT 10.0; Win64; x64) AppleWebKit/537.36 (KHTML, like Gecko) Chrome/88.0.4324.104 Safari/537.36","","","","","","","","50,55,60,65,70","media/audio/stims/spherical_300cm_s20_c20_cd-full_matched_a60.wav","spherical","20","20","full","matched","60","65","957"
"echo-presentation","15","298354","0.0-15.0","5d9e617de7a6a5001463a37c","5fef55e628823a0076ec12ee","6018cae08c91d51d28bc0915","Mozilla/5.0 (Windows NT 10.0; Win64; x64) AppleWebKit/537.36 (KHTML, like Gecko) Chrome/88.0.4324.104 Safari/537.36","","","","","","","","50,55,60,65,70","media/audio/stims/spherical_300cm_s20_c20_cd-full_matched_a65.wav","spherical","20","20","full","matched","65","65","1541"
"echo-presentation","16","300801","0.0-16.0","5d9e617de7a6a5001463a37c","5fef55e628823a0076ec12ee","6018cae08c91d51d28bc0915","Mozilla/5.0 (Windows NT 10.0; Win64; x64) AppleWebKit/537.36 (KHTML, like Gecko) Chrome/88.0.4324.104 Safari/537.36","","","","","","","","50,55,60,65,70","media/audio/stims/spherical_300cm_s20_c20_cd-full_matched_a50.wav","spherical","20","20","full","matched","50","70","1622"
"echo-presentation","17","303217","0.0-17.0","5d9e617de7a6a5001463a37c","5fef55e628823a0076ec12ee","6018cae08c91d51d28bc0915","Mozilla/5.0 (Windows NT 10.0; Win64; x64) AppleWebKit/537.36 (KHTML, like Gecko) Chrome/88.0.4324.104 Safari/537.36","","","","","","","","50,55,60,65,70","media/audio/stims/spherical_300cm_s20_c20_cd-full_matched_a70.wav","spherical","20","20","full","matched","70","70","1381"
"echo-presentation","18","305266","0.0-18.0","5d9e617de7a6a5001463a37c","5fef55e628823a0076ec12ee","6018cae08c91d51d28bc0915","Mozilla/5.0 (Windows NT 10.0; Win64; x64) AppleWebKit/537.36 (KHTML, like Gecko) Chrome/88.0.4324.104 Safari/537.36","","","","","","","","50,55,60,65,70","media/audio/stims/spherical_300cm_s20_c20_cd-full_matched_a55.wav","spherical","20","20","full","matched","55","65","1222"
"echo-presentation","19","307530","0.0-19.0","5d9e617de7a6a5001463a37c","5fef55e628823a0076ec12ee","6018cae08c91d51d28bc0915","Mozilla/5.0 (Windows NT 10.0; Win64; x64) AppleWebKit/537.36 (KHTML, like Gecko) Chrome/88.0.4324.104 Safari/537.36","","","","","","","","50,55,60,65,70","media/audio/stims/spherical_300cm_s20_c20_cd-full_matched_a50.wav","spherical","20","20","full","matched","50","65","1238"
"echo-presentation","20","309673","0.0-20.0","5d9e617de7a6a5001463a37c","5fef55e628823a0076ec12ee","6018cae08c91d51d28bc0915","Mozilla/5.0 (Windows NT 10.0; Win64; x64) AppleWebKit/537.36 (KHTML, like Gecko) Chrome/88.0.4324.104 Safari/537.36","","","","","","","","50,55,60,65,70","media/audio/stims/spherical_300cm_s20_c20_cd-full_matched_a65.wav","spherical","20","20","full","matched","65","65","1069"
"echo-presentation","21","312418","0.0-21.0","5d9e617de7a6a5001463a37c","5fef55e628823a0076ec12ee","6018cae08c91d51d28bc0915","Mozilla/5.0 (Windows NT 10.0; Win64; x64) AppleWebKit/537.36 (KHTML, like Gecko) Chrome/88.0.4324.104 Safari/537.36","","","","","","","","50,55,60,65,70","media/audio/stims/spherical_300cm_s20_c20_cd-full_matched_a70.wav","spherical","20","20","full","matched","70","65","1389"
"echo-presentation","22","315267","0.0-22.0","5d9e617de7a6a5001463a37c","5fef55e628823a0076ec12ee","6018cae08c91d51d28bc0915","Mozilla/5.0 (Windows NT 10.0; Win64; x64) AppleWebKit/537.36 (KHTML, like Gecko) Chrome/88.0.4324.104 Safari/537.36","","","","","","","","50,55,60,65,70","media/audio/stims/spherical_300cm_s20_c20_cd-full_matched_a65.wav","spherical","20","20","full","matched","65","65","1734"
"echo-presentation","23","317546","0.0-23.0","5d9e617de7a6a5001463a37c","5fef55e628823a0076ec12ee","6018cae08c91d51d28bc0915","Mozilla/5.0 (Windows NT 10.0; Win64; x64) AppleWebKit/537.36 (KHTML, like Gecko) Chrome/88.0.4324.104 Safari/537.36","","","","","","","","50,55,60,65,70","media/audio/stims/spherical_300cm_s20_c20_cd-full_matched_a50.wav","spherical","20","20","full","matched","50","65","1438"
"echo-presentation","24","319770","0.0-24.0","5d9e617de7a6a5001463a37c","5fef55e628823a0076ec12ee","6018cae08c91d51d28bc0915","Mozilla/5.0 (Windows NT 10.0; Win64; x64) AppleWebKit/537.36 (KHTML, like Gecko) Chrome/88.0.4324.104 Safari/537.36","","","","","","","","50,55,60,65,70","media/audio/stims/spherical_300cm_s20_c20_cd-full_matched_a55.wav","spherical","20","20","full","matched","55","65","1318"
"echo-presentation","25","323145","0.0-25.0","5d9e617de7a6a5001463a37c","5fef55e628823a0076ec12ee","6018cae08c91d51d28bc0915","Mozilla/5.0 (Windows NT 10.0; Win64; x64) AppleWebKit/537.36 (KHTML, like Gecko) Chrome/88.0.4324.104 Safari/537.36","","","","","","","","50,55,60,65,70","media/audio/stims/spherical_300cm_s20_c20_cd-full_matched_a70.wav","spherical","20","20","full","matched","70","65","1422"
"echo-presentation","26","324922","0.0-26.0","5d9e617de7a6a5001463a37c","5fef55e628823a0076ec12ee","6018cae08c91d51d28bc0915","Mozilla/5.0 (Windows NT 10.0; Win64; x64) AppleWebKit/537.36 (KHTML, like Gecko) Chrome/88.0.4324.104 Safari/537.36","","","","","","","","50,55,60,65,70","media/audio/stims/spherical_300cm_s20_c20_cd-full_matched_a55.wav","spherical","20","20","full","matched","55","65","1046"
"echo-presentation","27","327162","0.0-27.0","5d9e617de7a6a5001463a37c","5fef55e628823a0076ec12ee","6018cae08c91d51d28bc0915","Mozilla/5.0 (Windows NT 10.0; Win64; x64) AppleWebKit/537.36 (KHTML, like Gecko) Chrome/88.0.4324.104 Safari/537.36","","","","","","","","50,55,60,65,70","media/audio/stims/spherical_300cm_s20_c20_cd-full_matched_a70.wav","spherical","20","20","full","matched","70","65","1102"
"block-bookend","28","330676","0.0-28.0","5d9e617de7a6a5001463a37c","5fef55e628823a0076ec12ee","6018cae08c91d51d28bc0915","Mozilla/5.0 (Windows NT 10.0; Win64; x64) AppleWebKit/537.36 (KHTML, like Gecko) Chrome/88.0.4324.104 Safari/537.36","","","","","","","","","","","","","","","","",""
"block-bookend","29","339541","0.0-29.0","5d9e617de7a6a5001463a37c","5fef55e628823a0076ec12ee","6018cae08c91d51d28bc0915","Mozilla/5.0 (Windows NT 10.0; Win64; x64) AppleWebKit/537.36 (KHTML, like Gecko) Chrome/88.0.4324.104 Safari/537.36","","","","","","","","","","","","","","","","",""
"echo-presentation","30","345194","0.0-30.0","5d9e617de7a6a5001463a37c","5fef55e628823a0076ec12ee","6018cae08c91d51d28bc0915","Mozilla/5.0 (Windows NT 10.0; Win64; x64) AppleWebKit/537.36 (KHTML, like Gecko) Chrome/88.0.4324.104 Safari/537.36","","","","","","","","-70,-65,-60,-55,-50","media/audio/stims/spherical_300cm_s20_c20_cd-full_matched_a-70.wav","spherical","20","20","full","matched","-70","-65","3582"
"echo-presentation","31","347834","0.0-31.0","5d9e617de7a6a5001463a37c","5fef55e628823a0076ec12ee","6018cae08c91d51d28bc0915","Mozilla/5.0 (Windows NT 10.0; Win64; x64) AppleWebKit/537.36 (KHTML, like Gecko) Chrome/88.0.4324.104 Safari/537.36","","","","","","","","-70,-65,-60,-55,-50","media/audio/stims/spherical_300cm_s20_c20_cd-full_matched_a-50.wav","spherical","20","20","full","matched","-50","-65","1110"
"echo-presentation","32","349762","0.0-32.0","5d9e617de7a6a5001463a37c","5fef55e628823a0076ec12ee","6018cae08c91d51d28bc0915","Mozilla/5.0 (Windows NT 10.0; Win64; x64) AppleWebKit/537.36 (KHTML, like Gecko) Chrome/88.0.4324.104 Safari/537.36","","","","","","","","-70,-65,-60,-55,-50","media/audio/stims/spherical_300cm_s20_c20_cd-full_matched_a-70.wav","spherical","20","20","full","matched","-70","-70","910"
"echo-presentation","33","352266","0.0-33.0","5d9e617de7a6a5001463a37c","5fef55e628823a0076ec12ee","6018cae08c91d51d28bc0915","Mozilla/5.0 (Windows NT 10.0; Win64; x64) AppleWebKit/537.36 (KHTML, like Gecko) Chrome/88.0.4324.104 Safari/537.36","","","","","","","","-70,-65,-60,-55,-50","media/audio/stims/spherical_300cm_s20_c20_cd-full_matched_a-50.wav","spherical","20","20","full","matched","-50","-65","1677"
"echo-presentation","34","354146","0.0-34.0","5d9e617de7a6a5001463a37c","5fef55e628823a0076ec12ee","6018cae08c91d51d28bc0915","Mozilla/5.0 (Windows NT 10.0; Win64; x64) AppleWebKit/537.36 (KHTML, like Gecko) Chrome/88.0.4324.104 Safari/537.36","","","","","","","","-70,-65,-60,-55,-50","media/audio/stims/spherical_300cm_s20_c20_cd-full_matched_a-50.wav","spherical","20","20","full","matched","-50","-70","1078"
"echo-presentation","35","355969","0.0-35.0","5d9e617de7a6a5001463a37c","5fef55e628823a0076ec12ee","6018cae08c91d51d28bc0915","Mozilla/5.0 (Windows NT 10.0; Win64; x64) AppleWebKit/537.36 (KHTML, like Gecko) Chrome/88.0.4324.104 Safari/537.36","","","","","","","","-70,-65,-60,-55,-50","media/audio/stims/spherical_300cm_s20_c20_cd-full_matched_a-65.wav","spherical","20","20","full","matched","-65","-65","990"
"echo-presentation","36","357498","0.0-36.0","5d9e617de7a6a5001463a37c","5fef55e628823a0076ec12ee","6018cae08c91d51d28bc0915","Mozilla/5.0 (Windows NT 10.0; Win64; x64) AppleWebKit/537.36 (KHTML, like Gecko) Chrome/88.0.4324.104 Safari/537.36","","","","","","","","-70,-65,-60,-55,-50","media/audio/stims/spherical_300cm_s20_c20_cd-full_matched_a-50.wav","spherical","20","20","full","matched","-50","-70","813"
"echo-presentation","37","359242","0.0-37.0","5d9e617de7a6a5001463a37c","5fef55e628823a0076ec12ee","6018cae08c91d51d28bc0915","Mozilla/5.0 (Windows NT 10.0; Win64; x64) AppleWebKit/537.36 (KHTML, like Gecko) Chrome/88.0.4324.104 Safari/537.36","","","","","","","","-70,-65,-60,-55,-50","media/audio/stims/spherical_300cm_s20_c20_cd-full_matched_a-70.wav","spherical","20","20","full","matched","-70","-65","934"
"echo-presentation","38","360746","0.0-38.0","5d9e617de7a6a5001463a37c","5fef55e628823a0076ec12ee","6018cae08c91d51d28bc0915","Mozilla/5.0 (Windows NT 10.0; Win64; x64) AppleWebKit/537.36 (KHTML, like Gecko) Chrome/88.0.4324.104 Safari/537.36","","","","","","","","-70,-65,-60,-55,-50","media/audio/stims/spherical_300cm_s20_c20_cd-full_matched_a-55.wav","spherical","20","20","full","matched","-55","-70","846"
"echo-presentation","39","362602","0.0-39.0","5d9e617de7a6a5001463a37c","5fef55e628823a0076ec12ee","6018cae08c91d51d28bc0915","Mozilla/5.0 (Windows NT 10.0; Win64; x64) AppleWebKit/537.36 (KHTML, like Gecko) Chrome/88.0.4324.104 Safari/537.36","","","","","","","","-70,-65,-60,-55,-50","media/audio/stims/spherical_300cm_s20_c20_cd-full_matched_a-55.wav","spherical","20","20","full","matched","-55","-65","1054"
"echo-presentation","40","364514","0.0-40.0","5d9e617de7a6a5001463a37c","5fef55e628823a0076ec12ee","6018cae08c91d51d28bc0915","Mozilla/5.0 (Windows NT 10.0; Win64; x64) AppleWebKit/537.36 (KHTML, like Gecko) Chrome/88.0.4324.104 Safari/537.36","","","","","","","","-70,-65,-60,-55,-50","media/audio/stims/spherical_300cm_s20_c20_cd-full_matched_a-60.wav","spherical","20","20","full","matched","-60","-70","893"
"echo-presentation","41","366234","0.0-41.0","5d9e617de7a6a5001463a37c","5fef55e628823a0076ec12ee","6018cae08c91d51d28bc0915","Mozilla/5.0 (Windows NT 10.0; Win64; x64) AppleWebKit/537.36 (KHTML, like Gecko) Chrome/88.0.4324.104 Safari/537.36","","","","","","","","-70,-65,-60,-55,-50","media/audio/stims/spherical_300cm_s20_c20_cd-full_matched_a-55.wav","spherical","20","20","full","matched","-55","-65","870"
"echo-presentation","42","367770","0.0-42.0","5d9e617de7a6a5001463a37c","5fef55e628823a0076ec12ee","6018cae08c91d51d28bc0915","Mozilla/5.0 (Windows NT 10.0; Win64; x64) AppleWebKit/537.36 (KHTML, like Gecko) Chrome/88.0.4324.104 Safari/537.36","","","","","","","","-70,-65,-60,-55,-50","media/audio/stims/spherical_300cm_s20_c20_cd-full_matched_a-65.wav","spherical","20","20","full","matched","-65","-70","821"
"echo-presentation","43","369490","0.0-43.0","5d9e617de7a6a5001463a37c","5fef55e628823a0076ec12ee","6018cae08c91d51d28bc0915","Mozilla/5.0 (Windows NT 10.0; Win64; x64) AppleWebKit/537.36 (KHTML, like Gecko) Chrome/88.0.4324.104 Safari/537.36","","","","","","","","-70,-65,-60,-55,-50","media/audio/stims/spherical_300cm_s20_c20_cd-full_matched_a-70.wav","spherical","20","20","full","matched","-70","-65","878"
"echo-presentation","44","371145","0.0-44.0","5d9e617de7a6a5001463a37c","5fef55e628823a0076ec12ee","6018cae08c91d51d28bc0915","Mozilla/5.0 (Windows NT 10.0; Win64; x64) AppleWebKit/537.36 (KHTML, like Gecko) Chrome/88.0.4324.104 Safari/537.36","","","","","","","","-70,-65,-60,-55,-50","media/audio/stims/spherical_300cm_s20_c20_cd-full_matched_a-65.wav","spherical","20","20","full","matched","-65","-65","878"
"echo-presentation","45","372802","0.0-45.0","5d9e617de7a6a5001463a37c","5fef55e628823a0076ec12ee","6018cae08c91d51d28bc0915","Mozilla/5.0 (Windows NT 10.0; Win64; x64) AppleWebKit/537.36 (KHTML, like Gecko) Chrome/88.0.4324.104 Safari/537.36","","","","","","","","-70,-65,-60,-55,-50","media/audio/stims/spherical_300cm_s20_c20_cd-full_matched_a-60.wav","spherical","20","20","full","matched","-60","-65","829"
"echo-presentation","46","374514","0.0-46.0","5d9e617de7a6a5001463a37c","5fef55e628823a0076ec12ee","6018cae08c91d51d28bc0915","Mozilla/5.0 (Windows NT 10.0; Win64; x64) AppleWebKit/537.36 (KHTML, like Gecko) Chrome/88.0.4324.104 Safari/537.36","","","","","","","","-70,-65,-60,-55,-50","media/audio/stims/spherical_300cm_s20_c20_cd-full_matched_a-60.wav","spherical","20","20","full","matched","-60","-65","854"
"echo-presentation","47","376114","0.0-47.0","5d9e617de7a6a5001463a37c","5fef55e628823a0076ec12ee","6018cae08c91d51d28bc0915","Mozilla/5.0 (Windows NT 10.0; Win64; x64) AppleWebKit/537.36 (KHTML, like Gecko) Chrome/88.0.4324.104 Safari/537.36","","","","","","","","-70,-65,-60,-55,-50","media/audio/stims/spherical_300cm_s20_c20_cd-full_matched_a-65.wav","spherical","20","20","full","matched","-65","-65","829"
"echo-presentation","48","377793","0.0-48.0","5d9e617de7a6a5001463a37c","5fef55e628823a0076ec12ee","6018cae08c91d51d28bc0915","Mozilla/5.0 (Windows NT 10.0; Win64; x64) AppleWebKit/537.36 (KHTML, like Gecko) Chrome/88.0.4324.104 Safari/537.36","","","","","","","","-70,-65,-60,-55,-50","media/audio/stims/spherical_300cm_s20_c20_cd-full_matched_a-60.wav","spherical","20","20","full","matched","-60","-65","894"
"echo-presentation","49","379674","0.0-49.0","5d9e617de7a6a5001463a37c","5fef55e628823a0076ec12ee","6018cae08c91d51d28bc0915","Mozilla/5.0 (Windows NT 10.0; Win64; x64) AppleWebKit/537.36 (KHTML, like Gecko) Chrome/88.0.4324.104 Safari/537.36","","","","","","","","-70,-65,-60,-55,-50","media/audio/stims/spherical_300cm_s20_c20_cd-full_matched_a-55.wav","spherical","20","20","full","matched","-55","-65","869"
"block-bookend","50","381516","0.0-50.0","5d9e617de7a6a5001463a37c","5fef55e628823a0076ec12ee","6018cae08c91d51d28bc0915","Mozilla/5.0 (Windows NT 10.0; Win64; x64) AppleWebKit/537.36 (KHTML, like Gecko) Chrome/88.0.4324.104 Safari/537.36","","","","","","","","","","","","","","","","",""
"block-bookend","51","390524","0.0-51.0","5d9e617de7a6a5001463a37c","5fef55e628823a0076ec12ee","6018cae08c91d51d28bc0915","Mozilla/5.0 (Windows NT 10.0; Win64; x64) AppleWebKit/537.36 (KHTML, like Gecko) Chrome/88.0.4324.104 Safari/537.36","","","","","","","","","","","","","","","","",""
"echo-presentation","52","394978","0.0-52.0","5d9e617de7a6a5001463a37c","5fef55e628823a0076ec12ee","6018cae08c91d51d28bc0915","Mozilla/5.0 (Windows NT 10.0; Win64; x64) AppleWebKit/537.36 (KHTML, like Gecko) Chrome/88.0.4324.104 Safari/537.36","","","","","","","","50,55,60,65,70","media/audio/stims/spherical_300cm_s20_c20_cd-full_matched_a50.wav","spherical","20","20","full","matched","50","65","2285"
"echo-presentation","53","397370","0.0-53.0","5d9e617de7a6a5001463a37c","5fef55e628823a0076ec12ee","6018cae08c91d51d28bc0915","Mozilla/5.0 (Windows NT 10.0; Win64; x64) AppleWebKit/537.36 (KHTML, like Gecko) Chrome/88.0.4324.104 Safari/537.36","","","","","","","","50,55,60,65,70","media/audio/stims/spherical_300cm_s20_c20_cd-full_matched_a70.wav","spherical","20","20","full","matched","70","65","1589"
"echo-presentation","54","399476","0.0-54.0","5d9e617de7a6a5001463a37c","5fef55e628823a0076ec12ee","6018cae08c91d51d28bc0915","Mozilla/5.0 (Windows NT 10.0; Win64; x64) AppleWebKit/537.36 (KHTML, like Gecko) Chrome/88.0.4324.104 Safari/537.36","","","","","","","","50,55,60,65,70","media/audio/stims/spherical_300cm_s20_c20_cd-full_matched_a60.wav","spherical","20","20","full","matched","60","65","1334"
"echo-presentation","55","401146","0.0-55.0","5d9e617de7a6a5001463a37c","5fef55e628823a0076ec12ee","6018cae08c91d51d28bc0915","Mozilla/5.0 (Windows NT 10.0; Win64; x64) AppleWebKit/537.36 (KHTML, like Gecko) Chrome/88.0.4324.104 Safari/537.36","","","","","","","","50,55,60,65,70","media/audio/stims/spherical_300cm_s20_c20_cd-full_matched_a55.wav","spherical","20","20","full","matched","55","65","950"
"echo-presentation","56","403242","0.0-56.0","5d9e617de7a6a5001463a37c","5fef55e628823a0076ec12ee","6018cae08c91d51d28bc0915","Mozilla/5.0 (Windows NT 10.0; Win64; x64) AppleWebKit/537.36 (KHTML, like Gecko) Chrome/88.0.4324.104 Safari/537.36","","","","","","","","50,55,60,65,70","media/audio/stims/spherical_300cm_s20_c20_cd-full_matched_a60.wav","spherical","20","20","full","matched","60","65","1014"
"echo-presentation","57","405026","0.0-57.0","5d9e617de7a6a5001463a37c","5fef55e628823a0076ec12ee","6018cae08c91d51d28bc0915","Mozilla/5.0 (Windows NT 10.0; Win64; x64) AppleWebKit/537.36 (KHTML, like Gecko) Chrome/88.0.4324.104 Safari/537.36","","","","","","","","50,55,60,65,70","media/audio/stims/spherical_300cm_s20_c20_cd-full_matched_a55.wav","spherical","20","20","full","matched","55","65","926"
"echo-presentation","58","406858","0.0-58.0","5d9e617de7a6a5001463a37c","5fef55e628823a0076ec12ee","6018cae08c91d51d28bc0915","Mozilla/5.0 (Windows NT 10.0; Win64; x64) AppleWebKit/537.36 (KHTML, like Gecko) Chrome/88.0.4324.104 Safari/537.36","","","","","","","","50,55,60,65,70","media/audio/stims/spherical_300cm_s20_c20_cd-full_matched_a70.wav","spherical","20","20","full","matched","70","65","958"
"echo-presentation","59","408721","0.0-59.0","5d9e617de7a6a5001463a37c","5fef55e628823a0076ec12ee","6018cae08c91d51d28bc0915","Mozilla/5.0 (Windows NT 10.0; Win64; x64) AppleWebKit/537.36 (KHTML, like Gecko) Chrome/88.0.4324.104 Safari/537.36","","","","","","","","50,55,60,65,70","media/audio/stims/spherical_300cm_s20_c20_cd-full_matched_a60.wav","spherical","20","20","full","matched","60","65","1019"
"echo-presentation","60","410354","0.0-60.0","5d9e617de7a6a5001463a37c","5fef55e628823a0076ec12ee","6018cae08c91d51d28bc0915","Mozilla/5.0 (Windows NT 10.0; Win64; x64) AppleWebKit/537.36 (KHTML, like Gecko) Chrome/88.0.4324.104 Safari/537.36","","","","","","","","50,55,60,65,70","media/audio/stims/spherical_300cm_s20_c20_cd-full_matched_a55.wav","spherical","20","20","full","matched","55","70","815"
"echo-presentation","61","412057","0.0-61.0","5d9e617de7a6a5001463a37c","5fef55e628823a0076ec12ee","6018cae08c91d51d28bc0915","Mozilla/5.0 (Windows NT 10.0; Win64; x64) AppleWebKit/537.36 (KHTML, like Gecko) Chrome/88.0.4324.104 Safari/537.36","","","","","","","","50,55,60,65,70","media/audio/stims/spherical_300cm_s20_c20_cd-full_matched_a65.wav","spherical","20","20","full","matched","65","70","861"
"echo-presentation","62","414033","0.0-62.0","5d9e617de7a6a5001463a37c","5fef55e628823a0076ec12ee","6018cae08c91d51d28bc0915","Mozilla/5.0 (Windows NT 10.0; Win64; x64) AppleWebKit/537.36 (KHTML, like Gecko) Chrome/88.0.4324.104 Safari/537.36","","","","","","","","50,55,60,65,70","media/audio/stims/spherical_300cm_s20_c20_cd-full_matched_a65.wav","spherical","20","20","full","matched","65","70","1190"
"echo-presentation","63","416065","0.0-63.0","5d9e617de7a6a5001463a37c","5fef55e628823a0076ec12ee","6018cae08c91d51d28bc0915","Mozilla/5.0 (Windows NT 10.0; Win64; x64) AppleWebKit/537.36 (KHTML, like Gecko) Chrome/88.0.4324.104 Safari/537.36","","","","","","","","50,55,60,65,70","media/audio/stims/spherical_300cm_s20_c20_cd-full_matched_a65.wav","spherical","20","20","full","matched","65","70","1047"
"echo-presentation","64","418586","0.0-64.0","5d9e617de7a6a5001463a37c","5fef55e628823a0076ec12ee","6018cae08c91d51d28bc0915","Mozilla/5.0 (Windows NT 10.0; Win64; x64) AppleWebKit/537.36 (KHTML, like Gecko) Chrome/88.0.4324.104 Safari/537.36","","","","","","","","50,55,60,65,70","media/audio/stims/spherical_300cm_s20_c20_cd-full_matched_a70.wav","spherical","20","20","full","matched","70","70","1717"
"echo-presentation","65","421441","0.0-65.0","5d9e617de7a6a5001463a37c","5fef55e628823a0076ec12ee","6018cae08c91d51d28bc0915","Mozilla/5.0 (Windows NT 10.0; Win64; x64) AppleWebKit/537.36 (KHTML, like Gecko) Chrome/88.0.4324.104 Safari/537.36","","","","","","","","50,55,60,65,70","media/audio/stims/spherical_300cm_s20_c20_cd-full_matched_a50.wav","spherical","20","20","full","matched","50","65","1661"
"echo-presentation","66","423313","0.0-66.0","5d9e617de7a6a5001463a37c","5fef55e628823a0076ec12ee","6018cae08c91d51d28bc0915","Mozilla/5.0 (Windows NT 10.0; Win64; x64) AppleWebKit/537.36 (KHTML, like Gecko) Chrome/88.0.4324.104 Safari/537.36","","","","","","","","50,55,60,65,70","media/audio/stims/spherical_300cm_s20_c20_cd-full_matched_a60.wav","spherical","20","20","full","matched","60","70","1013"
"echo-presentation","67","425314","0.0-67.0","5d9e617de7a6a5001463a37c","5fef55e628823a0076ec12ee","6018cae08c91d51d28bc0915","Mozilla/5.0 (Windows NT 10.0; Win64; x64) AppleWebKit/537.36 (KHTML, like Gecko) Chrome/88.0.4324.104 Safari/537.36","","","","","","","","50,55,60,65,70","media/audio/stims/spherical_300cm_s20_c20_cd-full_matched_a50.wav","spherical","20","20","full","matched","50","65","1101"
"echo-presentation","68","427306","0.0-68.0","5d9e617de7a6a5001463a37c","5fef55e628823a0076ec12ee","6018cae08c91d51d28bc0915","Mozilla/5.0 (Windows NT 10.0; Win64; x64) AppleWebKit/537.36 (KHTML, like Gecko) Chrome/88.0.4324.104 Safari/537.36","","","","","","","","50,55,60,65,70","media/audio/stims/spherical_300cm_s20_c20_cd-full_matched_a50.wav","spherical","20","20","full","matched","50","65","1037"
"echo-presentation","69","429010","0.0-69.0","5d9e617de7a6a5001463a37c","5fef55e628823a0076ec12ee","6018cae08c91d51d28bc0915","Mozilla/5.0 (Windows NT 10.0; Win64; x64) AppleWebKit/537.36 (KHTML, like Gecko) Chrome/88.0.4324.104 Safari/537.36","","","","","","","","50,55,60,65,70","media/audio/stims/spherical_300cm_s20_c20_cd-full_matched_a55.wav","spherical","20","20","full","matched","55","65","774"
"echo-presentation","70","430666","0.0-70.0","5d9e617de7a6a5001463a37c","5fef55e628823a0076ec12ee","6018cae08c91d51d28bc0915","Mozilla/5.0 (Windows NT 10.0; Win64; x64) AppleWebKit/537.36 (KHTML, like Gecko) Chrome/88.0.4324.104 Safari/537.36","","","","","","","","50,55,60,65,70","media/audio/stims/spherical_300cm_s20_c20_cd-full_matched_a65.wav","spherical","20","20","full","matched","65","65","821"
"echo-presentation","71","432337","0.0-71.0","5d9e617de7a6a5001463a37c","5fef55e628823a0076ec12ee","6018cae08c91d51d28bc0915","Mozilla/5.0 (Windows NT 10.0; Win64; x64) AppleWebKit/537.36 (KHTML, like Gecko) Chrome/88.0.4324.104 Safari/537.36","","","","","","","","50,55,60,65,70","media/audio/stims/spherical_300cm_s20_c20_cd-full_matched_a70.wav","spherical","20","20","full","matched","70","65","926"
"block-bookend","72","433581","0.0-72.0","5d9e617de7a6a5001463a37c","5fef55e628823a0076ec12ee","6018cae08c91d51d28bc0915","Mozilla/5.0 (Windows NT 10.0; Win64; x64) AppleWebKit/537.36 (KHTML, like Gecko) Chrome/88.0.4324.104 Safari/537.36","","","","","","","","","","","","","","","","",""
"block-bookend","73","440477","0.0-73.0","5d9e617de7a6a5001463a37c","5fef55e628823a0076ec12ee","6018cae08c91d51d28bc0915","Mozilla/5.0 (Windows NT 10.0; Win64; x64) AppleWebKit/537.36 (KHTML, like Gecko) Chrome/88.0.4324.104 Safari/537.36","","","","","","","","","","","","","","","","",""
"echo-presentation","74","449529","0.0-74.0","5d9e617de7a6a5001463a37c","5fef55e628823a0076ec12ee","6018cae08c91d51d28bc0915","Mozilla/5.0 (Windows NT 10.0; Win64; x64) AppleWebKit/537.36 (KHTML, like Gecko) Chrome/88.0.4324.104 Safari/537.36","","","","","","","","-10,-5,0,5,10","media/audio/stims/spherical_300cm_s20_c20_cd-full_matched_a0.wav","spherical","20","20","full","matched","0","0","7070"
"echo-presentation","75","451962","0.0-75.0","5d9e617de7a6a5001463a37c","5fef55e628823a0076ec12ee","6018cae08c91d51d28bc0915","Mozilla/5.0 (Windows NT 10.0; Win64; x64) AppleWebKit/537.36 (KHTML, like Gecko) Chrome/88.0.4324.104 Safari/537.36","","","","","","","","-10,-5,0,5,10","media/audio/stims/spherical_300cm_s20_c20_cd-full_matched_a10.wav","spherical","20","20","full","matched","10","0","1382"
"echo-presentation","76","455205","0.0-76.0","5d9e617de7a6a5001463a37c","5fef55e628823a0076ec12ee","6018cae08c91d51d28bc0915","Mozilla/5.0 (Windows NT 10.0; Win64; x64) AppleWebKit/537.36 (KHTML, like Gecko) Chrome/88.0.4324.104 Safari/537.36","","","","","","","","-10,-5,0,5,10","media/audio/stims/spherical_300cm_s20_c20_cd-full_matched_a5.wav","spherical","20","20","full","matched","5","0","1054"
"echo-presentation","77","458730","0.0-77.0","5d9e617de7a6a5001463a37c","5fef55e628823a0076ec12ee","6018cae08c91d51d28bc0915","Mozilla/5.0 (Windows NT 10.0; Win64; x64) AppleWebKit/537.36 (KHTML, like Gecko) Chrome/88.0.4324.104 Safari/537.36","","","","","","","","-10,-5,0,5,10","media/audio/stims/spherical_300cm_s20_c20_cd-full_matched_a-10.wav","spherical","20","20","full","matched","-10","-5","2678"
"echo-presentation","78","460946","0.0-78.0","5d9e617de7a6a5001463a37c","5fef55e628823a0076ec12ee","6018cae08c91d51d28bc0915","Mozilla/5.0 (Windows NT 10.0; Win64; x64) AppleWebKit/537.36 (KHTML, like Gecko) Chrome/88.0.4324.104 Safari/537.36","","","","","","","","-10,-5,0,5,10","media/audio/stims/spherical_300cm_s20_c20_cd-full_matched_a-10.wav","spherical","20","20","full","matched","-10","-5","1196"
"echo-presentation","79","462506","0.0-79.0","5d9e617de7a6a5001463a37c","5fef55e628823a0076ec12ee","6018cae08c91d51d28bc0915","Mozilla/5.0 (Windows NT 10.0; Win64; x64) AppleWebKit/537.36 (KHTML, like Gecko) Chrome/88.0.4324.104 Safari/537.36","","","","","","","","-10,-5,0,5,10","media/audio/stims/spherical_300cm_s20_c20_cd-full_matched_a-10.wav","spherical","20","20","full","matched","-10","-5","951"
"echo-presentation","80","464810","0.0-80.0","5d9e617de7a6a5001463a37c","5fef55e628823a0076ec12ee","6018cae08c91d51d28bc0915","Mozilla/5.0 (Windows NT 10.0; Win64; x64) AppleWebKit/537.36 (KHTML, like Gecko) Chrome/88.0.4324.104 Safari/537.36","","","","","","","","-10,-5,0,5,10","media/audio/stims/spherical_300cm_s20_c20_cd-full_matched_a-5.wav","spherical","20","20","full","matched","-5","0","1422"
"echo-presentation","81","467218","0.0-81.0","5d9e617de7a6a5001463a37c","5fef55e628823a0076ec12ee","6018cae08c91d51d28bc0915","Mozilla/5.0 (Windows NT 10.0; Win64; x64) AppleWebKit/537.36 (KHTML, like Gecko) Chrome/88.0.4324.104 Safari/537.36","","","","","","","","-10,-5,0,5,10","media/audio/stims/spherical_300cm_s20_c20_cd-full_matched_a0.wav","spherical","20","20","full","matched","0","-5","1413"
"echo-presentation","82","469178","0.0-82.0","5d9e617de7a6a5001463a37c","5fef55e628823a0076ec12ee","6018cae08c91d51d28bc0915","Mozilla/5.0 (Windows NT 10.0; Win64; x64) AppleWebKit/537.36 (KHTML, like Gecko) Chrome/88.0.4324.104 Safari/537.36","","","","","","","","-10,-5,0,5,10","media/audio/stims/spherical_300cm_s20_c20_cd-full_matched_a10.wav","spherical","20","20","full","matched","10","0","1221"
"echo-presentation","83","470986","0.0-83.0","5d9e617de7a6a5001463a37c","5fef55e628823a0076ec12ee","6018cae08c91d51d28bc0915","Mozilla/5.0 (Windows NT 10.0; Win64; x64) AppleWebKit/537.36 (KHTML, like Gecko) Chrome/88.0.4324.104 Safari/537.36","","","","","","","","-10,-5,0,5,10","media/audio/stims/spherical_300cm_s20_c20_cd-full_matched_a-5.wav","spherical","20","20","full","matched","-5","0","1198"
"echo-presentation","84","473611","0.0-84.0","5d9e617de7a6a5001463a37c","5fef55e628823a0076ec12ee","6018cae08c91d51d28bc0915","Mozilla/5.0 (Windows NT 10.0; Win64; x64) AppleWebKit/537.36 (KHTML, like Gecko) Chrome/88.0.4324.104 Safari/537.36","","","","","","","","-10,-5,0,5,10","media/audio/stims/spherical_300cm_s20_c20_cd-full_matched_a-10.wav","spherical","20","20","full","matched","-10","-5","1102"
"echo-presentation","85","475466","0.0-85.0","5d9e617de7a6a5001463a37c","5fef55e628823a0076ec12ee","6018cae08c91d51d28bc0915","Mozilla/5.0 (Windows NT 10.0; Win64; x64) AppleWebKit/537.36 (KHTML, like Gecko) Chrome/88.0.4324.104 Safari/537.36","","","","","","","","-10,-5,0,5,10","media/audio/stims/spherical_300cm_s20_c20_cd-full_matched_a-5.wav","spherical","20","20","full","matched","-5","0","997"
"echo-presentation","86","477218","0.0-86.0","5d9e617de7a6a5001463a37c","5fef55e628823a0076ec12ee","6018cae08c91d51d28bc0915","Mozilla/5.0 (Windows NT 10.0; Win64; x64) AppleWebKit/537.36 (KHTML, like Gecko) Chrome/88.0.4324.104 Safari/537.36","","","","","","","","-10,-5,0,5,10","media/audio/stims/spherical_300cm_s20_c20_cd-full_matched_a0.wav","spherical","20","20","full","matched","0","0","854"
"echo-presentation","87","478906","0.0-87.0","5d9e617de7a6a5001463a37c","5fef55e628823a0076ec12ee","6018cae08c91d51d28bc0915","Mozilla/5.0 (Windows NT 10.0; Win64; x64) AppleWebKit/537.36 (KHTML, like Gecko) Chrome/88.0.4324.104 Safari/537.36","","","","","","","","-10,-5,0,5,10","media/audio/stims/spherical_300cm_s20_c20_cd-full_matched_a5.wav","spherical","20","20","full","matched","5","0","870"
"echo-presentation","88","480386","0.0-88.0","5d9e617de7a6a5001463a37c","5fef55e628823a0076ec12ee","6018cae08c91d51d28bc0915","Mozilla/5.0 (Windows NT 10.0; Win64; x64) AppleWebKit/537.36 (KHTML, like Gecko) Chrome/88.0.4324.104 Safari/537.36","","","","","","","","-10,-5,0,5,10","media/audio/stims/spherical_300cm_s20_c20_cd-full_matched_a10.wav","spherical","20","20","full","matched","10","0","678"
"echo-presentation","89","482105","0.0-89.0","5d9e617de7a6a5001463a37c","5fef55e628823a0076ec12ee","6018cae08c91d51d28bc0915","Mozilla/5.0 (Windows NT 10.0; Win64; x64) AppleWebKit/537.36 (KHTML, like Gecko) Chrome/88.0.4324.104 Safari/537.36","","","","","","","","-10,-5,0,5,10","media/audio/stims/spherical_300cm_s20_c20_cd-full_matched_a-5.wav","spherical","20","20","full","matched","-5","0","654"
"echo-presentation","90","483897","0.0-90.0","5d9e617de7a6a5001463a37c","5fef55e628823a0076ec12ee","6018cae08c91d51d28bc0915","Mozilla/5.0 (Windows NT 10.0; Win64; x64) AppleWebKit/537.36 (KHTML, like Gecko) Chrome/88.0.4324.104 Safari/537.36","","","","","","","","-10,-5,0,5,10","media/audio/stims/spherical_300cm_s20_c20_cd-full_matched_a10.wav","spherical","20","20","full","matched","10","0","765"
"echo-presentation","91","485298","0.0-91.0","5d9e617de7a6a5001463a37c","5fef55e628823a0076ec12ee","6018cae08c91d51d28bc0915","Mozilla/5.0 (Windows NT 10.0; Win64; x64) AppleWebKit/537.36 (KHTML, like Gecko) Chrome/88.0.4324.104 Safari/537.36","","","","","","","","-10,-5,0,5,10","media/audio/stims/spherical_300cm_s20_c20_cd-full_matched_a0.wav","spherical","20","20","full","matched","0","-5","678"
"echo-presentation","92","486769","0.0-92.0","5d9e617de7a6a5001463a37c","5fef55e628823a0076ec12ee","6018cae08c91d51d28bc0915","Mozilla/5.0 (Windows NT 10.0; Win64; x64) AppleWebKit/537.36 (KHTML, like Gecko) Chrome/88.0.4324.104 Safari/537.36","","","","","","","","-10,-5,0,5,10","media/audio/stims/spherical_300cm_s20_c20_cd-full_matched_a5.wav","spherical","20","20","full","matched","5","-5","694"
"echo-presentation","93","488633","0.0-93.0","5d9e617de7a6a5001463a37c","5fef55e628823a0076ec12ee","6018cae08c91d51d28bc0915","Mozilla/5.0 (Windows NT 10.0; Win64; x64) AppleWebKit/537.36 (KHTML, like Gecko) Chrome/88.0.4324.104 Safari/537.36","","","","","","","","-10,-5,0,5,10","media/audio/stims/spherical_300cm_s20_c20_cd-full_matched_a5.wav","spherical","20","20","full","matched","5","-5","838"
"block-bookend","94","489829","0.0-94.0","5d9e617de7a6a5001463a37c","5fef55e628823a0076ec12ee","6018cae08c91d51d28bc0915","Mozilla/5.0 (Windows NT 10.0; Win64; x64) AppleWebKit/537.36 (KHTML, like Gecko) Chrome/88.0.4324.104 Safari/537.36","","","","","","","","","","","","","","","","",""
"block-bookend","95","498732","0.0-95.0","5d9e617de7a6a5001463a37c","5fef55e628823a0076ec12ee","6018cae08c91d51d28bc0915","Mozilla/5.0 (Windows NT 10.0; Win64; x64) AppleWebKit/537.36 (KHTML, like Gecko) Chrome/88.0.4324.104 Safari/537.36","","","","","","","","","","","","","","","","",""
"echo-presentation","96","501666","0.0-96.0","5d9e617de7a6a5001463a37c","5fef55e628823a0076ec12ee","6018cae08c91d51d28bc0915","Mozilla/5.0 (Windows NT 10.0; Win64; x64) AppleWebKit/537.36 (KHTML, like Gecko) Chrome/88.0.4324.104 Safari/537.36","","","","","","","","-10,-5,0,5,10","media/audio/stims/spherical_300cm_s20_c20_cd-full_matched_a0.wav","spherical","20","20","full","matched","0","0","1182"
"echo-presentation","97","503489","0.0-97.0","5d9e617de7a6a5001463a37c","5fef55e628823a0076ec12ee","6018cae08c91d51d28bc0915","Mozilla/5.0 (Windows NT 10.0; Win64; x64) AppleWebKit/537.36 (KHTML, like Gecko) Chrome/88.0.4324.104 Safari/537.36","","","","","","","","-10,-5,0,5,10","media/audio/stims/spherical_300cm_s20_c20_cd-full_matched_a5.wav","spherical","20","20","full","matched","5","0","878"
"echo-presentation","98","505097","0.0-98.0","5d9e617de7a6a5001463a37c","5fef55e628823a0076ec12ee","6018cae08c91d51d28bc0915","Mozilla/5.0 (Windows NT 10.0; Win64; x64) AppleWebKit/537.36 (KHTML, like Gecko) Chrome/88.0.4324.104 Safari/537.36","","","","","","","","-10,-5,0,5,10","media/audio/stims/spherical_300cm_s20_c20_cd-full_matched_a10.wav","spherical","20","20","full","matched","10","0","885"
"echo-presentation","99","506970","0.0-99.0","5d9e617de7a6a5001463a37c","5fef55e628823a0076ec12ee","6018cae08c91d51d28bc0915","Mozilla/5.0 (Windows NT 10.0; Win64; x64) AppleWebKit/537.36 (KHTML, like Gecko) Chrome/88.0.4324.104 Safari/537.36","","","","","","","","-10,-5,0,5,10","media/audio/stims/spherical_300cm_s20_c20_cd-full_matched_a5.wav","spherical","20","20","full","matched","5","0","972"
"echo-presentation","100","509513","0.0-100.0","5d9e617de7a6a5001463a37c","5fef55e628823a0076ec12ee","6018cae08c91d51d28bc0915","Mozilla/5.0 (Windows NT 10.0; Win64; x64) AppleWebKit/537.36 (KHTML, like Gecko) Chrome/88.0.4324.104 Safari/537.36","","","","","","","","-10,-5,0,5,10","media/audio/stims/spherical_300cm_s20_c20_cd-full_matched_a5.wav","spherical","20","20","full","matched","5","0","781"
"echo-presentation","101","511049","0.0-101.0","5d9e617de7a6a5001463a37c","5fef55e628823a0076ec12ee","6018cae08c91d51d28bc0915","Mozilla/5.0 (Windows NT 10.0; Win64; x64) AppleWebKit/537.36 (KHTML, like Gecko) Chrome/88.0.4324.104 Safari/537.36","","","","","","","","-10,-5,0,5,10","media/audio/stims/spherical_300cm_s20_c20_cd-full_matched_a0.wav","spherical","20","20","full","matched","0","0","757"
"echo-presentation","102","512522","0.0-102.0","5d9e617de7a6a5001463a37c","5fef55e628823a0076ec12ee","6018cae08c91d51d28bc0915","Mozilla/5.0 (Windows NT 10.0; Win64; x64) AppleWebKit/537.36 (KHTML, like Gecko) Chrome/88.0.4324.104 Safari/537.36","","","","","","","","-10,-5,0,5,10","media/audio/stims/spherical_300cm_s20_c20_cd-full_matched_a-5.wav","spherical","20","20","full","matched","-5","0","702"
"echo-presentation","103","514106","0.0-103.0","5d9e617de7a6a5001463a37c","5fef55e628823a0076ec12ee","6018cae08c91d51d28bc0915","Mozilla/5.0 (Windows NT 10.0; Win64; x64) AppleWebKit/537.36 (KHTML, like Gecko) Chrome/88.0.4324.104 Safari/537.36","","","","","","","","-10,-5,0,5,10","media/audio/stims/spherical_300cm_s20_c20_cd-full_matched_a0.wav","spherical","20","20","full","matched","0","0","726"
"echo-presentation","104","515505","0.0-104.0","5d9e617de7a6a5001463a37c","5fef55e628823a0076ec12ee","6018cae08c91d51d28bc0915","Mozilla/5.0 (Windows NT 10.0; Win64; x64) AppleWebKit/537.36 (KHTML, like Gecko) Chrome/88.0.4324.104 Safari/537.36","","","","","","","","-10,-5,0,5,10","media/audio/stims/spherical_300cm_s20_c20_cd-full_matched_a-10.wav","spherical","20","20","full","matched","-10","-5","670"
"echo-presentation","105","516858","0.0-105.0","5d9e617de7a6a5001463a37c","5fef55e628823a0076ec12ee","6018cae08c91d51d28bc0915","Mozilla/5.0 (Windows NT 10.0; Win64; x64) AppleWebKit/537.36 (KHTML, like Gecko) Chrome/88.0.4324.104 Safari/537.36","","","","","","","","-10,-5,0,5,10","media/audio/stims/spherical_300cm_s20_c20_cd-full_matched_a-5.wav","spherical","20","20","full","matched","-5","-5","669"
"echo-presentation","106","518498","0.0-106.0","5d9e617de7a6a5001463a37c","5fef55e628823a0076ec12ee","6018cae08c91d51d28bc0915","Mozilla/5.0 (Windows NT 10.0; Win64; x64) AppleWebKit/537.36 (KHTML, like Gecko) Chrome/88.0.4324.104 Safari/537.36","","","","","","","","-10,-5,0,5,10","media/audio/stims/spherical_300cm_s20_c20_cd-full_matched_a0.wav","spherical","20","20","full","matched","0","-5","759"
"echo-presentation","107","519961","0.0-107.0","5d9e617de7a6a5001463a37c","5fef55e628823a0076ec12ee","6018cae08c91d51d28bc0915","Mozilla/5.0 (Windows NT 10.0; Win64; x64) AppleWebKit/537.36 (KHTML, like Gecko) Chrome/88.0.4324.104 Safari/537.36","","","","","","","","-10,-5,0,5,10","media/audio/stims/spherical_300cm_s20_c20_cd-full_matched_a5.wav","spherical","20","20","full","matched","5","0","709"
"echo-presentation","108","521570","0.0-108.0","5d9e617de7a6a5001463a37c","5fef55e628823a0076ec12ee","6018cae08c91d51d28bc0915","Mozilla/5.0 (Windows NT 10.0; Win64; x64) AppleWebKit/537.36 (KHTML, like Gecko) Chrome/88.0.4324.104 Safari/537.36","","","","","","","","-10,-5,0,5,10","media/audio/stims/spherical_300cm_s20_c20_cd-full_matched_a-5.wav","spherical","20","20","full","matched","-5","0","863"
"echo-presentation","109","523017","0.0-109.0","5d9e617de7a6a5001463a37c","5fef55e628823a0076ec12ee","6018cae08c91d51d28bc0915","Mozilla/5.0 (Windows NT 10.0; Win64; x64) AppleWebKit/537.36 (KHTML, like Gecko) Chrome/88.0.4324.104 Safari/537.36","","","","","","","","-10,-5,0,5,10","media/audio/stims/spherical_300cm_s20_c20_cd-full_matched_a-10.wav","spherical","20","20","full","matched","-10","0","781"
"echo-presentation","110","524521","0.0-110.0","5d9e617de7a6a5001463a37c","5fef55e628823a0076ec12ee","6018cae08c91d51d28bc0915","Mozilla/5.0 (Windows NT 10.0; Win64; x64) AppleWebKit/537.36 (KHTML, like Gecko) Chrome/88.0.4324.104 Safari/537.36","","","","","","","","-10,-5,0,5,10","media/audio/stims/spherical_300cm_s20_c20_cd-full_matched_a-10.wav","spherical","20","20","full","matched","-10","0","742"
"echo-presentation","111","526177","0.0-111.0","5d9e617de7a6a5001463a37c","5fef55e628823a0076ec12ee","6018cae08c91d51d28bc0915","Mozilla/5.0 (Windows NT 10.0; Win64; x64) AppleWebKit/537.36 (KHTML, like Gecko) Chrome/88.0.4324.104 Safari/537.36","","","","","","","","-10,-5,0,5,10","media/audio/stims/spherical_300cm_s20_c20_cd-full_matched_a10.wav","spherical","20","20","full","matched","10","0","853"
"echo-presentation","112","527514","0.0-112.0","5d9e617de7a6a5001463a37c","5fef55e628823a0076ec12ee","6018cae08c91d51d28bc0915","Mozilla/5.0 (Windows NT 10.0; Win64; x64) AppleWebKit/537.36 (KHTML, like Gecko) Chrome/88.0.4324.104 Safari/537.36","","","","","","","","-10,-5,0,5,10","media/audio/stims/spherical_300cm_s20_c20_cd-full_matched_a10.wav","spherical","20","20","full","matched","10","0","734"
"echo-presentation","113","528921","0.0-113.0","5d9e617de7a6a5001463a37c","5fef55e628823a0076ec12ee","6018cae08c91d51d28bc0915","Mozilla/5.0 (Windows NT 10.0; Win64; x64) AppleWebKit/537.36 (KHTML, like Gecko) Chrome/88.0.4324.104 Safari/537.36","","","","","","","","-10,-5,0,5,10","media/audio/stims/spherical_300cm_s20_c20_cd-full_matched_a-5.wav","spherical","20","20","full","matched","-5","0","733"
"echo-presentation","114","530434","0.0-114.0","5d9e617de7a6a5001463a37c","5fef55e628823a0076ec12ee","6018cae08c91d51d28bc0915","Mozilla/5.0 (Windows NT 10.0; Win64; x64) AppleWebKit/537.36 (KHTML, like Gecko) Chrome/88.0.4324.104 Safari/537.36","","","","","","","","-10,-5,0,5,10","media/audio/stims/spherical_300cm_s20_c20_cd-full_matched_a10.wav","spherical","20","20","full","matched","10","0","797"
"echo-presentation","115","532922","0.0-115.0","5d9e617de7a6a5001463a37c","5fef55e628823a0076ec12ee","6018cae08c91d51d28bc0915","Mozilla/5.0 (Windows NT 10.0; Win64; x64) AppleWebKit/537.36 (KHTML, like Gecko) Chrome/88.0.4324.104 Safari/537.36","","","","","","","","-10,-5,0,5,10","media/audio/stims/spherical_300cm_s20_c20_cd-full_matched_a-10.wav","spherical","20","20","full","matched","-10","-5","1782"
"block-bookend","116","533605","0.0-116.0","5d9e617de7a6a5001463a37c","5fef55e628823a0076ec12ee","6018cae08c91d51d28bc0915","Mozilla/5.0 (Windows NT 10.0; Win64; x64) AppleWebKit/537.36 (KHTML, like Gecko) Chrome/88.0.4324.104 Safari/537.36","","","","","","","","","","","","","","","","",""
"block-bookend","117","538949","0.0-117.0","5d9e617de7a6a5001463a37c","5fef55e628823a0076ec12ee","6018cae08c91d51d28bc0915","Mozilla/5.0 (Windows NT 10.0; Win64; x64) AppleWebKit/537.36 (KHTML, like Gecko) Chrome/88.0.4324.104 Safari/537.36","","","","","","","","","","","","","","","","",""
"echo-presentation","118","541185","0.0-118.0","5d9e617de7a6a5001463a37c","5fef55e628823a0076ec12ee","6018cae08c91d51d28bc0915","Mozilla/5.0 (Windows NT 10.0; Win64; x64) AppleWebKit/537.36 (KHTML, like Gecko) Chrome/88.0.4324.104 Safari/537.36","","","","","","","","-70,-65,-60,-55,-50","media/audio/stims/spherical_300cm_s20_c20_cd-full_matched_a-70.wav","spherical","20","20","full","matched","-70","-65","1277"
"echo-presentation","119","542617","0.0-119.0","5d9e617de7a6a5001463a37c","5fef55e628823a0076ec12ee","6018cae08c91d51d28bc0915","Mozilla/5.0 (Windows NT 10.0; Win64; x64) AppleWebKit/537.36 (KHTML, like Gecko) Chrome/88.0.4324.104 Safari/537.36","","","","","","","","-70,-65,-60,-55,-50","media/audio/stims/spherical_300cm_s20_c20_cd-full_matched_a-60.wav","spherical","20","20","full","matched","-60","-65","805"
"echo-presentation","120","544105","0.0-120.0","5d9e617de7a6a5001463a37c","5fef55e628823a0076ec12ee","6018cae08c91d51d28bc0915","Mozilla/5.0 (Windows NT 10.0; Win64; x64) AppleWebKit/537.36 (KHTML, like Gecko) Chrome/88.0.4324.104 Safari/537.36","","","","","","","","-70,-65,-60,-55,-50","media/audio/stims/spherical_300cm_s20_c20_cd-full_matched_a-65.wav","spherical","20","20","full","matched","-65","-65","694"
"echo-presentation","121","545529","0.0-121.0","5d9e617de7a6a5001463a37c","5fef55e628823a0076ec12ee","6018cae08c91d51d28bc0915","Mozilla/5.0 (Windows NT 10.0; Win64; x64) AppleWebKit/537.36 (KHTML, like Gecko) Chrome/88.0.4324.104 Safari/537.36","","","","","","","","-70,-65,-60,-55,-50","media/audio/stims/spherical_300cm_s20_c20_cd-full_matched_a-50.wav","spherical","20","20","full","matched","-50","-65","677"
"echo-presentation","122","546929","0.0-122.0","5d9e617de7a6a5001463a37c","5fef55e628823a0076ec12ee","6018cae08c91d51d28bc0915","Mozilla/5.0 (Windows NT 10.0; Win64; x64) AppleWebKit/537.36 (KHTML, like Gecko) Chrome/88.0.4324.104 Safari/537.36","","","","","","","","-70,-65,-60,-55,-50","media/audio/stims/spherical_300cm_s20_c20_cd-full_matched_a-55.wav","spherical","20","20","full","matched","-55","-65","654"
"echo-presentation","123","548306","0.0-123.0","5d9e617de7a6a5001463a37c","5fef55e628823a0076ec12ee","6018cae08c91d51d28bc0915","Mozilla/5.0 (Windows NT 10.0; Win64; x64) AppleWebKit/537.36 (KHTML, like Gecko) Chrome/88.0.4324.104 Safari/537.36","","","","","","","","-70,-65,-60,-55,-50","media/audio/stims/spherical_300cm_s20_c20_cd-full_matched_a-60.wav","spherical","20","20","full","matched","-60","-65","654"
"echo-presentation","124","550353","0.0-124.0","5d9e617de7a6a5001463a37c","5fef55e628823a0076ec12ee","6018cae08c91d51d28bc0915","Mozilla/5.0 (Windows NT 10.0; Win64; x64) AppleWebKit/537.36 (KHTML, like Gecko) Chrome/88.0.4324.104 Safari/537.36","","","","","","","","-70,-65,-60,-55,-50","media/audio/stims/spherical_300cm_s20_c20_cd-full_matched_a-50.wav","spherical","20","20","full","matched","-50","-65","1366"
"echo-presentation","125","551506","0.0-125.0","5d9e617de7a6a5001463a37c","5fef55e628823a0076ec12ee","6018cae08c91d51d28bc0915","Mozilla/5.0 (Windows NT 10.0; Win64; x64) AppleWebKit/537.36 (KHTML, like Gecko) Chrome/88.0.4324.104 Safari/537.36","","","","","","","","-70,-65,-60,-55,-50","media/audio/stims/spherical_300cm_s20_c20_cd-full_matched_a-50.wav","spherical","20","20","full","matched","-50","-65","638"
"echo-presentation","126","553913","0.0-126.0","5d9e617de7a6a5001463a37c","5fef55e628823a0076ec12ee","6018cae08c91d51d28bc0915","Mozilla/5.0 (Windows NT 10.0; Win64; x64) AppleWebKit/537.36 (KHTML, like Gecko) Chrome/88.0.4324.104 Safari/537.36","","","","","","","","-70,-65,-60,-55,-50","media/audio/stims/spherical_300cm_s20_c20_cd-full_matched_a-65.wav","spherical","20","20","full","matched","-65","-65","1605"
"echo-presentation","127","555490","0.0-127.0","5d9e617de7a6a5001463a37c","5fef55e628823a0076ec12ee","6018cae08c91d51d28bc0915","Mozilla/5.0 (Windows NT 10.0; Win64; x64) AppleWebKit/537.36 (KHTML, like Gecko) Chrome/88.0.4324.104 Safari/537.36","","","","","","","","-70,-65,-60,-55,-50","media/audio/stims/spherical_300cm_s20_c20_cd-full_matched_a-65.wav","spherical","20","20","full","matched","-65","-65","661"
"echo-presentation","128","556945","0.0-128.0","5d9e617de7a6a5001463a37c","5fef55e628823a0076ec12ee","6018cae08c91d51d28bc0915","Mozilla/5.0 (Windows NT 10.0; Win64; x64) AppleWebKit/537.36 (KHTML, like Gecko) Chrome/88.0.4324.104 Safari/537.36","","","","","","","","-70,-65,-60,-55,-50","media/audio/stims/spherical_300cm_s20_c20_cd-full_matched_a-70.wav","spherical","20","20","full","matched","-70","-65","598"
"echo-presentation","129","558410","0.0-129.0","5d9e617de7a6a5001463a37c","5fef55e628823a0076ec12ee","6018cae08c91d51d28bc0915","Mozilla/5.0 (Windows NT 10.0; Win64; x64) AppleWebKit/537.36 (KHTML, like Gecko) Chrome/88.0.4324.104 Safari/537.36","","","","","","","","-70,-65,-60,-55,-50","media/audio/stims/spherical_300cm_s20_c20_cd-full_matched_a-60.wav","spherical","20","20","full","matched","-60","-65","654"
"echo-presentation","130","559858","0.0-130.0","5d9e617de7a6a5001463a37c","5fef55e628823a0076ec12ee","6018cae08c91d51d28bc0915","Mozilla/5.0 (Windows NT 10.0; Win64; x64) AppleWebKit/537.36 (KHTML, like Gecko) Chrome/88.0.4324.104 Safari/537.36","","","","","","","","-70,-65,-60,-55,-50","media/audio/stims/spherical_300cm_s20_c20_cd-full_matched_a-55.wav","spherical","20","20","full","matched","-55","-65","702"
"echo-presentation","131","561234","0.0-131.0","5d9e617de7a6a5001463a37c","5fef55e628823a0076ec12ee","6018cae08c91d51d28bc0915","Mozilla/5.0 (Windows NT 10.0; Win64; x64) AppleWebKit/537.36 (KHTML, like Gecko) Chrome/88.0.4324.104 Safari/537.36","","","","","","","","-70,-65,-60,-55,-50","media/audio/stims/spherical_300cm_s20_c20_cd-full_matched_a-55.wav","spherical","20","20","full","matched","-55","-65","694"
"echo-presentation","132","562625","0.0-132.0","5d9e617de7a6a5001463a37c","5fef55e628823a0076ec12ee","6018cae08c91d51d28bc0915","Mozilla/5.0 (Windows NT 10.0; Win64; x64) AppleWebKit/537.36 (KHTML, like Gecko) Chrome/88.0.4324.104 Safari/537.36","","","","","","","","-70,-65,-60,-55,-50","media/audio/stims/spherical_300cm_s20_c20_cd-full_matched_a-60.wav","spherical","20","20","full","matched","-60","-65","684"
"echo-presentation","133","563977","0.0-133.0","5d9e617de7a6a5001463a37c","5fef55e628823a0076ec12ee","6018cae08c91d51d28bc0915","Mozilla/5.0 (Windows NT 10.0; Win64; x64) AppleWebKit/537.36 (KHTML, like Gecko) Chrome/88.0.4324.104 Safari/537.36","","","","","","","","-70,-65,-60,-55,-50","media/audio/stims/spherical_300cm_s20_c20_cd-full_matched_a-50.wav","spherical","20","20","full","matched","-50","-65","678"
"echo-presentation","134","565402","0.0-134.0","5d9e617de7a6a5001463a37c","5fef55e628823a0076ec12ee","6018cae08c91d51d28bc0915","Mozilla/5.0 (Windows NT 10.0; Win64; x64) AppleWebKit/537.36 (KHTML, like Gecko) Chrome/88.0.4324.104 Safari/537.36","","","","","","","","-70,-65,-60,-55,-50","media/audio/stims/spherical_300cm_s20_c20_cd-full_matched_a-55.wav","spherical","20","20","full","matched","-55","-65","701"
"echo-presentation","135","566802","0.0-135.0","5d9e617de7a6a5001463a37c","5fef55e628823a0076ec12ee","6018cae08c91d51d28bc0915","Mozilla/5.0 (Windows NT 10.0; Win64; x64) AppleWebKit/537.36 (KHTML, like Gecko) Chrome/88.0.4324.104 Safari/537.36","","","","","","","","-70,-65,-60,-55,-50","media/audio/stims/spherical_300cm_s20_c20_cd-full_matched_a-70.wav","spherical","20","20","full","matched","-70","-65","678"
"echo-presentation","136","568233","0.0-136.0","5d9e617de7a6a5001463a37c","5fef55e628823a0076ec12ee","6018cae08c91d51d28bc0915","Mozilla/5.0 (Windows NT 10.0; Win64; x64) AppleWebKit/537.36 (KHTML, like Gecko) Chrome/88.0.4324.104 Safari/537.36","","","","","","","","-70,-65,-60,-55,-50","media/audio/stims/spherical_300cm_s20_c20_cd-full_matched_a-70.wav","spherical","20","20","full","matched","-70","-65","670"
"echo-presentation","137","569722","0.0-137.0","5d9e617de7a6a5001463a37c","5fef55e628823a0076ec12ee","6018cae08c91d51d28bc0915","Mozilla/5.0 (Windows NT 10.0; Win64; x64) AppleWebKit/537.36 (KHTML, like Gecko) Chrome/88.0.4324.104 Safari/537.36","","","","","","","","-70,-65,-60,-55,-50","media/audio/stims/spherical_300cm_s20_c20_cd-full_matched_a-65.wav","spherical","20","20","full","matched","-65","-65","732"
"block-bookend","138","574021","0.0-138.0","5d9e617de7a6a5001463a37c","5fef55e628823a0076ec12ee","6018cae08c91d51d28bc0915","Mozilla/5.0 (Windows NT 10.0; Win64; x64) AppleWebKit/537.36 (KHTML, like Gecko) Chrome/88.0.4324.104 Safari/537.36","","","","","","","","","","","","","","","","",""
