"trial_type","trial_index","time_elapsed","internal_node_id","prolificPid","studyId","sessionId","userAgent","rt","stimulus","key_press","chosenKeyset","failureCount","testIndex","globalVolume","choices","filename","modelName","slowdown","compensation","compensationDescriptor","receiverOrientationType","azimuth","responseAzimuth","responseDelay"
"pavlovia","0","3","0.0-0.0","5ab308940527ba0001c15a9f","5fef55e628823a0076ec12ee","6018cb32c586911d7f87d842","Mozilla/5.0 (Windows NT 10.0; Win64; x64) AppleWebKit/537.36 (KHTML, like Gecko) Chrome/87.0.4280.101 Safari/537.36","","","","","","","","","","","","","","","","",""
"html-keyboard-response","1","13197","0.0-1.0","5ab308940527ba0001c15a9f","5fef55e628823a0076ec12ee","6018cb32c586911d7f87d842","Mozilla/5.0 (Windows NT 10.0; Win64; x64) AppleWebKit/537.36 (KHTML, like Gecko) Chrome/87.0.4280.101 Safari/537.36","13192.719999991823","<div><h1>Welcome!</h1><p>Press any key to continue.</p></div>","32","","","","","","","","","","","","","",""
"consent-form","2","51710","0.0-2.0","5ab308940527ba0001c15a9f","5fef55e628823a0076ec12ee","6018cb32c586911d7f87d842","Mozilla/5.0 (Windows NT 10.0; Win64; x64) AppleWebKit/537.36 (KHTML, like Gecko) Chrome/87.0.4280.101 Safari/537.36","","","","","","","","","","","","","","","","",""
"keyset-select","3","72551","0.0-3.0","5ab308940527ba0001c15a9f","5fef55e628823a0076ec12ee","6018cb32c586911d7f87d842","Mozilla/5.0 (Windows NT 10.0; Win64; x64) AppleWebKit/537.36 (KHTML, like Gecko) Chrome/87.0.4280.101 Safari/537.36","","","","left-hand","","","","","","","","","","","","",""
"headphone-check","4","123743","0.0-4.0","5ab308940527ba0001c15a9f","5fef55e628823a0076ec12ee","6018cb32c586911d7f87d842","Mozilla/5.0 (Windows NT 10.0; Win64; x64) AppleWebKit/537.36 (KHTML, like Gecko) Chrome/87.0.4280.101 Safari/537.36","","","","","0","6","0.7","","","","","","","","","",""
"headphone-backwards-check","5","131759","0.0-5.0","5ab308940527ba0001c15a9f","5fef55e628823a0076ec12ee","6018cb32c586911d7f87d842","Mozilla/5.0 (Windows NT 10.0; Win64; x64) AppleWebKit/537.36 (KHTML, like Gecko) Chrome/87.0.4280.101 Safari/537.36","","","","","0","","","","","","","","","","","",""
"training","6","202157","0.0-6.0","5ab308940527ba0001c15a9f","5fef55e628823a0076ec12ee","6018cb32c586911d7f87d842","Mozilla/5.0 (Windows NT 10.0; Win64; x64) AppleWebKit/537.36 (KHTML, like Gecko) Chrome/87.0.4280.101 Safari/537.36","","","","","","","","","","","","","","","","",""
"block-bookend","7","215101","0.0-7.0","5ab308940527ba0001c15a9f","5fef55e628823a0076ec12ee","6018cb32c586911d7f87d842","Mozilla/5.0 (Windows NT 10.0; Win64; x64) AppleWebKit/537.36 (KHTML, like Gecko) Chrome/87.0.4280.101 Safari/537.36","","","","","","","","","","","","","","","","",""
"echo-presentation","8","222970","0.0-8.0","5ab308940527ba0001c15a9f","5fef55e628823a0076ec12ee","6018cb32c586911d7f87d842","Mozilla/5.0 (Windows NT 10.0; Win64; x64) AppleWebKit/537.36 (KHTML, like Gecko) Chrome/87.0.4280.101 Safari/537.36","","","","","","","","-10,-5,0,5,10","media/audio/stims/spherical_300cm_s20_c20_cd-full_matched_a5.wav","spherical","20","20","full","matched","5","-5","5490"
"echo-presentation","9","228102","0.0-9.0","5ab308940527ba0001c15a9f","5fef55e628823a0076ec12ee","6018cb32c586911d7f87d842","Mozilla/5.0 (Windows NT 10.0; Win64; x64) AppleWebKit/537.36 (KHTML, like Gecko) Chrome/87.0.4280.101 Safari/537.36","","","","","","","","-10,-5,0,5,10","media/audio/stims/spherical_300cm_s20_c20_cd-full_matched_a10.wav","spherical","20","20","full","matched","10","5","2439"
"echo-presentation","10","231714","0.0-10.0","5ab308940527ba0001c15a9f","5fef55e628823a0076ec12ee","6018cb32c586911d7f87d842","Mozilla/5.0 (Windows NT 10.0; Win64; x64) AppleWebKit/537.36 (KHTML, like Gecko) Chrome/87.0.4280.101 Safari/537.36","","","","","","","","-10,-5,0,5,10","media/audio/stims/spherical_300cm_s20_c20_cd-full_matched_a-10.wav","spherical","20","20","full","matched","-10","0","2318"
"echo-presentation","11","234665","0.0-11.0","5ab308940527ba0001c15a9f","5fef55e628823a0076ec12ee","6018cb32c586911d7f87d842","Mozilla/5.0 (Windows NT 10.0; Win64; x64) AppleWebKit/537.36 (KHTML, like Gecko) Chrome/87.0.4280.101 Safari/537.36","","","","","","","","-10,-5,0,5,10","media/audio/stims/spherical_300cm_s20_c20_cd-full_matched_a0.wav","spherical","20","20","full","matched","0","5","1570"
"echo-presentation","12","238182","0.0-12.0","5ab308940527ba0001c15a9f","5fef55e628823a0076ec12ee","6018cb32c586911d7f87d842","Mozilla/5.0 (Windows NT 10.0; Win64; x64) AppleWebKit/537.36 (KHTML, like Gecko) Chrome/87.0.4280.101 Safari/537.36","","","","","","","","-10,-5,0,5,10","media/audio/stims/spherical_300cm_s20_c20_cd-full_matched_a0.wav","spherical","20","20","full","matched","0","5","1999"
"echo-presentation","13","242067","0.0-13.0","5ab308940527ba0001c15a9f","5fef55e628823a0076ec12ee","6018cb32c586911d7f87d842","Mozilla/5.0 (Windows NT 10.0; Win64; x64) AppleWebKit/537.36 (KHTML, like Gecko) Chrome/87.0.4280.101 Safari/537.36","","","","","","","","-10,-5,0,5,10","media/audio/stims/spherical_300cm_s20_c20_cd-full_matched_a-5.wav","spherical","20","20","full","matched","-5","5","2632"
"echo-presentation","14","245490","0.0-14.0","5ab308940527ba0001c15a9f","5fef55e628823a0076ec12ee","6018cb32c586911d7f87d842","Mozilla/5.0 (Windows NT 10.0; Win64; x64) AppleWebKit/537.36 (KHTML, like Gecko) Chrome/87.0.4280.101 Safari/537.36","","","","","","","","-10,-5,0,5,10","media/audio/stims/spherical_300cm_s20_c20_cd-full_matched_a-10.wav","spherical","20","20","full","matched","-10","0","1544"
"echo-presentation","15","248625","0.0-15.0","5ab308940527ba0001c15a9f","5fef55e628823a0076ec12ee","6018cb32c586911d7f87d842","Mozilla/5.0 (Windows NT 10.0; Win64; x64) AppleWebKit/537.36 (KHTML, like Gecko) Chrome/87.0.4280.101 Safari/537.36","","","","","","","","-10,-5,0,5,10","media/audio/stims/spherical_300cm_s20_c20_cd-full_matched_a0.wav","spherical","20","20","full","matched","0","0","2016"
"echo-presentation","16","253318","0.0-16.0","5ab308940527ba0001c15a9f","5fef55e628823a0076ec12ee","6018cb32c586911d7f87d842","Mozilla/5.0 (Windows NT 10.0; Win64; x64) AppleWebKit/537.36 (KHTML, like Gecko) Chrome/87.0.4280.101 Safari/537.36","","","","","","","","-10,-5,0,5,10","media/audio/stims/spherical_300cm_s20_c20_cd-full_matched_a-5.wav","spherical","20","20","full","matched","-5","-5","1478"
"echo-presentation","17","256134","0.0-17.0","5ab308940527ba0001c15a9f","5fef55e628823a0076ec12ee","6018cb32c586911d7f87d842","Mozilla/5.0 (Windows NT 10.0; Win64; x64) AppleWebKit/537.36 (KHTML, like Gecko) Chrome/87.0.4280.101 Safari/537.36","","","","","","","","-10,-5,0,5,10","media/audio/stims/spherical_300cm_s20_c20_cd-full_matched_a10.wav","spherical","20","20","full","matched","10","5","1771"
"echo-presentation","18","258462","0.0-18.0","5ab308940527ba0001c15a9f","5fef55e628823a0076ec12ee","6018cb32c586911d7f87d842","Mozilla/5.0 (Windows NT 10.0; Win64; x64) AppleWebKit/537.36 (KHTML, like Gecko) Chrome/87.0.4280.101 Safari/537.36","","","","","","","","-10,-5,0,5,10","media/audio/stims/spherical_300cm_s20_c20_cd-full_matched_a5.wav","spherical","20","20","full","matched","5","0","1431"
"echo-presentation","19","260428","0.0-19.0","5ab308940527ba0001c15a9f","5fef55e628823a0076ec12ee","6018cb32c586911d7f87d842","Mozilla/5.0 (Windows NT 10.0; Win64; x64) AppleWebKit/537.36 (KHTML, like Gecko) Chrome/87.0.4280.101 Safari/537.36","","","","","","","","-10,-5,0,5,10","media/audio/stims/spherical_300cm_s20_c20_cd-full_matched_a10.wav","spherical","20","20","full","matched","10","0","1075"
"echo-presentation","20","263181","0.0-20.0","5ab308940527ba0001c15a9f","5fef55e628823a0076ec12ee","6018cb32c586911d7f87d842","Mozilla/5.0 (Windows NT 10.0; Win64; x64) AppleWebKit/537.36 (KHTML, like Gecko) Chrome/87.0.4280.101 Safari/537.36","","","","","","","","-10,-5,0,5,10","media/audio/stims/spherical_300cm_s20_c20_cd-full_matched_a5.wav","spherical","20","20","full","matched","5","5","1873"
"echo-presentation","21","267582","0.0-21.0","5ab308940527ba0001c15a9f","5fef55e628823a0076ec12ee","6018cb32c586911d7f87d842","Mozilla/5.0 (Windows NT 10.0; Win64; x64) AppleWebKit/537.36 (KHTML, like Gecko) Chrome/87.0.4280.101 Safari/537.36","","","","","","","","-10,-5,0,5,10","media/audio/stims/spherical_300cm_s20_c20_cd-full_matched_a-10.wav","spherical","20","20","full","matched","-10","5","2185"
"echo-presentation","22","271860","0.0-22.0","5ab308940527ba0001c15a9f","5fef55e628823a0076ec12ee","6018cb32c586911d7f87d842","Mozilla/5.0 (Windows NT 10.0; Win64; x64) AppleWebKit/537.36 (KHTML, like Gecko) Chrome/87.0.4280.101 Safari/537.36","","","","","","","","-10,-5,0,5,10","media/audio/stims/spherical_300cm_s20_c20_cd-full_matched_a-10.wav","spherical","20","20","full","matched","-10","0","1433"
"echo-presentation","23","275005","0.0-23.0","5ab308940527ba0001c15a9f","5fef55e628823a0076ec12ee","6018cb32c586911d7f87d842","Mozilla/5.0 (Windows NT 10.0; Win64; x64) AppleWebKit/537.36 (KHTML, like Gecko) Chrome/87.0.4280.101 Safari/537.36","","","","","","","","-10,-5,0,5,10","media/audio/stims/spherical_300cm_s20_c20_cd-full_matched_a-5.wav","spherical","20","20","full","matched","-5","-5","2136"
"echo-presentation","24","279575","0.0-24.0","5ab308940527ba0001c15a9f","5fef55e628823a0076ec12ee","6018cb32c586911d7f87d842","Mozilla/5.0 (Windows NT 10.0; Win64; x64) AppleWebKit/537.36 (KHTML, like Gecko) Chrome/87.0.4280.101 Safari/537.36","","","","","","","","-10,-5,0,5,10","media/audio/stims/spherical_300cm_s20_c20_cd-full_matched_a5.wav","spherical","20","20","full","matched","5","0","3467"
"echo-presentation","25","281561","0.0-25.0","5ab308940527ba0001c15a9f","5fef55e628823a0076ec12ee","6018cb32c586911d7f87d842","Mozilla/5.0 (Windows NT 10.0; Win64; x64) AppleWebKit/537.36 (KHTML, like Gecko) Chrome/87.0.4280.101 Safari/537.36","","","","","","","","-10,-5,0,5,10","media/audio/stims/spherical_300cm_s20_c20_cd-full_matched_a10.wav","spherical","20","20","full","matched","10","-5","1174"
"echo-presentation","26","284261","0.0-26.0","5ab308940527ba0001c15a9f","5fef55e628823a0076ec12ee","6018cb32c586911d7f87d842","Mozilla/5.0 (Windows NT 10.0; Win64; x64) AppleWebKit/537.36 (KHTML, like Gecko) Chrome/87.0.4280.101 Safari/537.36","","","","","","","","-10,-5,0,5,10","media/audio/stims/spherical_300cm_s20_c20_cd-full_matched_a0.wav","spherical","20","20","full","matched","0","5","1729"
"echo-presentation","27","288437","0.0-27.0","5ab308940527ba0001c15a9f","5fef55e628823a0076ec12ee","6018cb32c586911d7f87d842","Mozilla/5.0 (Windows NT 10.0; Win64; x64) AppleWebKit/537.36 (KHTML, like Gecko) Chrome/87.0.4280.101 Safari/537.36","","","","","","","","-10,-5,0,5,10","media/audio/stims/spherical_300cm_s20_c20_cd-full_matched_a-5.wav","spherical","20","20","full","matched","-5","-5","3108"
"block-bookend","28","297141","0.0-28.0","5ab308940527ba0001c15a9f","5fef55e628823a0076ec12ee","6018cb32c586911d7f87d842","Mozilla/5.0 (Windows NT 10.0; Win64; x64) AppleWebKit/537.36 (KHTML, like Gecko) Chrome/87.0.4280.101 Safari/537.36","","","","","","","","","","","","","","","","",""
"block-bookend","29","307542","0.0-29.0","5ab308940527ba0001c15a9f","5fef55e628823a0076ec12ee","6018cb32c586911d7f87d842","Mozilla/5.0 (Windows NT 10.0; Win64; x64) AppleWebKit/537.36 (KHTML, like Gecko) Chrome/87.0.4280.101 Safari/537.36","","","","","","","","","","","","","","","","",""
"echo-presentation","30","312629","0.0-30.0","5ab308940527ba0001c15a9f","5fef55e628823a0076ec12ee","6018cb32c586911d7f87d842","Mozilla/5.0 (Windows NT 10.0; Win64; x64) AppleWebKit/537.36 (KHTML, like Gecko) Chrome/87.0.4280.101 Safari/537.36","","","","","","","","-10,-5,0,5,10","media/audio/stims/spherical_300cm_s20_c20_cd-full_matched_a-5.wav","spherical","20","20","full","matched","-5","-10","2669"
"echo-presentation","31","316285","0.0-31.0","5ab308940527ba0001c15a9f","5fef55e628823a0076ec12ee","6018cb32c586911d7f87d842","Mozilla/5.0 (Windows NT 10.0; Win64; x64) AppleWebKit/537.36 (KHTML, like Gecko) Chrome/87.0.4280.101 Safari/537.36","","","","","","","","-10,-5,0,5,10","media/audio/stims/spherical_300cm_s20_c20_cd-full_matched_a-10.wav","spherical","20","20","full","matched","-10","0","2521"
"echo-presentation","32","319425","0.0-32.0","5ab308940527ba0001c15a9f","5fef55e628823a0076ec12ee","6018cb32c586911d7f87d842","Mozilla/5.0 (Windows NT 10.0; Win64; x64) AppleWebKit/537.36 (KHTML, like Gecko) Chrome/87.0.4280.101 Safari/537.36","","","","","","","","-10,-5,0,5,10","media/audio/stims/spherical_300cm_s20_c20_cd-full_matched_a5.wav","spherical","20","20","full","matched","5","0","1916"
"echo-presentation","33","322155","0.0-33.0","5ab308940527ba0001c15a9f","5fef55e628823a0076ec12ee","6018cb32c586911d7f87d842","Mozilla/5.0 (Windows NT 10.0; Win64; x64) AppleWebKit/537.36 (KHTML, like Gecko) Chrome/87.0.4280.101 Safari/537.36","","","","","","","","-10,-5,0,5,10","media/audio/stims/spherical_300cm_s20_c20_cd-full_matched_a0.wav","spherical","20","20","full","matched","0","5","1606"
"echo-presentation","34","324226","0.0-34.0","5ab308940527ba0001c15a9f","5fef55e628823a0076ec12ee","6018cb32c586911d7f87d842","Mozilla/5.0 (Windows NT 10.0; Win64; x64) AppleWebKit/537.36 (KHTML, like Gecko) Chrome/87.0.4280.101 Safari/537.36","","","","","","","","-10,-5,0,5,10","media/audio/stims/spherical_300cm_s20_c20_cd-full_matched_a5.wav","spherical","20","20","full","matched","5","-5","1177"
"echo-presentation","35","326172","0.0-35.0","5ab308940527ba0001c15a9f","5fef55e628823a0076ec12ee","6018cb32c586911d7f87d842","Mozilla/5.0 (Windows NT 10.0; Win64; x64) AppleWebKit/537.36 (KHTML, like Gecko) Chrome/87.0.4280.101 Safari/537.36","","","","","","","","-10,-5,0,5,10","media/audio/stims/spherical_300cm_s20_c20_cd-full_matched_a-5.wav","spherical","20","20","full","matched","-5","0","1119"
"echo-presentation","36","330603","0.0-36.0","5ab308940527ba0001c15a9f","5fef55e628823a0076ec12ee","6018cb32c586911d7f87d842","Mozilla/5.0 (Windows NT 10.0; Win64; x64) AppleWebKit/537.36 (KHTML, like Gecko) Chrome/87.0.4280.101 Safari/537.36","","","","","","","","-10,-5,0,5,10","media/audio/stims/spherical_300cm_s20_c20_cd-full_matched_a10.wav","spherical","20","20","full","matched","10","10","3626"
"echo-presentation","37","333974","0.0-37.0","5ab308940527ba0001c15a9f","5fef55e628823a0076ec12ee","6018cb32c586911d7f87d842","Mozilla/5.0 (Windows NT 10.0; Win64; x64) AppleWebKit/537.36 (KHTML, like Gecko) Chrome/87.0.4280.101 Safari/537.36","","","","","","","","-10,-5,0,5,10","media/audio/stims/spherical_300cm_s20_c20_cd-full_matched_a10.wav","spherical","20","20","full","matched","10","0","1627"
"echo-presentation","38","336278","0.0-38.0","5ab308940527ba0001c15a9f","5fef55e628823a0076ec12ee","6018cb32c586911d7f87d842","Mozilla/5.0 (Windows NT 10.0; Win64; x64) AppleWebKit/537.36 (KHTML, like Gecko) Chrome/87.0.4280.101 Safari/537.36","","","","","","","","-10,-5,0,5,10","media/audio/stims/spherical_300cm_s20_c20_cd-full_matched_a0.wav","spherical","20","20","full","matched","0","5","1512"
"echo-presentation","39","338900","0.0-39.0","5ab308940527ba0001c15a9f","5fef55e628823a0076ec12ee","6018cb32c586911d7f87d842","Mozilla/5.0 (Windows NT 10.0; Win64; x64) AppleWebKit/537.36 (KHTML, like Gecko) Chrome/87.0.4280.101 Safari/537.36","","","","","","","","-10,-5,0,5,10","media/audio/stims/spherical_300cm_s20_c20_cd-full_matched_a-10.wav","spherical","20","20","full","matched","-10","0","1702"
"echo-presentation","40","341270","0.0-40.0","5ab308940527ba0001c15a9f","5fef55e628823a0076ec12ee","6018cb32c586911d7f87d842","Mozilla/5.0 (Windows NT 10.0; Win64; x64) AppleWebKit/537.36 (KHTML, like Gecko) Chrome/87.0.4280.101 Safari/537.36","","","","","","","","-10,-5,0,5,10","media/audio/stims/spherical_300cm_s20_c20_cd-full_matched_a0.wav","spherical","20","20","full","matched","0","0","1350"
"echo-presentation","41","343430","0.0-41.0","5ab308940527ba0001c15a9f","5fef55e628823a0076ec12ee","6018cb32c586911d7f87d842","Mozilla/5.0 (Windows NT 10.0; Win64; x64) AppleWebKit/537.36 (KHTML, like Gecko) Chrome/87.0.4280.101 Safari/537.36","","","","","","","","-10,-5,0,5,10","media/audio/stims/spherical_300cm_s20_c20_cd-full_matched_a5.wav","spherical","20","20","full","matched","5","5","1339"
"echo-presentation","42","345167","0.0-42.0","5ab308940527ba0001c15a9f","5fef55e628823a0076ec12ee","6018cb32c586911d7f87d842","Mozilla/5.0 (Windows NT 10.0; Win64; x64) AppleWebKit/537.36 (KHTML, like Gecko) Chrome/87.0.4280.101 Safari/537.36","","","","","","","","-10,-5,0,5,10","media/audio/stims/spherical_300cm_s20_c20_cd-full_matched_a10.wav","spherical","20","20","full","matched","10","0","860"
"echo-presentation","43","348079","0.0-43.0","5ab308940527ba0001c15a9f","5fef55e628823a0076ec12ee","6018cb32c586911d7f87d842","Mozilla/5.0 (Windows NT 10.0; Win64; x64) AppleWebKit/537.36 (KHTML, like Gecko) Chrome/87.0.4280.101 Safari/537.36","","","","","","","","-10,-5,0,5,10","media/audio/stims/spherical_300cm_s20_c20_cd-full_matched_a5.wav","spherical","20","20","full","matched","5","5","1909"
"echo-presentation","44","350728","0.0-44.0","5ab308940527ba0001c15a9f","5fef55e628823a0076ec12ee","6018cb32c586911d7f87d842","Mozilla/5.0 (Windows NT 10.0; Win64; x64) AppleWebKit/537.36 (KHTML, like Gecko) Chrome/87.0.4280.101 Safari/537.36","","","","","","","","-10,-5,0,5,10","media/audio/stims/spherical_300cm_s20_c20_cd-full_matched_a-5.wav","spherical","20","20","full","matched","-5","5","1500"
"echo-presentation","45","354645","0.0-45.0","5ab308940527ba0001c15a9f","5fef55e628823a0076ec12ee","6018cb32c586911d7f87d842","Mozilla/5.0 (Windows NT 10.0; Win64; x64) AppleWebKit/537.36 (KHTML, like Gecko) Chrome/87.0.4280.101 Safari/537.36","","","","","","","","-10,-5,0,5,10","media/audio/stims/spherical_300cm_s20_c20_cd-full_matched_a-5.wav","spherical","20","20","full","matched","-5","5","1187"
"echo-presentation","46","357102","0.0-46.0","5ab308940527ba0001c15a9f","5fef55e628823a0076ec12ee","6018cb32c586911d7f87d842","Mozilla/5.0 (Windows NT 10.0; Win64; x64) AppleWebKit/537.36 (KHTML, like Gecko) Chrome/87.0.4280.101 Safari/537.36","","","","","","","","-10,-5,0,5,10","media/audio/stims/spherical_300cm_s20_c20_cd-full_matched_a10.wav","spherical","20","20","full","matched","10","0","1408"
"echo-presentation","47","359382","0.0-47.0","5ab308940527ba0001c15a9f","5fef55e628823a0076ec12ee","6018cb32c586911d7f87d842","Mozilla/5.0 (Windows NT 10.0; Win64; x64) AppleWebKit/537.36 (KHTML, like Gecko) Chrome/87.0.4280.101 Safari/537.36","","","","","","","","-10,-5,0,5,10","media/audio/stims/spherical_300cm_s20_c20_cd-full_matched_a-10.wav","spherical","20","20","full","matched","-10","5","1633"
"echo-presentation","48","361772","0.0-48.0","5ab308940527ba0001c15a9f","5fef55e628823a0076ec12ee","6018cb32c586911d7f87d842","Mozilla/5.0 (Windows NT 10.0; Win64; x64) AppleWebKit/537.36 (KHTML, like Gecko) Chrome/87.0.4280.101 Safari/537.36","","","","","","","","-10,-5,0,5,10","media/audio/stims/spherical_300cm_s20_c20_cd-full_matched_a-10.wav","spherical","20","20","full","matched","-10","0","1337"
"echo-presentation","49","364165","0.0-49.0","5ab308940527ba0001c15a9f","5fef55e628823a0076ec12ee","6018cb32c586911d7f87d842","Mozilla/5.0 (Windows NT 10.0; Win64; x64) AppleWebKit/537.36 (KHTML, like Gecko) Chrome/87.0.4280.101 Safari/537.36","","","","","","","","-10,-5,0,5,10","media/audio/stims/spherical_300cm_s20_c20_cd-full_matched_a0.wav","spherical","20","20","full","matched","0","5","1451"
"block-bookend","50","391029","0.0-50.0","5ab308940527ba0001c15a9f","5fef55e628823a0076ec12ee","6018cb32c586911d7f87d842","Mozilla/5.0 (Windows NT 10.0; Win64; x64) AppleWebKit/537.36 (KHTML, like Gecko) Chrome/87.0.4280.101 Safari/537.36","","","","","","","","","","","","","","","","",""
"block-bookend","51","401525","0.0-51.0","5ab308940527ba0001c15a9f","5fef55e628823a0076ec12ee","6018cb32c586911d7f87d842","Mozilla/5.0 (Windows NT 10.0; Win64; x64) AppleWebKit/537.36 (KHTML, like Gecko) Chrome/87.0.4280.101 Safari/537.36","","","","","","","","","","","","","","","","",""
"echo-presentation","52","405758","0.0-52.0","5ab308940527ba0001c15a9f","5fef55e628823a0076ec12ee","6018cb32c586911d7f87d842","Mozilla/5.0 (Windows NT 10.0; Win64; x64) AppleWebKit/537.36 (KHTML, like Gecko) Chrome/87.0.4280.101 Safari/537.36","","","","","","","","-70,-65,-60,-55,-50","media/audio/stims/spherical_300cm_s20_c20_cd-full_matched_a-50.wav","spherical","20","20","full","matched","-50","-55","2426"
"echo-presentation","53","408190","0.0-53.0","5ab308940527ba0001c15a9f","5fef55e628823a0076ec12ee","6018cb32c586911d7f87d842","Mozilla/5.0 (Windows NT 10.0; Win64; x64) AppleWebKit/537.36 (KHTML, like Gecko) Chrome/87.0.4280.101 Safari/537.36","","","","","","","","-70,-65,-60,-55,-50","media/audio/stims/spherical_300cm_s20_c20_cd-full_matched_a-70.wav","spherical","20","20","full","matched","-70","-50","1465"
"echo-presentation","54","410285","0.0-54.0","5ab308940527ba0001c15a9f","5fef55e628823a0076ec12ee","6018cb32c586911d7f87d842","Mozilla/5.0 (Windows NT 10.0; Win64; x64) AppleWebKit/537.36 (KHTML, like Gecko) Chrome/87.0.4280.101 Safari/537.36","","","","","","","","-70,-65,-60,-55,-50","media/audio/stims/spherical_300cm_s20_c20_cd-full_matched_a-65.wav","spherical","20","20","full","matched","-65","-55","1200"
"echo-presentation","55","412714","0.0-55.0","5ab308940527ba0001c15a9f","5fef55e628823a0076ec12ee","6018cb32c586911d7f87d842","Mozilla/5.0 (Windows NT 10.0; Win64; x64) AppleWebKit/537.36 (KHTML, like Gecko) Chrome/87.0.4280.101 Safari/537.36","","","","","","","","-70,-65,-60,-55,-50","media/audio/stims/spherical_300cm_s20_c20_cd-full_matched_a-70.wav","spherical","20","20","full","matched","-70","-55","1545"
"echo-presentation","56","415725","0.0-56.0","5ab308940527ba0001c15a9f","5fef55e628823a0076ec12ee","6018cb32c586911d7f87d842","Mozilla/5.0 (Windows NT 10.0; Win64; x64) AppleWebKit/537.36 (KHTML, like Gecko) Chrome/87.0.4280.101 Safari/537.36","","","","","","","","-70,-65,-60,-55,-50","media/audio/stims/spherical_300cm_s20_c20_cd-full_matched_a-55.wav","spherical","20","20","full","matched","-55","-65","2084"
"echo-presentation","57","418158","0.0-57.0","5ab308940527ba0001c15a9f","5fef55e628823a0076ec12ee","6018cb32c586911d7f87d842","Mozilla/5.0 (Windows NT 10.0; Win64; x64) AppleWebKit/537.36 (KHTML, like Gecko) Chrome/87.0.4280.101 Safari/537.36","","","","","","","","-70,-65,-60,-55,-50","media/audio/stims/spherical_300cm_s20_c20_cd-full_matched_a-65.wav","spherical","20","20","full","matched","-65","-55","1410"
"echo-presentation","58","423157","0.0-58.0","5ab308940527ba0001c15a9f","5fef55e628823a0076ec12ee","6018cb32c586911d7f87d842","Mozilla/5.0 (Windows NT 10.0; Win64; x64) AppleWebKit/537.36 (KHTML, like Gecko) Chrome/87.0.4280.101 Safari/537.36","","","","","","","","-70,-65,-60,-55,-50","media/audio/stims/spherical_300cm_s20_c20_cd-full_matched_a-50.wav","spherical","20","20","full","matched","-50","-60","1694"
"echo-presentation","59","425379","0.0-59.0","5ab308940527ba0001c15a9f","5fef55e628823a0076ec12ee","6018cb32c586911d7f87d842","Mozilla/5.0 (Windows NT 10.0; Win64; x64) AppleWebKit/537.36 (KHTML, like Gecko) Chrome/87.0.4280.101 Safari/537.36","","","","","","","","-70,-65,-60,-55,-50","media/audio/stims/spherical_300cm_s20_c20_cd-full_matched_a-70.wav","spherical","20","20","full","matched","-70","-55","1327"
"echo-presentation","60","427404","0.0-60.0","5ab308940527ba0001c15a9f","5fef55e628823a0076ec12ee","6018cb32c586911d7f87d842","Mozilla/5.0 (Windows NT 10.0; Win64; x64) AppleWebKit/537.36 (KHTML, like Gecko) Chrome/87.0.4280.101 Safari/537.36","","","","","","","","-70,-65,-60,-55,-50","media/audio/stims/spherical_300cm_s20_c20_cd-full_matched_a-70.wav","spherical","20","20","full","matched","-70","-70","987"
"echo-presentation","61","431228","0.0-61.0","5ab308940527ba0001c15a9f","5fef55e628823a0076ec12ee","6018cb32c586911d7f87d842","Mozilla/5.0 (Windows NT 10.0; Win64; x64) AppleWebKit/537.36 (KHTML, like Gecko) Chrome/87.0.4280.101 Safari/537.36","","","","","","","","-70,-65,-60,-55,-50","media/audio/stims/spherical_300cm_s20_c20_cd-full_matched_a-60.wav","spherical","20","20","full","matched","-60","-65","2610"
"echo-presentation","62","436238","0.0-62.0","5ab308940527ba0001c15a9f","5fef55e628823a0076ec12ee","6018cb32c586911d7f87d842","Mozilla/5.0 (Windows NT 10.0; Win64; x64) AppleWebKit/537.36 (KHTML, like Gecko) Chrome/87.0.4280.101 Safari/537.36","","","","","","","","-70,-65,-60,-55,-50","media/audio/stims/spherical_300cm_s20_c20_cd-full_matched_a-60.wav","spherical","20","20","full","matched","-60","-60","3925"
"echo-presentation","63","439110","0.0-63.0","5ab308940527ba0001c15a9f","5fef55e628823a0076ec12ee","6018cb32c586911d7f87d842","Mozilla/5.0 (Windows NT 10.0; Win64; x64) AppleWebKit/537.36 (KHTML, like Gecko) Chrome/87.0.4280.101 Safari/537.36","","","","","","","","-70,-65,-60,-55,-50","media/audio/stims/spherical_300cm_s20_c20_cd-full_matched_a-55.wav","spherical","20","20","full","matched","-55","-60","1112"
"echo-presentation","64","441749","0.0-64.0","5ab308940527ba0001c15a9f","5fef55e628823a0076ec12ee","6018cb32c586911d7f87d842","Mozilla/5.0 (Windows NT 10.0; Win64; x64) AppleWebKit/537.36 (KHTML, like Gecko) Chrome/87.0.4280.101 Safari/537.36","","","","","","","","-70,-65,-60,-55,-50","media/audio/stims/spherical_300cm_s20_c20_cd-full_matched_a-50.wav","spherical","20","20","full","matched","-50","-55","1795"
"echo-presentation","65","444140","0.0-65.0","5ab308940527ba0001c15a9f","5fef55e628823a0076ec12ee","6018cb32c586911d7f87d842","Mozilla/5.0 (Windows NT 10.0; Win64; x64) AppleWebKit/537.36 (KHTML, like Gecko) Chrome/87.0.4280.101 Safari/537.36","","","","","","","","-70,-65,-60,-55,-50","media/audio/stims/spherical_300cm_s20_c20_cd-full_matched_a-55.wav","spherical","20","20","full","matched","-55","-65","1528"
"echo-presentation","66","449619","0.0-66.0","5ab308940527ba0001c15a9f","5fef55e628823a0076ec12ee","6018cb32c586911d7f87d842","Mozilla/5.0 (Windows NT 10.0; Win64; x64) AppleWebKit/537.36 (KHTML, like Gecko) Chrome/87.0.4280.101 Safari/537.36","","","","","","","","-70,-65,-60,-55,-50","media/audio/stims/spherical_300cm_s20_c20_cd-full_matched_a-60.wav","spherical","20","20","full","matched","-60","-65","2144"
"echo-presentation","67","452879","0.0-67.0","5ab308940527ba0001c15a9f","5fef55e628823a0076ec12ee","6018cb32c586911d7f87d842","Mozilla/5.0 (Windows NT 10.0; Win64; x64) AppleWebKit/537.36 (KHTML, like Gecko) Chrome/87.0.4280.101 Safari/537.36","","","","","","","","-70,-65,-60,-55,-50","media/audio/stims/spherical_300cm_s20_c20_cd-full_matched_a-65.wav","spherical","20","20","full","matched","-65","-60","2308"
"echo-presentation","68","455300","0.0-68.0","5ab308940527ba0001c15a9f","5fef55e628823a0076ec12ee","6018cb32c586911d7f87d842","Mozilla/5.0 (Windows NT 10.0; Win64; x64) AppleWebKit/537.36 (KHTML, like Gecko) Chrome/87.0.4280.101 Safari/537.36","","","","","","","","-70,-65,-60,-55,-50","media/audio/stims/spherical_300cm_s20_c20_cd-full_matched_a-60.wav","spherical","20","20","full","matched","-60","-65","1136"
"echo-presentation","69","457389","0.0-69.0","5ab308940527ba0001c15a9f","5fef55e628823a0076ec12ee","6018cb32c586911d7f87d842","Mozilla/5.0 (Windows NT 10.0; Win64; x64) AppleWebKit/537.36 (KHTML, like Gecko) Chrome/87.0.4280.101 Safari/537.36","","","","","","","","-70,-65,-60,-55,-50","media/audio/stims/spherical_300cm_s20_c20_cd-full_matched_a-50.wav","spherical","20","20","full","matched","-50","-55","1182"
"echo-presentation","70","460509","0.0-70.0","5ab308940527ba0001c15a9f","5fef55e628823a0076ec12ee","6018cb32c586911d7f87d842","Mozilla/5.0 (Windows NT 10.0; Win64; x64) AppleWebKit/537.36 (KHTML, like Gecko) Chrome/87.0.4280.101 Safari/537.36","","","","","","","","-70,-65,-60,-55,-50","media/audio/stims/spherical_300cm_s20_c20_cd-full_matched_a-65.wav","spherical","20","20","full","matched","-65","-60","2115"
"echo-presentation","71","463717","0.0-71.0","5ab308940527ba0001c15a9f","5fef55e628823a0076ec12ee","6018cb32c586911d7f87d842","Mozilla/5.0 (Windows NT 10.0; Win64; x64) AppleWebKit/537.36 (KHTML, like Gecko) Chrome/87.0.4280.101 Safari/537.36","","","","","","","","-70,-65,-60,-55,-50","media/audio/stims/spherical_300cm_s20_c20_cd-full_matched_a-55.wav","spherical","20","20","full","matched","-55","-55","2168"
"block-bookend","72","527621","0.0-72.0","5ab308940527ba0001c15a9f","5fef55e628823a0076ec12ee","6018cb32c586911d7f87d842","Mozilla/5.0 (Windows NT 10.0; Win64; x64) AppleWebKit/537.36 (KHTML, like Gecko) Chrome/87.0.4280.101 Safari/537.36","","","","","","","","","","","","","","","","",""
"block-bookend","73","536526","0.0-73.0","5ab308940527ba0001c15a9f","5fef55e628823a0076ec12ee","6018cb32c586911d7f87d842","Mozilla/5.0 (Windows NT 10.0; Win64; x64) AppleWebKit/537.36 (KHTML, like Gecko) Chrome/87.0.4280.101 Safari/537.36","","","","","","","","","","","","","","","","",""
"echo-presentation","74","540012","0.0-74.0","5ab308940527ba0001c15a9f","5fef55e628823a0076ec12ee","6018cb32c586911d7f87d842","Mozilla/5.0 (Windows NT 10.0; Win64; x64) AppleWebKit/537.36 (KHTML, like Gecko) Chrome/87.0.4280.101 Safari/537.36","","","","","","","","50,55,60,65,70","media/audio/stims/spherical_300cm_s20_c20_cd-full_matched_a65.wav","spherical","20","20","full","matched","65","65","2093"
"echo-presentation","75","541932","0.0-75.0","5ab308940527ba0001c15a9f","5fef55e628823a0076ec12ee","6018cb32c586911d7f87d842","Mozilla/5.0 (Windows NT 10.0; Win64; x64) AppleWebKit/537.36 (KHTML, like Gecko) Chrome/87.0.4280.101 Safari/537.36","","","","","","","","50,55,60,65,70","media/audio/stims/spherical_300cm_s20_c20_cd-full_matched_a60.wav","spherical","20","20","full","matched","60","65","1104"
"echo-presentation","76","544302","0.0-76.0","5ab308940527ba0001c15a9f","5fef55e628823a0076ec12ee","6018cb32c586911d7f87d842","Mozilla/5.0 (Windows NT 10.0; Win64; x64) AppleWebKit/537.36 (KHTML, like Gecko) Chrome/87.0.4280.101 Safari/537.36","","","","","","","","50,55,60,65,70","media/audio/stims/spherical_300cm_s20_c20_cd-full_matched_a70.wav","spherical","20","20","full","matched","70","70","1588"
"echo-presentation","77","546369","0.0-77.0","5ab308940527ba0001c15a9f","5fef55e628823a0076ec12ee","6018cb32c586911d7f87d842","Mozilla/5.0 (Windows NT 10.0; Win64; x64) AppleWebKit/537.36 (KHTML, like Gecko) Chrome/87.0.4280.101 Safari/537.36","","","","","","","","50,55,60,65,70","media/audio/stims/spherical_300cm_s20_c20_cd-full_matched_a65.wav","spherical","20","20","full","matched","65","55","1256"
"echo-presentation","78","548141","0.0-78.0","5ab308940527ba0001c15a9f","5fef55e628823a0076ec12ee","6018cb32c586911d7f87d842","Mozilla/5.0 (Windows NT 10.0; Win64; x64) AppleWebKit/537.36 (KHTML, like Gecko) Chrome/87.0.4280.101 Safari/537.36","","","","","","","","50,55,60,65,70","media/audio/stims/spherical_300cm_s20_c20_cd-full_matched_a55.wav","spherical","20","20","full","matched","55","55","985"
"echo-presentation","79","549787","0.0-79.0","5ab308940527ba0001c15a9f","5fef55e628823a0076ec12ee","6018cb32c586911d7f87d842","Mozilla/5.0 (Windows NT 10.0; Win64; x64) AppleWebKit/537.36 (KHTML, like Gecko) Chrome/87.0.4280.101 Safari/537.36","","","","","","","","50,55,60,65,70","media/audio/stims/spherical_300cm_s20_c20_cd-full_matched_a65.wav","spherical","20","20","full","matched","65","50","1094"
"echo-presentation","80","551205","0.0-80.0","5ab308940527ba0001c15a9f","5fef55e628823a0076ec12ee","6018cb32c586911d7f87d842","Mozilla/5.0 (Windows NT 10.0; Win64; x64) AppleWebKit/537.36 (KHTML, like Gecko) Chrome/87.0.4280.101 Safari/537.36","","","","","","","","50,55,60,65,70","media/audio/stims/spherical_300cm_s20_c20_cd-full_matched_a55.wav","spherical","20","20","full","matched","55","55","889"
"echo-presentation","81","554574","0.0-81.0","5ab308940527ba0001c15a9f","5fef55e628823a0076ec12ee","6018cb32c586911d7f87d842","Mozilla/5.0 (Windows NT 10.0; Win64; x64) AppleWebKit/537.36 (KHTML, like Gecko) Chrome/87.0.4280.101 Safari/537.36","","","","","","","","50,55,60,65,70","media/audio/stims/spherical_300cm_s20_c20_cd-full_matched_a50.wav","spherical","20","20","full","matched","50","65","2602"
"echo-presentation","82","556786","0.0-82.0","5ab308940527ba0001c15a9f","5fef55e628823a0076ec12ee","6018cb32c586911d7f87d842","Mozilla/5.0 (Windows NT 10.0; Win64; x64) AppleWebKit/537.36 (KHTML, like Gecko) Chrome/87.0.4280.101 Safari/537.36","","","","","","","","50,55,60,65,70","media/audio/stims/spherical_300cm_s20_c20_cd-full_matched_a70.wav","spherical","20","20","full","matched","70","65","1174"
"echo-presentation","83","559035","0.0-83.0","5ab308940527ba0001c15a9f","5fef55e628823a0076ec12ee","6018cb32c586911d7f87d842","Mozilla/5.0 (Windows NT 10.0; Win64; x64) AppleWebKit/537.36 (KHTML, like Gecko) Chrome/87.0.4280.101 Safari/537.36","","","","","","","","50,55,60,65,70","media/audio/stims/spherical_300cm_s20_c20_cd-full_matched_a60.wav","spherical","20","20","full","matched","60","65","1238"
"echo-presentation","84","560998","0.0-84.0","5ab308940527ba0001c15a9f","5fef55e628823a0076ec12ee","6018cb32c586911d7f87d842","Mozilla/5.0 (Windows NT 10.0; Win64; x64) AppleWebKit/537.36 (KHTML, like Gecko) Chrome/87.0.4280.101 Safari/537.36","","","","","","","","50,55,60,65,70","media/audio/stims/spherical_300cm_s20_c20_cd-full_matched_a60.wav","spherical","20","20","full","matched","60","60","1217"
"echo-presentation","85","563164","0.0-85.0","5ab308940527ba0001c15a9f","5fef55e628823a0076ec12ee","6018cb32c586911d7f87d842","Mozilla/5.0 (Windows NT 10.0; Win64; x64) AppleWebKit/537.36 (KHTML, like Gecko) Chrome/87.0.4280.101 Safari/537.36","","","","","","","","50,55,60,65,70","media/audio/stims/spherical_300cm_s20_c20_cd-full_matched_a60.wav","spherical","20","20","full","matched","60","60","998"
"echo-presentation","86","564855","0.0-86.0","5ab308940527ba0001c15a9f","5fef55e628823a0076ec12ee","6018cb32c586911d7f87d842","Mozilla/5.0 (Windows NT 10.0; Win64; x64) AppleWebKit/537.36 (KHTML, like Gecko) Chrome/87.0.4280.101 Safari/537.36","","","","","","","","50,55,60,65,70","media/audio/stims/spherical_300cm_s20_c20_cd-full_matched_a55.wav","spherical","20","20","full","matched","55","55","867"
"echo-presentation","87","568285","0.0-87.0","5ab308940527ba0001c15a9f","5fef55e628823a0076ec12ee","6018cb32c586911d7f87d842","Mozilla/5.0 (Windows NT 10.0; Win64; x64) AppleWebKit/537.36 (KHTML, like Gecko) Chrome/87.0.4280.101 Safari/537.36","","","","","","","","50,55,60,65,70","media/audio/stims/spherical_300cm_s20_c20_cd-full_matched_a55.wav","spherical","20","20","full","matched","55","60","2211"
"echo-presentation","88","571884","0.0-88.0","5ab308940527ba0001c15a9f","5fef55e628823a0076ec12ee","6018cb32c586911d7f87d842","Mozilla/5.0 (Windows NT 10.0; Win64; x64) AppleWebKit/537.36 (KHTML, like Gecko) Chrome/87.0.4280.101 Safari/537.36","","","","","","","","50,55,60,65,70","media/audio/stims/spherical_300cm_s20_c20_cd-full_matched_a65.wav","spherical","20","20","full","matched","65","60","2697"
"echo-presentation","89","576972","0.0-89.0","5ab308940527ba0001c15a9f","5fef55e628823a0076ec12ee","6018cb32c586911d7f87d842","Mozilla/5.0 (Windows NT 10.0; Win64; x64) AppleWebKit/537.36 (KHTML, like Gecko) Chrome/87.0.4280.101 Safari/537.36","","","","","","","","50,55,60,65,70","media/audio/stims/spherical_300cm_s20_c20_cd-full_matched_a50.wav","spherical","20","20","full","matched","50","70","4281"
"echo-presentation","90","580108","0.0-90.0","5ab308940527ba0001c15a9f","5fef55e628823a0076ec12ee","6018cb32c586911d7f87d842","Mozilla/5.0 (Windows NT 10.0; Win64; x64) AppleWebKit/537.36 (KHTML, like Gecko) Chrome/87.0.4280.101 Safari/537.36","","","","","","","","50,55,60,65,70","media/audio/stims/spherical_300cm_s20_c20_cd-full_matched_a70.wav","spherical","20","20","full","matched","70","60","1950"
"echo-presentation","91","583490","0.0-91.0","5ab308940527ba0001c15a9f","5fef55e628823a0076ec12ee","6018cb32c586911d7f87d842","Mozilla/5.0 (Windows NT 10.0; Win64; x64) AppleWebKit/537.36 (KHTML, like Gecko) Chrome/87.0.4280.101 Safari/537.36","","","","","","","","50,55,60,65,70","media/audio/stims/spherical_300cm_s20_c20_cd-full_matched_a50.wav","spherical","20","20","full","matched","50","55","2075"
"echo-presentation","92","585739","0.0-92.0","5ab308940527ba0001c15a9f","5fef55e628823a0076ec12ee","6018cb32c586911d7f87d842","Mozilla/5.0 (Windows NT 10.0; Win64; x64) AppleWebKit/537.36 (KHTML, like Gecko) Chrome/87.0.4280.101 Safari/537.36","","","","","","","","50,55,60,65,70","media/audio/stims/spherical_300cm_s20_c20_cd-full_matched_a50.wav","spherical","20","20","full","matched","50","55","1495"
"echo-presentation","93","588129","0.0-93.0","5ab308940527ba0001c15a9f","5fef55e628823a0076ec12ee","6018cb32c586911d7f87d842","Mozilla/5.0 (Windows NT 10.0; Win64; x64) AppleWebKit/537.36 (KHTML, like Gecko) Chrome/87.0.4280.101 Safari/537.36","","","","","","","","50,55,60,65,70","media/audio/stims/spherical_300cm_s20_c20_cd-full_matched_a70.wav","spherical","20","20","full","matched","70","65","1590"
"block-bookend","94","588942","0.0-94.0","5ab308940527ba0001c15a9f","5fef55e628823a0076ec12ee","6018cb32c586911d7f87d842","Mozilla/5.0 (Windows NT 10.0; Win64; x64) AppleWebKit/537.36 (KHTML, like Gecko) Chrome/87.0.4280.101 Safari/537.36","","","","","","","","","","","","","","","","",""
"block-bookend","95","594757","0.0-95.0","5ab308940527ba0001c15a9f","5fef55e628823a0076ec12ee","6018cb32c586911d7f87d842","Mozilla/5.0 (Windows NT 10.0; Win64; x64) AppleWebKit/537.36 (KHTML, like Gecko) Chrome/87.0.4280.101 Safari/537.36","","","","","","","","","","","","","","","","",""
"echo-presentation","96","597299","0.0-96.0","5ab308940527ba0001c15a9f","5fef55e628823a0076ec12ee","6018cb32c586911d7f87d842","Mozilla/5.0 (Windows NT 10.0; Win64; x64) AppleWebKit/537.36 (KHTML, like Gecko) Chrome/87.0.4280.101 Safari/537.36","","","","","","","","-70,-65,-60,-55,-50","media/audio/stims/spherical_300cm_s20_c20_cd-full_matched_a-50.wav","spherical","20","20","full","matched","-50","-65","1280"
"echo-presentation","97","599742","0.0-97.0","5ab308940527ba0001c15a9f","5fef55e628823a0076ec12ee","6018cb32c586911d7f87d842","Mozilla/5.0 (Windows NT 10.0; Win64; x64) AppleWebKit/537.36 (KHTML, like Gecko) Chrome/87.0.4280.101 Safari/537.36","","","","","","","","-70,-65,-60,-55,-50","media/audio/stims/spherical_300cm_s20_c20_cd-full_matched_a-65.wav","spherical","20","20","full","matched","-65","-65","1183"
"echo-presentation","98","601556","0.0-98.0","5ab308940527ba0001c15a9f","5fef55e628823a0076ec12ee","6018cb32c586911d7f87d842","Mozilla/5.0 (Windows NT 10.0; Win64; x64) AppleWebKit/537.36 (KHTML, like Gecko) Chrome/87.0.4280.101 Safari/537.36","","","","","","","","-70,-65,-60,-55,-50","media/audio/stims/spherical_300cm_s20_c20_cd-full_matched_a-55.wav","spherical","20","20","full","matched","-55","-55","1008"
"echo-presentation","99","603380","0.0-99.0","5ab308940527ba0001c15a9f","5fef55e628823a0076ec12ee","6018cb32c586911d7f87d842","Mozilla/5.0 (Windows NT 10.0; Win64; x64) AppleWebKit/537.36 (KHTML, like Gecko) Chrome/87.0.4280.101 Safari/537.36","","","","","","","","-70,-65,-60,-55,-50","media/audio/stims/spherical_300cm_s20_c20_cd-full_matched_a-70.wav","spherical","20","20","full","matched","-70","-55","1058"
"echo-presentation","100","607338","0.0-100.0","5ab308940527ba0001c15a9f","5fef55e628823a0076ec12ee","6018cb32c586911d7f87d842","Mozilla/5.0 (Windows NT 10.0; Win64; x64) AppleWebKit/537.36 (KHTML, like Gecko) Chrome/87.0.4280.101 Safari/537.36","","","","","","","","-70,-65,-60,-55,-50","media/audio/stims/spherical_300cm_s20_c20_cd-full_matched_a-65.wav","spherical","20","20","full","matched","-65","-55","2945"
"echo-presentation","101","610278","0.0-101.0","5ab308940527ba0001c15a9f","5fef55e628823a0076ec12ee","6018cb32c586911d7f87d842","Mozilla/5.0 (Windows NT 10.0; Win64; x64) AppleWebKit/537.36 (KHTML, like Gecko) Chrome/87.0.4280.101 Safari/537.36","","","","","","","","-70,-65,-60,-55,-50","media/audio/stims/spherical_300cm_s20_c20_cd-full_matched_a-60.wav","spherical","20","20","full","matched","-60","-50","1511"
"echo-presentation","102","613988","0.0-102.0","5ab308940527ba0001c15a9f","5fef55e628823a0076ec12ee","6018cb32c586911d7f87d842","Mozilla/5.0 (Windows NT 10.0; Win64; x64) AppleWebKit/537.36 (KHTML, like Gecko) Chrome/87.0.4280.101 Safari/537.36","","","","","","","","-70,-65,-60,-55,-50","media/audio/stims/spherical_300cm_s20_c20_cd-full_matched_a-65.wav","spherical","20","20","full","matched","-65","-55","1071"
"echo-presentation","103","615717","0.0-103.0","5ab308940527ba0001c15a9f","5fef55e628823a0076ec12ee","6018cb32c586911d7f87d842","Mozilla/5.0 (Windows NT 10.0; Win64; x64) AppleWebKit/537.36 (KHTML, like Gecko) Chrome/87.0.4280.101 Safari/537.36","","","","","","","","-70,-65,-60,-55,-50","media/audio/stims/spherical_300cm_s20_c20_cd-full_matched_a-60.wav","spherical","20","20","full","matched","-60","-55","962"
"echo-presentation","104","617829","0.0-104.0","5ab308940527ba0001c15a9f","5fef55e628823a0076ec12ee","6018cb32c586911d7f87d842","Mozilla/5.0 (Windows NT 10.0; Win64; x64) AppleWebKit/537.36 (KHTML, like Gecko) Chrome/87.0.4280.101 Safari/537.36","","","","","","","","-70,-65,-60,-55,-50","media/audio/stims/spherical_300cm_s20_c20_cd-full_matched_a-70.wav","spherical","20","20","full","matched","-70","-65","1280"
"echo-presentation","105","619701","0.0-105.0","5ab308940527ba0001c15a9f","5fef55e628823a0076ec12ee","6018cb32c586911d7f87d842","Mozilla/5.0 (Windows NT 10.0; Win64; x64) AppleWebKit/537.36 (KHTML, like Gecko) Chrome/87.0.4280.101 Safari/537.36","","","","","","","","-70,-65,-60,-55,-50","media/audio/stims/spherical_300cm_s20_c20_cd-full_matched_a-50.wav","spherical","20","20","full","matched","-50","-65","1076"
"echo-presentation","106","621502","0.0-106.0","5ab308940527ba0001c15a9f","5fef55e628823a0076ec12ee","6018cb32c586911d7f87d842","Mozilla/5.0 (Windows NT 10.0; Win64; x64) AppleWebKit/537.36 (KHTML, like Gecko) Chrome/87.0.4280.101 Safari/537.36","","","","","","","","-70,-65,-60,-55,-50","media/audio/stims/spherical_300cm_s20_c20_cd-full_matched_a-70.wav","spherical","20","20","full","matched","-70","-55","995"
"echo-presentation","107","623436","0.0-107.0","5ab308940527ba0001c15a9f","5fef55e628823a0076ec12ee","6018cb32c586911d7f87d842","Mozilla/5.0 (Windows NT 10.0; Win64; x64) AppleWebKit/537.36 (KHTML, like Gecko) Chrome/87.0.4280.101 Safari/537.36","","","","","","","","-70,-65,-60,-55,-50","media/audio/stims/spherical_300cm_s20_c20_cd-full_matched_a-50.wav","spherical","20","20","full","matched","-50","-65","1172"
"echo-presentation","108","626892","0.0-108.0","5ab308940527ba0001c15a9f","5fef55e628823a0076ec12ee","6018cb32c586911d7f87d842","Mozilla/5.0 (Windows NT 10.0; Win64; x64) AppleWebKit/537.36 (KHTML, like Gecko) Chrome/87.0.4280.101 Safari/537.36","","","","","","","","-70,-65,-60,-55,-50","media/audio/stims/spherical_300cm_s20_c20_cd-full_matched_a-60.wav","spherical","20","20","full","matched","-60","-70","2616"
"echo-presentation","109","628912","0.0-109.0","5ab308940527ba0001c15a9f","5fef55e628823a0076ec12ee","6018cb32c586911d7f87d842","Mozilla/5.0 (Windows NT 10.0; Win64; x64) AppleWebKit/537.36 (KHTML, like Gecko) Chrome/87.0.4280.101 Safari/537.36","","","","","","","","-70,-65,-60,-55,-50","media/audio/stims/spherical_300cm_s20_c20_cd-full_matched_a-70.wav","spherical","20","20","full","matched","-70","-65","1212"
"echo-presentation","110","630884","0.0-110.0","5ab308940527ba0001c15a9f","5fef55e628823a0076ec12ee","6018cb32c586911d7f87d842","Mozilla/5.0 (Windows NT 10.0; Win64; x64) AppleWebKit/537.36 (KHTML, like Gecko) Chrome/87.0.4280.101 Safari/537.36","","","","","","","","-70,-65,-60,-55,-50","media/audio/stims/spherical_300cm_s20_c20_cd-full_matched_a-55.wav","spherical","20","20","full","matched","-55","-65","1160"
"echo-presentation","111","632629","0.0-111.0","5ab308940527ba0001c15a9f","5fef55e628823a0076ec12ee","6018cb32c586911d7f87d842","Mozilla/5.0 (Windows NT 10.0; Win64; x64) AppleWebKit/537.36 (KHTML, like Gecko) Chrome/87.0.4280.101 Safari/537.36","","","","","","","","-70,-65,-60,-55,-50","media/audio/stims/spherical_300cm_s20_c20_cd-full_matched_a-65.wav","spherical","20","20","full","matched","-65","-65","998"
"echo-presentation","112","634738","0.0-112.0","5ab308940527ba0001c15a9f","5fef55e628823a0076ec12ee","6018cb32c586911d7f87d842","Mozilla/5.0 (Windows NT 10.0; Win64; x64) AppleWebKit/537.36 (KHTML, like Gecko) Chrome/87.0.4280.101 Safari/537.36","","","","","","","","-70,-65,-60,-55,-50","media/audio/stims/spherical_300cm_s20_c20_cd-full_matched_a-60.wav","spherical","20","20","full","matched","-60","-50","1409"
"echo-presentation","113","636550","0.0-113.0","5ab308940527ba0001c15a9f","5fef55e628823a0076ec12ee","6018cb32c586911d7f87d842","Mozilla/5.0 (Windows NT 10.0; Win64; x64) AppleWebKit/537.36 (KHTML, like Gecko) Chrome/87.0.4280.101 Safari/537.36","","","","","","","","-70,-65,-60,-55,-50","media/audio/stims/spherical_300cm_s20_c20_cd-full_matched_a-50.wav","spherical","20","20","full","matched","-50","-55","977"
"echo-presentation","114","638469","0.0-114.0","5ab308940527ba0001c15a9f","5fef55e628823a0076ec12ee","6018cb32c586911d7f87d842","Mozilla/5.0 (Windows NT 10.0; Win64; x64) AppleWebKit/537.36 (KHTML, like Gecko) Chrome/87.0.4280.101 Safari/537.36","","","","","","","","-70,-65,-60,-55,-50","media/audio/stims/spherical_300cm_s20_c20_cd-full_matched_a-55.wav","spherical","20","20","full","matched","-55","-55","1130"
"echo-presentation","115","640124","0.0-115.0","5ab308940527ba0001c15a9f","5fef55e628823a0076ec12ee","6018cb32c586911d7f87d842","Mozilla/5.0 (Windows NT 10.0; Win64; x64) AppleWebKit/537.36 (KHTML, like Gecko) Chrome/87.0.4280.101 Safari/537.36","","","","","","","","-70,-65,-60,-55,-50","media/audio/stims/spherical_300cm_s20_c20_cd-full_matched_a-55.wav","spherical","20","20","full","matched","-55","-55","1136"
"block-bookend","116","641757","0.0-116.0","5ab308940527ba0001c15a9f","5fef55e628823a0076ec12ee","6018cb32c586911d7f87d842","Mozilla/5.0 (Windows NT 10.0; Win64; x64) AppleWebKit/537.36 (KHTML, like Gecko) Chrome/87.0.4280.101 Safari/537.36","","","","","","","","","","","","","","","","",""
"block-bookend","117","648349","0.0-117.0","5ab308940527ba0001c15a9f","5fef55e628823a0076ec12ee","6018cb32c586911d7f87d842","Mozilla/5.0 (Windows NT 10.0; Win64; x64) AppleWebKit/537.36 (KHTML, like Gecko) Chrome/87.0.4280.101 Safari/537.36","","","","","","","","","","","","","","","","",""
"echo-presentation","118","650628","0.0-118.0","5ab308940527ba0001c15a9f","5fef55e628823a0076ec12ee","6018cb32c586911d7f87d842","Mozilla/5.0 (Windows NT 10.0; Win64; x64) AppleWebKit/537.36 (KHTML, like Gecko) Chrome/87.0.4280.101 Safari/537.36","","","","","","","","50,55,60,65,70","media/audio/stims/spherical_300cm_s20_c20_cd-full_matched_a50.wav","spherical","20","20","full","matched","50","55","1038"
"echo-presentation","119","652476","0.0-119.0","5ab308940527ba0001c15a9f","5fef55e628823a0076ec12ee","6018cb32c586911d7f87d842","Mozilla/5.0 (Windows NT 10.0; Win64; x64) AppleWebKit/537.36 (KHTML, like Gecko) Chrome/87.0.4280.101 Safari/537.36","","","","","","","","50,55,60,65,70","media/audio/stims/spherical_300cm_s20_c20_cd-full_matched_a55.wav","spherical","20","20","full","matched","55","60","1066"
"echo-presentation","120","655500","0.0-120.0","5ab308940527ba0001c15a9f","5fef55e628823a0076ec12ee","6018cb32c586911d7f87d842","Mozilla/5.0 (Windows NT 10.0; Win64; x64) AppleWebKit/537.36 (KHTML, like Gecko) Chrome/87.0.4280.101 Safari/537.36","","","","","","","","50,55,60,65,70","media/audio/stims/spherical_300cm_s20_c20_cd-full_matched_a55.wav","spherical","20","20","full","matched","55","60","2155"
"echo-presentation","121","660382","0.0-121.0","5ab308940527ba0001c15a9f","5fef55e628823a0076ec12ee","6018cb32c586911d7f87d842","Mozilla/5.0 (Windows NT 10.0; Win64; x64) AppleWebKit/537.36 (KHTML, like Gecko) Chrome/87.0.4280.101 Safari/537.36","","","","","","","","50,55,60,65,70","media/audio/stims/spherical_300cm_s20_c20_cd-full_matched_a60.wav","spherical","20","20","full","matched","60","65","4236"
"echo-presentation","122","662540","0.0-122.0","5ab308940527ba0001c15a9f","5fef55e628823a0076ec12ee","6018cb32c586911d7f87d842","Mozilla/5.0 (Windows NT 10.0; Win64; x64) AppleWebKit/537.36 (KHTML, like Gecko) Chrome/87.0.4280.101 Safari/537.36","","","","","","","","50,55,60,65,70","media/audio/stims/spherical_300cm_s20_c20_cd-full_matched_a65.wav","spherical","20","20","full","matched","65","65","1148"
"echo-presentation","123","664708","0.0-123.0","5ab308940527ba0001c15a9f","5fef55e628823a0076ec12ee","6018cb32c586911d7f87d842","Mozilla/5.0 (Windows NT 10.0; Win64; x64) AppleWebKit/537.36 (KHTML, like Gecko) Chrome/87.0.4280.101 Safari/537.36","","","","","","","","50,55,60,65,70","media/audio/stims/spherical_300cm_s20_c20_cd-full_matched_a55.wav","spherical","20","20","full","matched","55","65","1289"
"echo-presentation","124","666368","0.0-124.0","5ab308940527ba0001c15a9f","5fef55e628823a0076ec12ee","6018cb32c586911d7f87d842","Mozilla/5.0 (Windows NT 10.0; Win64; x64) AppleWebKit/537.36 (KHTML, like Gecko) Chrome/87.0.4280.101 Safari/537.36","","","","","","","","50,55,60,65,70","media/audio/stims/spherical_300cm_s20_c20_cd-full_matched_a55.wav","spherical","20","20","full","matched","55","55","834"
"echo-presentation","125","668356","0.0-125.0","5ab308940527ba0001c15a9f","5fef55e628823a0076ec12ee","6018cb32c586911d7f87d842","Mozilla/5.0 (Windows NT 10.0; Win64; x64) AppleWebKit/537.36 (KHTML, like Gecko) Chrome/87.0.4280.101 Safari/537.36","","","","","","","","50,55,60,65,70","media/audio/stims/spherical_300cm_s20_c20_cd-full_matched_a70.wav","spherical","20","20","full","matched","70","60","1082"
"echo-presentation","126","670371","0.0-126.0","5ab308940527ba0001c15a9f","5fef55e628823a0076ec12ee","6018cb32c586911d7f87d842","Mozilla/5.0 (Windows NT 10.0; Win64; x64) AppleWebKit/537.36 (KHTML, like Gecko) Chrome/87.0.4280.101 Safari/537.36","","","","","","","","50,55,60,65,70","media/audio/stims/spherical_300cm_s20_c20_cd-full_matched_a65.wav","spherical","20","20","full","matched","65","65","896"
"echo-presentation","127","672426","0.0-127.0","5ab308940527ba0001c15a9f","5fef55e628823a0076ec12ee","6018cb32c586911d7f87d842","Mozilla/5.0 (Windows NT 10.0; Win64; x64) AppleWebKit/537.36 (KHTML, like Gecko) Chrome/87.0.4280.101 Safari/537.36","","","","","","","","50,55,60,65,70","media/audio/stims/spherical_300cm_s20_c20_cd-full_matched_a50.wav","spherical","20","20","full","matched","50","70","1215"
"echo-presentation","128","674669","0.0-128.0","5ab308940527ba0001c15a9f","5fef55e628823a0076ec12ee","6018cb32c586911d7f87d842","Mozilla/5.0 (Windows NT 10.0; Win64; x64) AppleWebKit/537.36 (KHTML, like Gecko) Chrome/87.0.4280.101 Safari/537.36","","","","","","","","50,55,60,65,70","media/audio/stims/spherical_300cm_s20_c20_cd-full_matched_a50.wav","spherical","20","20","full","matched","50","65","1401"
"echo-presentation","129","677516","0.0-129.0","5ab308940527ba0001c15a9f","5fef55e628823a0076ec12ee","6018cb32c586911d7f87d842","Mozilla/5.0 (Windows NT 10.0; Win64; x64) AppleWebKit/537.36 (KHTML, like Gecko) Chrome/87.0.4280.101 Safari/537.36","","","","","","","","50,55,60,65,70","media/audio/stims/spherical_300cm_s20_c20_cd-full_matched_a70.wav","spherical","20","20","full","matched","70","65","1744"
"echo-presentation","130","679763","0.0-130.0","5ab308940527ba0001c15a9f","5fef55e628823a0076ec12ee","6018cb32c586911d7f87d842","Mozilla/5.0 (Windows NT 10.0; Win64; x64) AppleWebKit/537.36 (KHTML, like Gecko) Chrome/87.0.4280.101 Safari/537.36","","","","","","","","50,55,60,65,70","media/audio/stims/spherical_300cm_s20_c20_cd-full_matched_a60.wav","spherical","20","20","full","matched","60","55","1298"
"echo-presentation","131","682350","0.0-131.0","5ab308940527ba0001c15a9f","5fef55e628823a0076ec12ee","6018cb32c586911d7f87d842","Mozilla/5.0 (Windows NT 10.0; Win64; x64) AppleWebKit/537.36 (KHTML, like Gecko) Chrome/87.0.4280.101 Safari/537.36","","","","","","","","50,55,60,65,70","media/audio/stims/spherical_300cm_s20_c20_cd-full_matched_a70.wav","spherical","20","20","full","matched","70","55","1820"
"echo-presentation","132","683836","0.0-132.0","5ab308940527ba0001c15a9f","5fef55e628823a0076ec12ee","6018cb32c586911d7f87d842","Mozilla/5.0 (Windows NT 10.0; Win64; x64) AppleWebKit/537.36 (KHTML, like Gecko) Chrome/87.0.4280.101 Safari/537.36","","","","","","","","50,55,60,65,70","media/audio/stims/spherical_300cm_s20_c20_cd-full_matched_a70.wav","spherical","20","20","full","matched","70","55","873"
"echo-presentation","133","685273","0.0-133.0","5ab308940527ba0001c15a9f","5fef55e628823a0076ec12ee","6018cb32c586911d7f87d842","Mozilla/5.0 (Windows NT 10.0; Win64; x64) AppleWebKit/537.36 (KHTML, like Gecko) Chrome/87.0.4280.101 Safari/537.36","","","","","","","","50,55,60,65,70","media/audio/stims/spherical_300cm_s20_c20_cd-full_matched_a65.wav","spherical","20","20","full","matched","65","55","836"
"echo-presentation","134","687244","0.0-134.0","5ab308940527ba0001c15a9f","5fef55e628823a0076ec12ee","6018cb32c586911d7f87d842","Mozilla/5.0 (Windows NT 10.0; Win64; x64) AppleWebKit/537.36 (KHTML, like Gecko) Chrome/87.0.4280.101 Safari/537.36","","","","","","","","50,55,60,65,70","media/audio/stims/spherical_300cm_s20_c20_cd-full_matched_a65.wav","spherical","20","20","full","matched","65","55","1224"
"echo-presentation","135","689339","0.0-135.0","5ab308940527ba0001c15a9f","5fef55e628823a0076ec12ee","6018cb32c586911d7f87d842","Mozilla/5.0 (Windows NT 10.0; Win64; x64) AppleWebKit/537.36 (KHTML, like Gecko) Chrome/87.0.4280.101 Safari/537.36","","","","","","","","50,55,60,65,70","media/audio/stims/spherical_300cm_s20_c20_cd-full_matched_a60.wav","spherical","20","20","full","matched","60","65","1073"
"echo-presentation","136","691243","0.0-136.0","5ab308940527ba0001c15a9f","5fef55e628823a0076ec12ee","6018cb32c586911d7f87d842","Mozilla/5.0 (Windows NT 10.0; Win64; x64) AppleWebKit/537.36 (KHTML, like Gecko) Chrome/87.0.4280.101 Safari/537.36","","","","","","","","50,55,60,65,70","media/audio/stims/spherical_300cm_s20_c20_cd-full_matched_a50.wav","spherical","20","20","full","matched","50","60","1075"
"echo-presentation","137","692926","0.0-137.0","5ab308940527ba0001c15a9f","5fef55e628823a0076ec12ee","6018cb32c586911d7f87d842","Mozilla/5.0 (Windows NT 10.0; Win64; x64) AppleWebKit/537.36 (KHTML, like Gecko) Chrome/87.0.4280.101 Safari/537.36","","","","","","","","50,55,60,65,70","media/audio/stims/spherical_300cm_s20_c20_cd-full_matched_a60.wav","spherical","20","20","full","matched","60","70","1102"
"block-bookend","138","694037","0.0-138.0","5ab308940527ba0001c15a9f","5fef55e628823a0076ec12ee","6018cb32c586911d7f87d842","Mozilla/5.0 (Windows NT 10.0; Win64; x64) AppleWebKit/537.36 (KHTML, like Gecko) Chrome/87.0.4280.101 Safari/537.36","","","","","","","","","","","","","","","","",""
